Data from unagg-15c-2a-1h_Absorbance__898__01325.txt Node

Date: Mon May 06 10:02:40 CEST 2024
User: Laser008
Spectrometer: MAYP115816
Trigger mode: 0
Integration Time (sec): 2.000000E-1
Scans to average: 10
Electric dark correction enabled: true
Nonlinearity correction enabled: true
Boxcar width: 5
XAxis mode: Wavelengths
Number of Pixels in Spectrum: 2068
>>>>>Begin Spectral Data<<<<<
198.914	-1.83
199.384	-1.68
199.855	-1.54
200.325	-1.42
200.796	-1.34
201.266	-1.29
201.737	-1.22
202.207	-1.16
202.677	-1.11
203.147	-1.06
203.618	-1.03
204.088	-1.01
204.558	-0.99
205.028	-0.98
205.498	-0.97
205.968	-0.97
206.439	-0.97
206.909	-0.96
207.379	-0.96
207.849	-0.96
208.319	-0.96
208.789	-0.96
209.258	-0.95
209.728	-0.95
210.198	-0.95
210.668	-0.95
211.138	-0.95
211.608	-0.95
212.077	-0.95
212.547	-0.95
213.017	-0.95
213.486	-0.95
213.956	-0.95
214.426	-0.95
214.895	-0.95
215.365	-0.94
215.834	-0.94
216.304	-0.94
216.773	-0.94
217.243	-0.94
217.712	-0.93
218.181	-0.93
218.651	-0.93
219.12	-0.93
219.589	-0.92
220.058	-0.92
220.528	-0.92
220.997	-0.92
221.466	-0.92
221.935	-0.91
222.404	-0.91
222.873	-0.9
223.342	-0.9
223.812	-0.89
224.281	-0.88
224.749	-0.87
225.218	-0.86
225.687	-0.85
226.156	-0.84
226.625	-0.83
227.094	-0.81
227.563	-0.8
228.031	-0.78
228.5	-0.76
228.969	-0.73
229.438	-0.71
229.906	-0.68
230.375	-0.64
230.844	-0.61
231.312	-0.57
231.781	-0.53
232.249	-0.49
232.718	-0.44
233.186	-0.4
233.655	-0.35
234.123	-0.31
234.591	-0.27
235.06	-0.22
235.528	-0.18
235.996	-0.14
236.465	-0.1
236.933	-0.07
237.401	-0.03
237.869	-0
238.337	0.03
238.805	0.06
239.274	0.08
239.742	0.11
240.21	0.13
240.678	0.15
241.146	0.17
241.614	0.19
242.081	0.21
242.549	0.22
243.017	0.24
243.485	0.25
243.953	0.27
244.421	0.28
244.888	0.29
245.356	0.3
245.824	0.31
246.291	0.32
246.759	0.33
247.227	0.34
247.694	0.34
248.162	0.35
248.629	0.36
249.097	0.37
249.564	0.37
250.032	0.38
250.499	0.39
250.967	0.39
251.434	0.4
251.901	0.4
252.369	0.41
252.836	0.41
253.303	0.42
253.77	0.42
254.237	0.43
254.705	0.43
255.172	0.44
255.639	0.44
256.106	0.44
256.573	0.44
257.04	0.45
257.507	0.45
257.974	0.45
258.441	0.45
258.908	0.46
259.375	0.46
259.841	0.46
260.308	0.46
260.775	0.46
261.242	0.46
261.709	0.46
262.175	0.46
262.642	0.46
263.109	0.46
263.575	0.46
264.042	0.46
264.508	0.46
264.975	0.46
265.441	0.46
265.908	0.46
266.374	0.46
266.841	0.45
267.307	0.45
267.773	0.45
268.24	0.45
268.706	0.45
269.172	0.45
269.639	0.44
270.105	0.44
270.571	0.44
271.037	0.44
271.503	0.43
271.969	0.43
272.435	0.43
272.902	0.43
273.368	0.42
273.834	0.42
274.3	0.42
274.765	0.41
275.231	0.41
275.697	0.41
276.163	0.41
276.629	0.4
277.095	0.4
277.56	0.4
278.026	0.39
278.492	0.39
278.958	0.39
279.423	0.38
279.889	0.38
280.354	0.38
280.82	0.37
281.286	0.37
281.751	0.37
282.217	0.36
282.682	0.36
283.147	0.36
283.613	0.36
284.078	0.35
284.544	0.35
285.009	0.35
285.474	0.35
285.939	0.34
286.405	0.34
286.87	0.34
287.335	0.34
287.8	0.33
288.265	0.33
288.73	0.33
289.195	0.33
289.66	0.32
290.125	0.32
290.59	0.32
291.055	0.32
291.52	0.32
291.985	0.32
292.45	0.31
292.915	0.31
293.38	0.31
293.844	0.31
294.309	0.31
294.774	0.31
295.239	0.31
295.703	0.3
296.168	0.3
296.632	0.3
297.097	0.3
297.562	0.3
298.026	0.3
298.491	0.3
298.955	0.3
299.419	0.3
299.884	0.3
300.348	0.3
300.813	0.3
301.277	0.3
301.741	0.29
302.205	0.29
302.67	0.29
303.134	0.29
303.598	0.29
304.062	0.29
304.526	0.29
304.99	0.29
305.454	0.29
305.919	0.29
306.383	0.29
306.847	0.29
307.31	0.29
307.774	0.29
308.238	0.29
308.702	0.29
309.166	0.29
309.63	0.29
310.094	0.29
310.557	0.29
311.021	0.29
311.485	0.29
311.948	0.29
312.412	0.29
312.876	0.29
313.339	0.29
313.803	0.29
314.266	0.29
314.73	0.29
315.193	0.29
315.657	0.29
316.12	0.29
316.584	0.29
317.047	0.28
317.51	0.28
317.973	0.28
318.437	0.28
318.9	0.28
319.363	0.28
319.826	0.28
320.29	0.28
320.753	0.28
321.216	0.28
321.679	0.28
322.142	0.28
322.605	0.28
323.068	0.28
323.531	0.28
323.994	0.28
324.457	0.28
324.92	0.28
325.382	0.28
325.845	0.28
326.308	0.28
326.771	0.28
327.233	0.28
327.696	0.28
328.159	0.28
328.622	0.28
329.084	0.28
329.547	0.28
330.009	0.28
330.472	0.27
330.934	0.27
331.397	0.27
331.859	0.27
332.322	0.27
332.784	0.27
333.246	0.27
333.709	0.27
334.171	0.27
334.633	0.27
335.096	0.27
335.558	0.27
336.02	0.27
336.482	0.27
336.944	0.27
337.406	0.27
337.868	0.27
338.331	0.27
338.793	0.27
339.255	0.27
339.717	0.27
340.178	0.27
340.64	0.27
341.102	0.27
341.564	0.27
342.026	0.27
342.488	0.27
342.949	0.27
343.411	0.27
343.873	0.26
344.335	0.26
344.796	0.26
345.258	0.26
345.719	0.26
346.181	0.26
346.643	0.26
347.104	0.26
347.566	0.26
348.027	0.26
348.488	0.26
348.95	0.26
349.411	0.26
349.873	0.26
350.334	0.26
350.795	0.26
351.256	0.26
351.718	0.26
352.179	0.26
352.64	0.26
353.101	0.26
353.562	0.26
354.023	0.26
354.484	0.25
354.945	0.25
355.406	0.25
355.867	0.25
356.328	0.25
356.789	0.25
357.25	0.25
357.711	0.25
358.172	0.25
358.633	0.25
359.093	0.25
359.554	0.25
360.015	0.25
360.476	0.25
360.936	0.25
361.397	0.25
361.858	0.25
362.318	0.26
362.779	0.26
363.239	0.26
363.7	0.26
364.16	0.26
364.621	0.26
365.081	0.25
365.541	0.25
366.002	0.25
366.462	0.25
366.922	0.25
367.383	0.25
367.843	0.25
368.303	0.25
368.763	0.25
369.223	0.25
369.684	0.25
370.144	0.25
370.604	0.25
371.064	0.25
371.524	0.25
371.984	0.25
372.444	0.25
372.904	0.25
373.363	0.25
373.823	0.25
374.283	0.25
374.743	0.25
375.203	0.25
375.663	0.25
376.122	0.25
376.582	0.25
377.042	0.25
377.501	0.25
377.961	0.25
378.42	0.25
378.88	0.26
379.34	0.26
379.799	0.26
380.259	0.26
380.718	0.26
381.177	0.26
381.637	0.25
382.096	0.25
382.555	0.25
383.015	0.25
383.474	0.25
383.933	0.25
384.393	0.25
384.852	0.25
385.311	0.25
385.77	0.25
386.229	0.25
386.688	0.25
387.147	0.26
387.606	0.25
388.065	0.25
388.524	0.25
388.983	0.25
389.442	0.25
389.901	0.26
390.36	0.26
390.819	0.26
391.277	0.26
391.736	0.26
392.195	0.26
392.654	0.26
393.112	0.26
393.571	0.26
394.03	0.26
394.488	0.26
394.947	0.26
395.405	0.26
395.864	0.26
396.322	0.26
396.781	0.26
397.239	0.26
397.698	0.26
398.156	0.26
398.614	0.26
399.073	0.26
399.531	0.26
399.989	0.26
400.447	0.26
400.905	0.26
401.364	0.26
401.822	0.26
402.28	0.26
402.738	0.26
403.196	0.25
403.654	0.25
404.112	0.25
404.57	0.25
405.028	0.25
405.486	0.25
405.944	0.25
406.402	0.25
406.859	0.25
407.317	0.25
407.775	0.25
408.233	0.25
408.691	0.25
409.148	0.25
409.606	0.25
410.064	0.25
410.521	0.25
410.979	0.25
411.436	0.25
411.894	0.25
412.351	0.25
412.809	0.25
413.266	0.25
413.724	0.25
414.181	0.25
414.638	0.25
415.096	0.25
415.553	0.25
416.01	0.25
416.467	0.25
416.925	0.25
417.382	0.25
417.839	0.25
418.296	0.25
418.753	0.25
419.21	0.25
419.667	0.25
420.124	0.25
420.581	0.25
421.038	0.25
421.495	0.25
421.952	0.25
422.409	0.25
422.866	0.25
423.322	0.25
423.779	0.25
424.236	0.25
424.693	0.25
425.149	0.25
425.606	0.25
426.063	0.25
426.519	0.25
426.976	0.25
427.433	0.25
427.889	0.25
428.346	0.25
428.802	0.25
429.258	0.25
429.715	0.25
430.171	0.25
430.628	0.25
431.084	0.25
431.54	0.25
431.997	0.25
432.453	0.25
432.909	0.25
433.365	0.25
433.821	0.25
434.277	0.25
434.734	0.25
435.19	0.25
435.646	0.25
436.102	0.25
436.558	0.25
437.014	0.25
437.47	0.25
437.925	0.25
438.381	0.25
438.837	0.25
439.293	0.25
439.749	0.25
440.205	0.25
440.66	0.25
441.116	0.25
441.572	0.25
442.027	0.25
442.483	0.25
442.939	0.25
443.394	0.25
443.85	0.25
444.305	0.25
444.761	0.25
445.216	0.25
445.672	0.25
446.127	0.25
446.582	0.25
447.038	0.25
447.493	0.25
447.948	0.25
448.403	0.25
448.859	0.25
449.314	0.25
449.769	0.25
450.224	0.25
450.679	0.25
451.134	0.25
451.589	0.24
452.044	0.24
452.499	0.24
452.954	0.24
453.409	0.24
453.864	0.24
454.319	0.24
454.774	0.24
455.229	0.24
455.684	0.24
456.138	0.24
456.593	0.24
457.048	0.24
457.503	0.24
457.957	0.24
458.412	0.24
458.866	0.24
459.321	0.24
459.776	0.24
460.23	0.24
460.685	0.24
461.139	0.24
461.593	0.24
462.048	0.24
462.502	0.24
462.957	0.24
463.411	0.24
463.865	0.24
464.319	0.24
464.774	0.24
465.228	0.24
465.682	0.24
466.136	0.24
466.59	0.24
467.044	0.24
467.499	0.24
467.953	0.24
468.407	0.23
468.861	0.23
469.315	0.23
469.768	0.23
470.222	0.23
470.676	0.23
471.13	0.23
471.584	0.23
472.038	0.23
472.491	0.23
472.945	0.23
473.399	0.23
473.852	0.23
474.306	0.23
474.76	0.23
475.213	0.23
475.667	0.23
476.12	0.23
476.574	0.23
477.027	0.23
477.481	0.23
477.934	0.23
478.388	0.23
478.841	0.23
479.294	0.23
479.748	0.23
480.201	0.23
480.654	0.23
481.107	0.23
481.561	0.23
482.014	0.24
482.467	0.24
482.92	0.24
483.373	0.24
483.826	0.24
484.279	0.24
484.732	0.24
485.185	0.24
485.638	0.24
486.091	0.24
486.544	0.24
486.997	0.24
487.449	0.24
487.902	0.24
488.355	0.24
488.808	0.24
489.26	0.24
489.713	0.24
490.166	0.24
490.618	0.24
491.071	0.24
491.523	0.24
491.976	0.24
492.429	0.24
492.881	0.24
493.333	0.24
493.786	0.24
494.238	0.24
494.691	0.24
495.143	0.24
495.595	0.25
496.048	0.25
496.5	0.25
496.952	0.25
497.404	0.25
497.856	0.25
498.309	0.25
498.761	0.25
499.213	0.25
499.665	0.25
500.117	0.25
500.569	0.25
501.021	0.25
501.473	0.25
501.925	0.25
502.377	0.25
502.828	0.26
503.28	0.26
503.732	0.26
504.184	0.26
504.636	0.26
505.087	0.26
505.539	0.26
505.991	0.26
506.442	0.26
506.894	0.26
507.345	0.26
507.797	0.26
508.249	0.26
508.7	0.26
509.151	0.26
509.603	0.26
510.054	0.26
510.506	0.26
510.957	0.26
511.408	0.26
511.86	0.26
512.311	0.27
512.762	0.27
513.213	0.27
513.665	0.27
514.116	0.27
514.567	0.27
515.018	0.27
515.469	0.27
515.92	0.27
516.371	0.27
516.822	0.27
517.273	0.27
517.724	0.27
518.175	0.27
518.626	0.27
519.076	0.27
519.527	0.27
519.978	0.26
520.429	0.26
520.88	0.26
521.33	0.26
521.781	0.26
522.232	0.26
522.682	0.26
523.133	0.26
523.583	0.26
524.034	0.27
524.484	0.27
524.935	0.27
525.385	0.27
525.836	0.28
526.286	0.28
526.736	0.28
527.187	0.28
527.637	0.29
528.087	0.29
528.538	0.29
528.988	0.29
529.438	0.29
529.888	0.29
530.338	0.29
530.788	0.3
531.238	0.3
531.688	0.3
532.139	0.3
532.589	0.3
533.038	0.3
533.488	0.3
533.938	0.3
534.388	0.3
534.838	0.3
535.288	0.31
535.738	0.31
536.187	0.31
536.637	0.31
537.087	0.31
537.537	0.31
537.986	0.31
538.436	0.31
538.885	0.31
539.335	0.31
539.785	0.31
540.234	0.31
540.684	0.31
541.133	0.31
541.582	0.31
542.032	0.32
542.481	0.32
542.931	0.32
543.38	0.32
543.829	0.32
544.278	0.32
544.728	0.32
545.177	0.32
545.626	0.32
546.075	0.33
546.524	0.33
546.973	0.33
547.422	0.33
547.871	0.33
548.32	0.33
548.769	0.33
549.218	0.33
549.667	0.33
550.116	0.33
550.565	0.33
551.014	0.33
551.463	0.33
551.911	0.33
552.36	0.33
552.809	0.34
553.258	0.34
553.706	0.34
554.155	0.34
554.603	0.34
555.052	0.34
555.501	0.34
555.949	0.34
556.398	0.34
556.846	0.34
557.294	0.34
557.743	0.34
558.191	0.34
558.64	0.34
559.088	0.34
559.536	0.34
559.985	0.34
560.433	0.34
560.881	0.34
561.329	0.35
561.777	0.35
562.225	0.35
562.674	0.35
563.122	0.35
563.57	0.35
564.018	0.35
564.466	0.35
564.914	0.35
565.362	0.35
565.809	0.35
566.257	0.35
566.705	0.35
567.153	0.35
567.601	0.35
568.048	0.36
568.496	0.36
568.944	0.36
569.392	0.36
569.839	0.37
570.287	0.37
570.734	0.37
571.182	0.37
571.63	0.37
572.077	0.37
572.525	0.38
572.972	0.38
573.419	0.38
573.867	0.38
574.314	0.38
574.761	0.38
575.209	0.38
575.656	0.38
576.103	0.38
576.551	0.38
576.998	0.38
577.445	0.39
577.892	0.39
578.339	0.39
578.786	0.39
579.233	0.39
579.68	0.39
580.127	0.39
580.574	0.39
581.021	0.39
581.468	0.39
581.915	0.39
582.362	0.39
582.809	0.39
583.255	0.39
583.702	0.39
584.149	0.38
584.596	0.38
585.042	0.38
585.489	0.38
585.936	0.38
586.382	0.38
586.829	0.38
587.275	0.38
587.722	0.38
588.168	0.38
588.615	0.37
589.061	0.37
589.508	0.37
589.954	0.37
590.4	0.37
590.847	0.37
591.293	0.37
591.739	0.37
592.185	0.37
592.632	0.37
593.078	0.37
593.524	0.37
593.97	0.37
594.416	0.37
594.862	0.37
595.308	0.37
595.754	0.37
596.2	0.37
596.646	0.37
597.092	0.37
597.538	0.37
597.984	0.37
598.43	0.37
598.876	0.37
599.321	0.37
599.767	0.37
600.213	0.37
600.659	0.37
601.104	0.36
601.55	0.36
601.995	0.36
602.441	0.36
602.887	0.36
603.332	0.36
603.778	0.36
604.223	0.36
604.668	0.36
605.114	0.36
605.559	0.36
606.005	0.36
606.45	0.36
606.895	0.36
607.341	0.36
607.786	0.35
608.231	0.35
608.676	0.35
609.121	0.35
609.566	0.35
610.012	0.35
610.457	0.34
610.902	0.34
611.347	0.34
611.792	0.34
612.237	0.34
612.682	0.34
613.127	0.34
613.571	0.34
614.016	0.34
614.461	0.34
614.906	0.34
615.351	0.33
615.795	0.33
616.24	0.33
616.685	0.33
617.129	0.33
617.574	0.32
618.019	0.32
618.463	0.32
618.908	0.32
619.352	0.32
619.797	0.32
620.241	0.32
620.686	0.32
621.13	0.32
621.574	0.32
622.019	0.31
622.463	0.31
622.907	0.31
623.352	0.31
623.796	0.31
624.24	0.31
624.684	0.31
625.128	0.31
625.572	0.31
626.016	0.31
626.461	0.31
626.905	0.3
627.349	0.3
627.793	0.3
628.236	0.3
628.68	0.3
629.124	0.3
629.568	0.3
630.012	0.3
630.456	0.3
630.9	0.3
631.343	0.29
631.787	0.29
632.231	0.29
632.674	0.29
633.118	0.29
633.562	0.29
634.005	0.29
634.449	0.29
634.892	0.29
635.336	0.29
635.779	0.29
636.223	0.29
636.666	0.28
637.109	0.28
637.553	0.28
637.996	0.28
638.439	0.28
638.883	0.28
639.326	0.28
639.769	0.28
640.212	0.28
640.655	0.28
641.099	0.28
641.542	0.28
641.985	0.28
642.428	0.28
642.871	0.28
643.314	0.28
643.757	0.28
644.2	0.28
644.643	0.28
645.085	0.28
645.528	0.28
645.971	0.28
646.414	0.28
646.857	0.28
647.299	0.28
647.742	0.28
648.185	0.28
648.627	0.28
649.07	0.28
649.513	0.28
649.955	0.28
650.398	0.29
650.84	0.29
651.283	0.29
651.725	0.29
652.168	0.29
652.61	0.29
653.052	0.29
653.495	0.28
653.937	0.22
654.379	0.18
654.821	0.18
655.264	0.19
655.706	0.19
656.148	0.19
656.59	0.19
657.032	0.19
657.474	0.19
657.916	0.19
658.358	0.19
658.8	0.23
659.242	0.3
659.684	0.3
660.126	0.3
660.568	0.3
661.01	0.3
661.452	0.3
661.894	0.3
662.335	0.3
662.777	0.3
663.219	0.3
663.661	0.3
664.102	0.3
664.544	0.3
664.985	0.3
665.427	0.31
665.869	0.31
666.31	0.31
666.752	0.31
667.193	0.31
667.634	0.31
668.076	0.31
668.517	0.31
668.959	0.31
669.4	0.31
669.841	0.32
670.282	0.32
670.724	0.32
671.165	0.32
671.606	0.32
672.047	0.32
672.488	0.32
672.929	0.32
673.37	0.33
673.811	0.33
674.252	0.33
674.693	0.33
675.134	0.33
675.575	0.33
676.016	0.33
676.457	0.33
676.898	0.33
677.339	0.33
677.78	0.33
678.22	0.33
678.661	0.33
679.102	0.33
679.542	0.33
679.983	0.33
680.424	0.33
680.864	0.33
681.305	0.33
681.745	0.34
682.186	0.34
682.626	0.34
683.067	0.34
683.507	0.34
683.948	0.34
684.388	0.34
684.828	0.34
685.269	0.34
685.709	0.34
686.149	0.34
686.589	0.35
687.029	0.35
687.47	0.35
687.91	0.35
688.35	0.35
688.79	0.35
689.23	0.35
689.67	0.35
690.11	0.35
690.55	0.35
690.99	0.36
691.43	0.36
691.87	0.36
692.31	0.36
692.749	0.36
693.189	0.36
693.629	0.36
694.069	0.36
694.508	0.36
694.948	0.37
695.388	0.37
695.827	0.37
696.267	0.37
696.706	0.37
697.146	0.37
697.586	0.37
698.025	0.37
698.464	0.37
698.904	0.37
699.343	0.37
699.783	0.37
700.222	0.37
700.661	0.37
701.101	0.37
701.54	0.37
701.979	0.37
702.418	0.37
702.857	0.37
703.297	0.37
703.736	0.37
704.175	0.38
704.614	0.38
705.053	0.38
705.492	0.38
705.931	0.38
706.37	0.38
706.809	0.38
707.248	0.38
707.687	0.38
708.125	0.38
708.564	0.38
709.003	0.38
709.442	0.38
709.88	0.38
710.319	0.38
710.758	0.38
711.196	0.38
711.635	0.38
712.074	0.39
712.512	0.39
712.951	0.39
713.389	0.39
713.828	0.39
714.266	0.39
714.705	0.39
715.143	0.39
715.581	0.38
716.02	0.38
716.458	0.38
716.896	0.38
717.334	0.38
717.773	0.38
718.211	0.38
718.649	0.38
719.087	0.39
719.525	0.39
719.963	0.39
720.401	0.39
720.839	0.39
721.277	0.39
721.715	0.39
722.153	0.38
722.591	0.38
723.029	0.38
723.467	0.38
723.905	0.38
724.342	0.38
724.78	0.38
725.218	0.38
725.656	0.38
726.093	0.38
726.531	0.38
726.969	0.38
727.406	0.38
727.844	0.38
728.281	0.39
728.719	0.39
729.156	0.39
729.594	0.39
730.031	0.39
730.469	0.39
730.906	0.39
731.343	0.39
731.781	0.39
732.218	0.39
732.655	0.39
733.092	0.39
733.53	0.39
733.967	0.39
734.404	0.39
734.841	0.39
735.278	0.39
735.715	0.39
736.152	0.39
736.589	0.39
737.026	0.39
737.463	0.39
737.9	0.39
738.337	0.39
738.774	0.38
739.211	0.38
739.647	0.38
740.084	0.38
740.521	0.38
740.958	0.38
741.394	0.38
741.831	0.38
742.268	0.38
742.704	0.38
743.141	0.37
743.577	0.37
744.014	0.37
744.45	0.37
744.887	0.37
745.323	0.37
745.76	0.36
746.196	0.36
746.632	0.36
747.069	0.36
747.505	0.36
747.941	0.36
748.378	0.36
748.814	0.36
749.25	0.36
749.686	0.36
750.122	0.36
750.558	0.36
750.994	0.36
751.43	0.37
751.866	0.37
752.302	0.37
752.738	0.37
753.174	0.37
753.61	0.37
754.046	0.37
754.482	0.37
754.918	0.37
755.354	0.37
755.789	0.37
756.225	0.37
756.661	0.37
757.096	0.37
757.532	0.37
757.968	0.37
758.403	0.37
758.839	0.37
759.274	0.37
759.71	0.37
760.145	0.36
760.581	0.36
761.016	0.36
761.452	0.36
761.887	0.36
762.322	0.35
762.758	0.35
763.193	0.35
763.628	0.35
764.063	0.34
764.499	0.34
764.934	0.34
765.369	0.34
765.804	0.34
766.239	0.33
766.674	0.33
767.109	0.33
767.544	0.32
767.979	0.32
768.414	0.32
768.849	0.31
769.284	0.31
769.719	0.31
770.154	0.31
770.588	0.3
771.023	0.3
771.458	0.29
771.893	0.29
772.327	0.29
772.762	0.28
773.197	0.28
773.631	0.27
774.066	0.27
774.5	0.26
774.935	0.26
775.369	0.25
775.804	0.25
776.238	0.24
776.673	0.24
777.107	0.23
777.541	0.23
777.976	0.22
778.41	0.21
778.844	0.21
779.279	0.2
779.713	0.2
780.147	0.19
780.581	0.18
781.015	0.17
781.449	0.16
781.883	0.15
782.317	0.14
782.751	0.13
783.185	0.11
783.619	0.1
784.053	0.08
784.487	0.07
784.921	0.05
785.355	0.04
785.789	0.02
786.223	0.01
786.656	0
787.09	-0.01
787.524	-0.02
787.957	-0.03
788.391	-0.04
788.825	-0.04
789.258	-0.05
789.692	-0.05
790.125	-0.05
790.559	-0.06
790.992	-0.06
791.426	-0.06
791.859	-0.06
792.293	-0.05
792.726	-0.04
793.159	-0.04
793.593	-0.04
794.026	-0.04
794.459	-0.04
794.892	-0.05
795.326	-0.05
795.759	-0.05
796.192	-0.05
796.625	-0.06
797.058	-0.07
797.491	-0.07
797.924	-0.08
798.357	-0.08
798.79	-0.08
799.223	-0.08
799.656	-0.08
800.089	-0.08
800.522	-0.09
800.955	-0.09
801.387	-0.09
801.82	-0.09
802.253	-0.09
802.686	-0.09
803.118	-0.09
803.551	-0.09
803.984	-0.08
804.416	-0.08
804.849	-0.07
805.281	-0.07
805.714	-0.07
806.146	-0.07
806.579	-0.07
807.011	-0.07
807.444	-0.07
807.876	-0.07
808.308	-0.07
808.741	-0.07
809.173	-0.08
809.605	-0.08
810.037	-0.08
810.47	-0.08
810.902	-0.09
811.334	-0.09
811.766	-0.08
812.198	-0.08
812.63	-0.08
813.062	-0.08
813.494	-0.08
813.926	-0.08
814.358	-0.08
814.79	-0.08
815.222	-0.07
815.654	-0.07
816.086	-0.07
816.518	-0.08
816.949	-0.08
817.381	-0.07
817.813	-0.07
818.245	-0.06
818.676	-0.04
819.108	-0.03
819.54	-0.02
819.971	-0.01
820.403	0.01
820.834	0.03
821.266	0.05
821.697	0.06
822.129	0.08
822.56	0.1
822.991	0.11
823.423	0.12
823.854	0.13
824.286	0.14
824.717	0.16
825.148	0.17
825.579	0.18
826.01	0.19
826.442	0.2
826.873	0.21
827.304	0.22
827.735	0.23
828.166	0.23
828.597	0.24
829.028	0.24
829.459	0.25
829.89	0.25
830.321	0.26
830.752	0.26
831.183	0.27
831.613	0.27
832.044	0.27
832.475	0.28
832.906	0.28
833.336	0.28
833.767	0.29
834.198	0.29
834.628	0.29
835.059	0.29
835.49	0.29
835.92	0.3
836.351	0.3
836.781	0.3
837.212	0.3
837.642	0.3
838.072	0.31
838.503	0.31
838.933	0.31
839.364	0.31
839.794	0.31
840.224	0.31
840.654	0.31
841.085	0.31
841.515	0.31
841.945	0.31
842.375	0.31
842.805	0.31
843.235	0.31
843.665	0.31
844.095	0.31
844.525	0.31
844.955	0.32
845.385	0.32
845.815	0.32
846.245	0.32
846.675	0.32
847.105	0.32
847.534	0.32
847.964	0.32
848.394	0.32
848.824	0.32
849.253	0.32
849.683	0.32
850.112	0.32
850.542	0.32
850.972	0.32
851.401	0.32
851.831	0.32
852.26	0.33
852.69	0.33
853.119	0.33
853.548	0.33
853.978	0.33
854.407	0.33
854.836	0.33
855.266	0.33
855.695	0.33
856.124	0.32
856.553	0.32
856.983	0.32
857.412	0.32
857.841	0.32
858.27	0.32
858.699	0.32
859.128	0.32
859.557	0.31
859.986	0.31
860.415	0.31
860.844	0.31
861.273	0.31
861.702	0.31
862.13	0.31
862.559	0.31
862.988	0.31
863.417	0.31
863.845	0.31
864.274	0.31
864.703	0.31
865.131	0.31
865.56	0.31
865.989	0.31
866.417	0.31
866.846	0.31
867.274	0.31
867.703	0.31
868.131	0.31
868.559	0.31
868.988	0.31
869.416	0.31
869.844	0.31
870.273	0.31
870.701	0.31
871.129	0.31
871.557	0.31
871.986	0.31
872.414	0.31
872.842	0.31
873.27	0.31
873.698	0.3
874.126	0.3
874.554	0.3
874.982	0.3
875.41	0.3
875.838	0.3
876.266	0.3
876.694	0.3
877.122	0.3
877.549	0.3
877.977	0.3
878.405	0.3
878.833	0.31
879.26	0.31
879.688	0.31
880.116	0.31
880.543	0.31
880.971	0.31
881.399	0.31
881.826	0.31
882.254	0.3
882.681	0.3
883.109	0.3
883.536	0.3
883.963	0.3
884.391	0.3
884.818	0.3
885.245	0.3
885.673	0.3
886.1	0.31
886.527	0.3
886.954	0.3
887.381	0.3
887.809	0.3
888.236	0.3
888.663	0.3
889.09	0.3
889.517	0.3
889.944	0.3
890.371	0.3
890.798	0.3
891.225	0.3
891.652	0.3
892.078	0.3
892.505	0.3
892.932	0.3
893.359	0.3
893.786	0.3
894.212	0.3
894.639	0.3
895.066	0.3
895.492	0.3
895.919	0.3
896.346	0.3
896.772	0.3
897.199	0.3
897.625	0.3
898.052	0.29
898.478	0.29
898.904	0.29
899.331	0.29
899.757	0.29
900.183	0.29
900.61	0.29
901.036	0.29
901.462	0.29
901.888	0.29
902.315	0.29
902.741	0.29
903.167	0.29
903.593	0.29
904.019	0.29
904.445	0.29
904.871	0.29
905.297	0.29
905.723	0.29
906.149	0.29
906.575	0.29
907.001	0.28
907.427	0.28
907.852	0.28
908.278	0.28
908.704	0.28
909.13	0.28
909.555	0.28
909.981	0.28
910.407	0.28
910.832	0.28
911.258	0.28
911.684	0.28
912.109	0.28
912.535	0.28
912.96	0.28
913.386	0.28
913.811	0.28
914.236	0.28
914.662	0.28
915.087	0.28
915.512	0.28
915.938	0.28
916.363	0.28
916.788	0.28
917.213	0.28
917.639	0.28
918.064	0.28
918.489	0.28
918.914	0.28
919.339	0.28
919.764	0.28
920.189	0.28
920.614	0.28
921.039	0.28
921.464	0.28
921.889	0.28
922.314	0.28
922.738	0.28
923.163	0.28
923.588	0.27
924.013	0.27
924.437	0.27
924.862	0.27
925.287	0.27
925.711	0.27
926.136	0.27
926.561	0.27
926.985	0.27
927.41	0.27
927.834	0.27
928.259	0.27
928.683	0.27
929.108	0.27
929.532	0.27
929.956	0.27
930.381	0.27
930.805	0.27
931.229	0.27
931.653	0.26
932.078	0.26
932.502	0.26
932.926	0.26
933.35	0.26
933.774	0.26
934.198	0.26
934.622	0.26
935.046	0.26
935.47	0.25
935.894	0.25
936.318	0.25
936.742	0.25
937.166	0.25
937.59	0.26
938.014	0.26
938.437	0.26
938.861	0.26
939.285	0.26
939.709	0.26
940.132	0.26
940.556	0.26
940.98	0.26
941.403	0.26
941.827	0.26
942.25	0.26
942.674	0.26
943.097	0.26
943.521	0.26
943.944	0.26
944.368	0.26
944.791	0.26
945.214	0.25
945.638	0.25
946.061	0.25
946.484	0.25
946.907	0.25
947.331	0.25
947.754	0.25
948.177	0.25
948.6	0.25
949.023	0.25
949.446	0.25
949.869	0.25
950.292	0.25
950.715	0.24
951.138	0.24
951.561	0.24
951.984	0.24
952.407	0.24
952.83	0.24
953.252	0.24
953.675	0.24
954.098	0.24
954.521	0.24
954.943	0.24
955.366	0.24
955.789	0.24
956.211	0.24
956.634	0.24
957.056	0.24
957.479	0.24
957.902	0.24
958.324	0.24
958.746	0.24
959.169	0.24
959.591	0.23
960.014	0.23
960.436	0.23
960.858	0.23
961.281	0.23
961.703	0.23
962.125	0.23
962.547	0.23
962.969	0.23
963.391	0.23
963.814	0.24
964.236	0.24
964.658	0.24
965.08	0.24
965.502	0.24
965.924	0.24
966.346	0.24
966.768	0.24
967.189	0.24
967.611	0.24
968.033	0.24
968.455	0.24
968.877	0.23
969.298	0.23
969.72	0.23
970.142	0.23
970.563	0.23
970.985	0.23
971.407	0.23
971.828	0.23
972.25	0.23
972.671	0.23
973.093	0.23
973.514	0.23
973.936	0.23
974.357	0.23
974.778	0.23
975.2	0.23
975.621	0.23
976.042	0.23
976.464	0.23
976.885	0.23
977.306	0.23
977.727	0.23
978.148	0.23
978.57	0.23
978.991	0.23
979.412	0.23
979.833	0.23
980.254	0.23
980.675	0.23
981.096	0.22
981.517	0.22
981.937	0.22
982.358	0.22
982.779	0.22
983.2	0.22
983.621	0.22
984.042	0.22
984.462	0.22
984.883	0.22
985.304	0.22
985.724	0.22
986.145	0.22
986.565	0.22
986.986	0.22
987.407	0.22
987.827	0.22
988.248	0.22
988.668	0.22
989.088	0.22
989.509	0.22
989.929	0.22
990.35	0.22
990.77	0.22
991.19	0.22
991.61	0.22
992.031	0.22
992.451	0.22
992.871	0.21
993.291	0.21
993.711	0.21
994.131	0.21
994.551	0.21
994.971	0.21
995.391	0.21
995.811	0.21
996.231	0.21
996.651	0.21
997.071	0.21
997.491	0.21
997.911	0.21
998.331	0.21
998.75	0.21
999.17	0.21
999.59	0.21
1000.009	0.21
1000.429	0.21
1000.849	0.21
1001.268	0.21
1001.688	0.21
1002.107	0.21
1002.527	0.21
1002.946	0.21
1003.366	0.21
1003.785	0.21
1004.205	0.21
1004.624	0.21
1005.044	0.21
1005.463	0.21
1005.882	0.21
1006.301	0.21
1006.721	0.21
1007.14	0.21
1007.559	0.21
1007.978	0.21
1008.397	0.21
1008.816	0.21
1009.235	0.21
1009.655	0.2
1010.074	0.2
1010.492	0.2
1010.911	0.2
1011.33	0.2
1011.749	0.2
1012.168	0.2
1012.587	0.2
1013.006	0.2
1013.425	0.2
1013.843	0.2
1014.262	0.2
1014.681	0.2
1015.099	0.2
1015.518	0.2
1015.937	0.2
1016.355	0.2
1016.774	0.19
1017.192	0.19
1017.611	0.19
1018.029	0.19
1018.448	0.19
1018.866	0.2
1019.285	0.2
1019.703	0.2
1020.121	0.2
1020.54	0.2
1020.958	0.2
1021.376	0.2
1021.794	0.2
1022.213	0.2
1022.631	0.2
1023.049	0.2
1023.467	0.2
1023.885	0.2
1024.303	0.2
1024.721	0.2
1025.139	0.2
1025.557	0.2
1025.975	0.2
1026.393	0.2
1026.811	0.2
1027.229	0.21
1027.647	0.21
1028.065	0.21
1028.482	0.21
1028.9	0.21
1029.318	0.21
1029.735	0.21
1030.153	0.21
1030.571	0.21
1030.988	0.21
1031.406	0.21
1031.823	0.21
1032.241	0.21
1032.659	0.21
1033.076	0.21
1033.493	0.21
1033.911	0.21
1034.328	0.21
1034.746	0.21
1035.163	0.21
1035.58	0.21
1035.997	0.2
1036.415	0.2
1036.832	0.2
1037.249	0.2
1037.666	0.2
1038.083	0.2
1038.501	0.2
1038.918	0.2
1039.335	0.2
1039.752	0.2
1040.169	0.2
1040.586	0.2
1041.003	0.2
1041.419	0.2
1041.836	0.2
1042.253	0.2
1042.67	0.2
1043.087	0.2
1043.504	0.2
1043.92	0.19
1044.337	0.19
1044.754	0.19
1045.17	0.19
1045.587	0.19
1046.004	0.19
1046.42	0.19
1046.837	0.19
1047.253	0.19
1047.67	0.19
1048.086	0.19
1048.503	0.19
1048.919	0.19
1049.335	0.19
1049.752	0.19
1050.168	0.19
1050.584	0.19
1051.001	0.19
1051.417	0.19
1051.833	0.19
1052.249	0.19
1052.665	0.19
1053.081	0.19
1053.497	0.19
1053.914	0.19
1054.33	0.19
1054.746	0.19
1055.162	0.19
1055.578	0.19
1055.993	0.19
1056.409	0.19
1056.825	0.19
1057.241	0.19
1057.657	0.19
1058.073	0.19
1058.488	0.19
1058.904	0.19
1059.32	0.19
1059.736	0.19
1060.151	0.19
1060.567	0.19
1060.982	0.19
1061.398	0.19
1061.813	0.19
1062.229	0.19
1062.644	0.19
1063.06	0.19
1063.475	0.19
1063.891	0.19
1064.306	0.19
1064.721	0.19
1065.137	0.19
1065.552	0.19
1065.967	0.19
1066.382	0.19
1066.798	0.19
1067.213	0.19
1067.628	0.19
1068.043	0.19
1068.458	0.19
1068.873	0.19
1069.288	0.19
1069.703	0.19
1070.118	0.19
1070.533	0.19
1070.948	0.19
1071.363	0.19
1071.778	0.19
1072.193	0.19
1072.607	0.19
1073.022	0.19
1073.437	0.19
1073.852	0.19
1074.266	0.19
1074.681	0.19
1075.096	0.19
1075.51	0.19
1075.925	0.19
1076.339	0.19
1076.754	0.19
1077.168	0.19
1077.583	0.19
1077.997	0.19
1078.412	0.19
1078.826	0.19
1079.24	0.2
1079.655	0.2
1080.069	0.2
1080.483	0.2
1080.897	0.2
1081.312	0.2
1081.726	0.2
1082.14	0.2
1082.554	0.21
1082.968	0.21
1083.382	0.21
1083.796	0.21
1084.21	0.21
1084.624	0.21
1085.038	0.22
1085.452	0.22
1085.866	0.22
1086.28	0.22
1086.694	0.22
1087.108	0.22
1087.521	0.22
1087.935	0.22
1088.349	0.23
1088.763	0.23
1089.176	0.23
1089.59	0.23
1090.004	0.24
1090.417	0.24
1090.831	0.24
1091.244	0.25
1091.658	0.25
1092.071	0.26
1092.485	0.26
1092.898	0.27
1093.312	0.27
1093.725	0.28
1094.138	0.28
1094.552	0.29
1094.965	0.29
1095.378	0.3
1095.791	0.31
1096.205	0.31
1096.618	0.32
1097.031	0.33
1097.444	0.34
1097.857	0.35
1098.27	0.36
1098.683	0.37
1099.096	0.38
1099.509	0.39
1099.922	0.41
1100.335	0.42
1100.748	0.44
1101.161	0.45
1101.574	0.47
1101.986	0.5
1102.399	0.52
1102.812	0.55
1103.225	0.59
1103.637	0.62
1104.05	0.67
1104.463	0.73
1104.875	0.79
1105.288	0.87
1105.7	0.97
1106.113	1.11
1106.525	1.34
1106.938	2.72
1107.35	-0
1107.763	-0
1108.175	-0
1108.588	-0
1109	-0
1109.412	-0
1109.824	-0
1110.237	-0
1110.649	-0
1111.061	-0
