Data from unagg-15c-2a-1h_Absorbance__141__00568.txt Node

Date: Mon May 06 09:37:26 CEST 2024
User: Laser008
Spectrometer: MAYP115816
Trigger mode: 0
Integration Time (sec): 2.000000E-1
Scans to average: 10
Electric dark correction enabled: true
Nonlinearity correction enabled: true
Boxcar width: 5
XAxis mode: Wavelengths
Number of Pixels in Spectrum: 2068
>>>>>Begin Spectral Data<<<<<
198.914	-1.91
199.384	-1.76
199.855	-1.62
200.325	-1.5
200.796	-1.41
201.266	-1.36
201.737	-1.29
202.207	-1.23
202.677	-1.18
203.147	-1.13
203.618	-1.1
204.088	-1.08
204.558	-1.05
205.028	-1.04
205.498	-1.04
205.968	-1.04
206.439	-1.03
206.909	-1.03
207.379	-1.03
207.849	-1.03
208.319	-1.02
208.789	-1.02
209.258	-1.02
209.728	-1.02
210.198	-1.01
210.668	-1.01
211.138	-1.01
211.608	-1.01
212.077	-1.01
212.547	-1.01
213.017	-1.01
213.486	-1.01
213.956	-1.01
214.426	-1.01
214.895	-1.01
215.365	-1.01
215.834	-1
216.304	-1
216.773	-1
217.243	-1
217.712	-1
218.181	-0.99
218.651	-0.99
219.12	-0.99
219.589	-0.98
220.058	-0.98
220.528	-0.98
220.997	-0.98
221.466	-0.98
221.935	-0.97
222.404	-0.97
222.873	-0.96
223.342	-0.96
223.812	-0.95
224.281	-0.94
224.749	-0.93
225.218	-0.92
225.687	-0.91
226.156	-0.9
226.625	-0.89
227.094	-0.87
227.563	-0.85
228.031	-0.84
228.5	-0.81
228.969	-0.79
229.438	-0.76
229.906	-0.73
230.375	-0.7
230.844	-0.66
231.312	-0.62
231.781	-0.58
232.249	-0.53
232.718	-0.49
233.186	-0.44
233.655	-0.39
234.123	-0.34
234.591	-0.3
235.06	-0.25
235.528	-0.2
235.996	-0.16
236.465	-0.12
236.933	-0.07
237.401	-0.03
237.869	0.01
238.337	0.04
238.805	0.08
239.274	0.11
239.742	0.14
240.21	0.17
240.678	0.2
241.146	0.22
241.614	0.24
242.081	0.27
242.549	0.29
243.017	0.31
243.485	0.32
243.953	0.34
244.421	0.36
244.888	0.37
245.356	0.38
245.824	0.4
246.291	0.41
246.759	0.42
247.227	0.43
247.694	0.44
248.162	0.45
248.629	0.46
249.097	0.47
249.564	0.48
250.032	0.48
250.499	0.49
250.967	0.5
251.434	0.51
251.901	0.51
252.369	0.52
252.836	0.53
253.303	0.53
253.77	0.54
254.237	0.54
254.705	0.55
255.172	0.55
255.639	0.55
256.106	0.56
256.573	0.56
257.04	0.57
257.507	0.57
257.974	0.57
258.441	0.57
258.908	0.58
259.375	0.58
259.841	0.58
260.308	0.58
260.775	0.58
261.242	0.58
261.709	0.58
262.175	0.59
262.642	0.59
263.109	0.59
263.575	0.59
264.042	0.59
264.508	0.59
264.975	0.59
265.441	0.59
265.908	0.59
266.374	0.59
266.841	0.59
267.307	0.59
267.773	0.58
268.24	0.58
268.706	0.58
269.172	0.58
269.639	0.58
270.105	0.58
270.571	0.58
271.037	0.57
271.503	0.57
271.969	0.57
272.435	0.57
272.902	0.57
273.368	0.56
273.834	0.56
274.3	0.56
274.765	0.56
275.231	0.56
275.697	0.55
276.163	0.55
276.629	0.55
277.095	0.55
277.56	0.54
278.026	0.54
278.492	0.54
278.958	0.54
279.423	0.53
279.889	0.53
280.354	0.53
280.82	0.53
281.286	0.52
281.751	0.52
282.217	0.52
282.682	0.52
283.147	0.52
283.613	0.52
284.078	0.52
284.544	0.51
285.009	0.51
285.474	0.51
285.939	0.51
286.405	0.51
286.87	0.5
287.335	0.5
287.8	0.5
288.265	0.5
288.73	0.5
289.195	0.49
289.66	0.49
290.125	0.49
290.59	0.49
291.055	0.49
291.52	0.49
291.985	0.48
292.45	0.48
292.915	0.48
293.38	0.48
293.844	0.48
294.309	0.48
294.774	0.48
295.239	0.48
295.703	0.48
296.168	0.48
296.632	0.47
297.097	0.47
297.562	0.47
298.026	0.47
298.491	0.47
298.955	0.47
299.419	0.47
299.884	0.47
300.348	0.47
300.813	0.47
301.277	0.47
301.741	0.47
302.205	0.47
302.67	0.47
303.134	0.47
303.598	0.47
304.062	0.46
304.526	0.46
304.99	0.46
305.454	0.46
305.919	0.46
306.383	0.46
306.847	0.46
307.31	0.46
307.774	0.46
308.238	0.46
308.702	0.46
309.166	0.46
309.63	0.46
310.094	0.46
310.557	0.46
311.021	0.46
311.485	0.46
311.948	0.46
312.412	0.46
312.876	0.46
313.339	0.46
313.803	0.46
314.266	0.46
314.73	0.46
315.193	0.46
315.657	0.46
316.12	0.45
316.584	0.45
317.047	0.45
317.51	0.45
317.973	0.45
318.437	0.45
318.9	0.45
319.363	0.45
319.826	0.45
320.29	0.45
320.753	0.45
321.216	0.45
321.679	0.45
322.142	0.45
322.605	0.45
323.068	0.45
323.531	0.45
323.994	0.45
324.457	0.44
324.92	0.44
325.382	0.44
325.845	0.44
326.308	0.44
326.771	0.44
327.233	0.44
327.696	0.44
328.159	0.44
328.622	0.44
329.084	0.44
329.547	0.44
330.009	0.44
330.472	0.44
330.934	0.44
331.397	0.44
331.859	0.44
332.322	0.43
332.784	0.43
333.246	0.43
333.709	0.43
334.171	0.43
334.633	0.43
335.096	0.43
335.558	0.43
336.02	0.43
336.482	0.43
336.944	0.43
337.406	0.43
337.868	0.43
338.331	0.43
338.793	0.43
339.255	0.43
339.717	0.43
340.178	0.42
340.64	0.42
341.102	0.42
341.564	0.42
342.026	0.42
342.488	0.42
342.949	0.42
343.411	0.42
343.873	0.42
344.335	0.42
344.796	0.42
345.258	0.42
345.719	0.42
346.181	0.42
346.643	0.42
347.104	0.42
347.566	0.42
348.027	0.42
348.488	0.41
348.95	0.41
349.411	0.41
349.873	0.41
350.334	0.41
350.795	0.41
351.256	0.41
351.718	0.41
352.179	0.41
352.64	0.41
353.101	0.41
353.562	0.41
354.023	0.41
354.484	0.4
354.945	0.4
355.406	0.4
355.867	0.4
356.328	0.4
356.789	0.4
357.25	0.4
357.711	0.4
358.172	0.4
358.633	0.4
359.093	0.4
359.554	0.4
360.015	0.4
360.476	0.4
360.936	0.4
361.397	0.4
361.858	0.4
362.318	0.41
362.779	0.41
363.239	0.41
363.7	0.4
364.16	0.4
364.621	0.4
365.081	0.4
365.541	0.4
366.002	0.4
366.462	0.4
366.922	0.4
367.383	0.4
367.843	0.4
368.303	0.4
368.763	0.4
369.223	0.4
369.684	0.4
370.144	0.4
370.604	0.4
371.064	0.4
371.524	0.4
371.984	0.4
372.444	0.4
372.904	0.4
373.363	0.4
373.823	0.4
374.283	0.4
374.743	0.4
375.203	0.4
375.663	0.4
376.122	0.4
376.582	0.4
377.042	0.4
377.501	0.4
377.961	0.4
378.42	0.4
378.88	0.4
379.34	0.4
379.799	0.4
380.259	0.4
380.718	0.4
381.177	0.4
381.637	0.4
382.096	0.4
382.555	0.4
383.015	0.4
383.474	0.4
383.933	0.4
384.393	0.4
384.852	0.4
385.311	0.4
385.77	0.4
386.229	0.4
386.688	0.4
387.147	0.4
387.606	0.4
388.065	0.4
388.524	0.4
388.983	0.4
389.442	0.4
389.901	0.4
390.36	0.4
390.819	0.4
391.277	0.4
391.736	0.4
392.195	0.4
392.654	0.4
393.112	0.4
393.571	0.4
394.03	0.4
394.488	0.4
394.947	0.4
395.405	0.4
395.864	0.4
396.322	0.4
396.781	0.4
397.239	0.4
397.698	0.4
398.156	0.4
398.614	0.4
399.073	0.4
399.531	0.4
399.989	0.4
400.447	0.4
400.905	0.4
401.364	0.4
401.822	0.4
402.28	0.4
402.738	0.4
403.196	0.4
403.654	0.4
404.112	0.4
404.57	0.4
405.028	0.4
405.486	0.4
405.944	0.4
406.402	0.4
406.859	0.4
407.317	0.4
407.775	0.4
408.233	0.4
408.691	0.4
409.148	0.39
409.606	0.39
410.064	0.39
410.521	0.39
410.979	0.39
411.436	0.39
411.894	0.39
412.351	0.39
412.809	0.39
413.266	0.39
413.724	0.39
414.181	0.39
414.638	0.39
415.096	0.39
415.553	0.39
416.01	0.39
416.467	0.39
416.925	0.39
417.382	0.39
417.839	0.39
418.296	0.39
418.753	0.39
419.21	0.39
419.667	0.39
420.124	0.39
420.581	0.39
421.038	0.39
421.495	0.39
421.952	0.39
422.409	0.39
422.866	0.39
423.322	0.39
423.779	0.39
424.236	0.39
424.693	0.39
425.149	0.39
425.606	0.39
426.063	0.39
426.519	0.39
426.976	0.39
427.433	0.39
427.889	0.39
428.346	0.39
428.802	0.39
429.258	0.39
429.715	0.39
430.171	0.39
430.628	0.39
431.084	0.39
431.54	0.39
431.997	0.39
432.453	0.39
432.909	0.39
433.365	0.39
433.821	0.38
434.277	0.38
434.734	0.38
435.19	0.38
435.646	0.38
436.102	0.38
436.558	0.38
437.014	0.38
437.47	0.38
437.925	0.38
438.381	0.38
438.837	0.38
439.293	0.38
439.749	0.38
440.205	0.38
440.66	0.38
441.116	0.38
441.572	0.38
442.027	0.38
442.483	0.38
442.939	0.38
443.394	0.38
443.85	0.38
444.305	0.38
444.761	0.38
445.216	0.38
445.672	0.38
446.127	0.38
446.582	0.38
447.038	0.38
447.493	0.38
447.948	0.38
448.403	0.38
448.859	0.38
449.314	0.38
449.769	0.38
450.224	0.38
450.679	0.38
451.134	0.38
451.589	0.38
452.044	0.37
452.499	0.37
452.954	0.37
453.409	0.37
453.864	0.37
454.319	0.37
454.774	0.37
455.229	0.37
455.684	0.37
456.138	0.37
456.593	0.37
457.048	0.37
457.503	0.37
457.957	0.37
458.412	0.37
458.866	0.37
459.321	0.37
459.776	0.37
460.23	0.37
460.685	0.36
461.139	0.36
461.593	0.36
462.048	0.36
462.502	0.36
462.957	0.36
463.411	0.36
463.865	0.36
464.319	0.36
464.774	0.36
465.228	0.36
465.682	0.36
466.136	0.36
466.59	0.36
467.044	0.36
467.499	0.36
467.953	0.36
468.407	0.36
468.861	0.36
469.315	0.35
469.768	0.35
470.222	0.35
470.676	0.35
471.13	0.35
471.584	0.35
472.038	0.35
472.491	0.35
472.945	0.35
473.399	0.35
473.852	0.35
474.306	0.35
474.76	0.35
475.213	0.35
475.667	0.35
476.12	0.36
476.574	0.36
477.027	0.36
477.481	0.36
477.934	0.36
478.388	0.36
478.841	0.35
479.294	0.36
479.748	0.36
480.201	0.36
480.654	0.36
481.107	0.36
481.561	0.36
482.014	0.36
482.467	0.36
482.92	0.36
483.373	0.36
483.826	0.36
484.279	0.37
484.732	0.37
485.185	0.37
485.638	0.37
486.091	0.37
486.544	0.37
486.997	0.37
487.449	0.37
487.902	0.37
488.355	0.37
488.808	0.37
489.26	0.37
489.713	0.36
490.166	0.36
490.618	0.36
491.071	0.36
491.523	0.36
491.976	0.36
492.429	0.36
492.881	0.36
493.333	0.36
493.786	0.37
494.238	0.37
494.691	0.37
495.143	0.37
495.595	0.37
496.048	0.37
496.5	0.37
496.952	0.37
497.404	0.37
497.856	0.38
498.309	0.38
498.761	0.38
499.213	0.38
499.665	0.38
500.117	0.38
500.569	0.38
501.021	0.38
501.473	0.38
501.925	0.38
502.377	0.39
502.828	0.39
503.28	0.39
503.732	0.39
504.184	0.39
504.636	0.39
505.087	0.39
505.539	0.39
505.991	0.39
506.442	0.39
506.894	0.39
507.345	0.39
507.797	0.39
508.249	0.39
508.7	0.4
509.151	0.4
509.603	0.4
510.054	0.4
510.506	0.4
510.957	0.4
511.408	0.4
511.86	0.4
512.311	0.4
512.762	0.4
513.213	0.4
513.665	0.4
514.116	0.4
514.567	0.4
515.018	0.4
515.469	0.4
515.92	0.4
516.371	0.4
516.822	0.4
517.273	0.4
517.724	0.4
518.175	0.4
518.626	0.4
519.076	0.4
519.527	0.4
519.978	0.4
520.429	0.4
520.88	0.39
521.33	0.39
521.781	0.39
522.232	0.39
522.682	0.39
523.133	0.39
523.583	0.39
524.034	0.4
524.484	0.4
524.935	0.41
525.385	0.41
525.836	0.42
526.286	0.42
526.736	0.43
527.187	0.43
527.637	0.43
528.087	0.44
528.538	0.44
528.988	0.44
529.438	0.44
529.888	0.44
530.338	0.45
530.788	0.45
531.238	0.45
531.688	0.45
532.139	0.45
532.589	0.45
533.038	0.46
533.488	0.46
533.938	0.46
534.388	0.46
534.838	0.46
535.288	0.46
535.738	0.47
536.187	0.47
536.637	0.47
537.087	0.47
537.537	0.47
537.986	0.47
538.436	0.47
538.885	0.47
539.335	0.48
539.785	0.48
540.234	0.48
540.684	0.48
541.133	0.48
541.582	0.48
542.032	0.48
542.481	0.48
542.931	0.48
543.38	0.49
543.829	0.49
544.278	0.49
544.728	0.49
545.177	0.49
545.626	0.5
546.075	0.5
546.524	0.5
546.973	0.5
547.422	0.5
547.871	0.5
548.32	0.5
548.769	0.5
549.218	0.5
549.667	0.5
550.116	0.5
550.565	0.5
551.014	0.5
551.463	0.5
551.911	0.5
552.36	0.51
552.809	0.51
553.258	0.51
553.706	0.51
554.155	0.51
554.603	0.51
555.052	0.51
555.501	0.51
555.949	0.51
556.398	0.51
556.846	0.51
557.294	0.51
557.743	0.51
558.191	0.51
558.64	0.51
559.088	0.51
559.536	0.52
559.985	0.52
560.433	0.52
560.881	0.52
561.329	0.53
561.777	0.53
562.225	0.53
562.674	0.53
563.122	0.53
563.57	0.53
564.018	0.53
564.466	0.53
564.914	0.53
565.362	0.53
565.809	0.53
566.257	0.53
566.705	0.53
567.153	0.54
567.601	0.54
568.048	0.54
568.496	0.55
568.944	0.55
569.392	0.56
569.839	0.57
570.287	0.57
570.734	0.57
571.182	0.58
571.63	0.58
572.077	0.58
572.525	0.59
572.972	0.59
573.419	0.59
573.867	0.59
574.314	0.59
574.761	0.59
575.209	0.59
575.656	0.6
576.103	0.6
576.551	0.6
576.998	0.6
577.445	0.6
577.892	0.6
578.339	0.6
578.786	0.6
579.233	0.61
579.68	0.61
580.127	0.61
580.574	0.61
581.021	0.6
581.468	0.6
581.915	0.6
582.362	0.6
582.809	0.6
583.255	0.6
583.702	0.6
584.149	0.6
584.596	0.59
585.042	0.59
585.489	0.59
585.936	0.59
586.382	0.59
586.829	0.59
587.275	0.59
587.722	0.59
588.168	0.58
588.615	0.58
589.061	0.58
589.508	0.57
589.954	0.57
590.4	0.57
590.847	0.57
591.293	0.57
591.739	0.57
592.185	0.57
592.632	0.57
593.078	0.57
593.524	0.57
593.97	0.57
594.416	0.56
594.862	0.56
595.308	0.56
595.754	0.56
596.2	0.56
596.646	0.56
597.092	0.56
597.538	0.56
597.984	0.56
598.43	0.56
598.876	0.56
599.321	0.56
599.767	0.56
600.213	0.56
600.659	0.55
601.104	0.55
601.55	0.55
601.995	0.55
602.441	0.54
602.887	0.54
603.332	0.54
603.778	0.54
604.223	0.54
604.668	0.54
605.114	0.54
605.559	0.54
606.005	0.54
606.45	0.54
606.895	0.53
607.341	0.53
607.786	0.53
608.231	0.53
608.676	0.52
609.121	0.52
609.566	0.52
610.012	0.51
610.457	0.51
610.902	0.51
611.347	0.51
611.792	0.51
612.237	0.51
612.682	0.5
613.127	0.5
613.571	0.5
614.016	0.5
614.461	0.5
614.906	0.5
615.351	0.49
615.795	0.49
616.24	0.49
616.685	0.49
617.129	0.48
617.574	0.48
618.019	0.47
618.463	0.47
618.908	0.47
619.352	0.47
619.797	0.47
620.241	0.46
620.686	0.46
621.13	0.46
621.574	0.46
622.019	0.46
622.463	0.46
622.907	0.46
623.352	0.45
623.796	0.45
624.24	0.45
624.684	0.45
625.128	0.45
625.572	0.45
626.016	0.44
626.461	0.44
626.905	0.44
627.349	0.44
627.793	0.44
628.236	0.44
628.68	0.44
629.124	0.43
629.568	0.43
630.012	0.43
630.456	0.43
630.9	0.43
631.343	0.42
631.787	0.42
632.231	0.42
632.674	0.42
633.118	0.42
633.562	0.41
634.005	0.41
634.449	0.41
634.892	0.41
635.336	0.41
635.779	0.41
636.223	0.41
636.666	0.41
637.109	0.41
637.553	0.41
637.996	0.41
638.439	0.41
638.883	0.41
639.326	0.41
639.769	0.4
640.212	0.4
640.655	0.4
641.099	0.4
641.542	0.4
641.985	0.4
642.428	0.4
642.871	0.4
643.314	0.4
643.757	0.4
644.2	0.4
644.643	0.4
645.085	0.4
645.528	0.4
645.971	0.4
646.414	0.4
646.857	0.41
647.299	0.41
647.742	0.41
648.185	0.41
648.627	0.41
649.07	0.41
649.513	0.41
649.955	0.41
650.398	0.41
650.84	0.41
651.283	0.41
651.725	0.42
652.168	0.42
652.61	0.42
653.052	0.42
653.495	0.41
653.937	0.34
654.379	0.3
654.821	0.31
655.264	0.31
655.706	0.31
656.148	0.31
656.59	0.31
657.032	0.31
657.474	0.32
657.916	0.31
658.358	0.31
658.8	0.37
659.242	0.44
659.684	0.44
660.126	0.43
660.568	0.43
661.01	0.44
661.452	0.44
661.894	0.44
662.335	0.44
662.777	0.44
663.219	0.44
663.661	0.44
664.102	0.44
664.544	0.45
664.985	0.45
665.427	0.45
665.869	0.45
666.31	0.45
666.752	0.45
667.193	0.45
667.634	0.45
668.076	0.46
668.517	0.46
668.959	0.46
669.4	0.46
669.841	0.47
670.282	0.47
670.724	0.47
671.165	0.47
671.606	0.47
672.047	0.48
672.488	0.48
672.929	0.48
673.37	0.48
673.811	0.48
674.252	0.48
674.693	0.48
675.134	0.48
675.575	0.48
676.016	0.48
676.457	0.49
676.898	0.49
677.339	0.49
677.78	0.49
678.22	0.49
678.661	0.49
679.102	0.49
679.542	0.49
679.983	0.5
680.424	0.5
680.864	0.5
681.305	0.5
681.745	0.5
682.186	0.5
682.626	0.5
683.067	0.5
683.507	0.51
683.948	0.51
684.388	0.51
684.828	0.51
685.269	0.51
685.709	0.52
686.149	0.52
686.589	0.52
687.029	0.52
687.47	0.52
687.91	0.52
688.35	0.52
688.79	0.52
689.23	0.52
689.67	0.53
690.11	0.53
690.55	0.53
690.99	0.53
691.43	0.53
691.87	0.53
692.31	0.54
692.749	0.54
693.189	0.54
693.629	0.54
694.069	0.54
694.508	0.54
694.948	0.55
695.388	0.55
695.827	0.55
696.267	0.55
696.706	0.55
697.146	0.55
697.586	0.56
698.025	0.56
698.464	0.56
698.904	0.56
699.343	0.56
699.783	0.56
700.222	0.56
700.661	0.56
701.101	0.56
701.54	0.56
701.979	0.56
702.418	0.56
702.857	0.56
703.297	0.56
703.736	0.57
704.175	0.57
704.614	0.57
705.053	0.57
705.492	0.57
705.931	0.57
706.37	0.58
706.809	0.58
707.248	0.58
707.687	0.58
708.125	0.58
708.564	0.58
709.003	0.58
709.442	0.58
709.88	0.58
710.319	0.58
710.758	0.58
711.196	0.58
711.635	0.58
712.074	0.58
712.512	0.58
712.951	0.58
713.389	0.58
713.828	0.58
714.266	0.58
714.705	0.58
715.143	0.58
715.581	0.58
716.02	0.58
716.458	0.58
716.896	0.58
717.334	0.58
717.773	0.58
718.211	0.58
718.649	0.58
719.087	0.58
719.525	0.58
719.963	0.58
720.401	0.58
720.839	0.58
721.277	0.58
721.715	0.58
722.153	0.58
722.591	0.58
723.029	0.58
723.467	0.58
723.905	0.58
724.342	0.58
724.78	0.58
725.218	0.58
725.656	0.58
726.093	0.58
726.531	0.58
726.969	0.58
727.406	0.58
727.844	0.58
728.281	0.58
728.719	0.58
729.156	0.58
729.594	0.58
730.031	0.59
730.469	0.59
730.906	0.59
731.343	0.59
731.781	0.59
732.218	0.59
732.655	0.59
733.092	0.59
733.53	0.59
733.967	0.59
734.404	0.59
734.841	0.58
735.278	0.58
735.715	0.58
736.152	0.58
736.589	0.58
737.026	0.58
737.463	0.58
737.9	0.58
738.337	0.58
738.774	0.57
739.211	0.57
739.647	0.57
740.084	0.57
740.521	0.57
740.958	0.57
741.394	0.57
741.831	0.56
742.268	0.56
742.704	0.55
743.141	0.55
743.577	0.55
744.014	0.55
744.45	0.55
744.887	0.54
745.323	0.54
745.76	0.54
746.196	0.54
746.632	0.54
747.069	0.54
747.505	0.54
747.941	0.54
748.378	0.54
748.814	0.54
749.25	0.54
749.686	0.54
750.122	0.54
750.558	0.54
750.994	0.54
751.43	0.54
751.866	0.54
752.302	0.54
752.738	0.54
753.174	0.54
753.61	0.54
754.046	0.54
754.482	0.54
754.918	0.54
755.354	0.55
755.789	0.55
756.225	0.55
756.661	0.54
757.096	0.54
757.532	0.54
757.968	0.54
758.403	0.54
758.839	0.54
759.274	0.54
759.71	0.53
760.145	0.53
760.581	0.53
761.016	0.52
761.452	0.52
761.887	0.52
762.322	0.51
762.758	0.51
763.193	0.51
763.628	0.5
764.063	0.5
764.499	0.49
764.934	0.49
765.369	0.49
765.804	0.48
766.239	0.48
766.674	0.48
767.109	0.47
767.544	0.46
767.979	0.46
768.414	0.45
768.849	0.45
769.284	0.45
769.719	0.44
770.154	0.44
770.588	0.43
771.023	0.43
771.458	0.42
771.893	0.41
772.327	0.41
772.762	0.4
773.197	0.4
773.631	0.39
774.066	0.38
774.5	0.37
774.935	0.36
775.369	0.36
775.804	0.35
776.238	0.34
776.673	0.33
777.107	0.32
777.541	0.31
777.976	0.3
778.41	0.29
778.844	0.29
779.279	0.28
779.713	0.27
780.147	0.26
780.581	0.25
781.015	0.24
781.449	0.22
781.883	0.21
782.317	0.19
782.751	0.18
783.185	0.16
783.619	0.14
784.053	0.12
784.487	0.1
784.921	0.08
785.355	0.06
785.789	0.04
786.223	0.03
786.656	0.01
787.09	0
787.524	-0.01
787.957	-0.02
788.391	-0.03
788.825	-0.04
789.258	-0.05
789.692	-0.05
790.125	-0.05
790.559	-0.06
790.992	-0.06
791.426	-0.06
791.859	-0.06
792.293	-0.05
792.726	-0.04
793.159	-0.04
793.593	-0.04
794.026	-0.04
794.459	-0.04
794.892	-0.05
795.326	-0.05
795.759	-0.05
796.192	-0.05
796.625	-0.06
797.058	-0.06
797.491	-0.07
797.924	-0.08
798.357	-0.08
798.79	-0.08
799.223	-0.08
799.656	-0.08
800.089	-0.08
800.522	-0.08
800.955	-0.09
801.387	-0.09
801.82	-0.09
802.253	-0.09
802.686	-0.09
803.118	-0.09
803.551	-0.09
803.984	-0.08
804.416	-0.08
804.849	-0.07
805.281	-0.07
805.714	-0.07
806.146	-0.07
806.579	-0.07
807.011	-0.07
807.444	-0.07
807.876	-0.07
808.308	-0.07
808.741	-0.07
809.173	-0.07
809.605	-0.08
810.037	-0.08
810.47	-0.08
810.902	-0.08
811.334	-0.08
811.766	-0.08
812.198	-0.08
812.63	-0.08
813.062	-0.08
813.494	-0.08
813.926	-0.08
814.358	-0.08
814.79	-0.07
815.222	-0.07
815.654	-0.07
816.086	-0.07
816.518	-0.08
816.949	-0.08
817.381	-0.07
817.813	-0.07
818.245	-0.06
818.676	-0.04
819.108	-0.03
819.54	-0.01
819.971	-0
820.403	0.02
820.834	0.04
821.266	0.06
821.697	0.08
822.129	0.1
822.56	0.12
822.991	0.14
823.423	0.15
823.854	0.17
824.286	0.18
824.717	0.2
825.148	0.22
825.579	0.23
826.01	0.25
826.442	0.26
826.873	0.27
827.304	0.28
827.735	0.29
828.166	0.3
828.597	0.31
829.028	0.32
829.459	0.32
829.89	0.33
830.321	0.33
830.752	0.34
831.183	0.35
831.613	0.35
832.044	0.36
832.475	0.36
832.906	0.37
833.336	0.37
833.767	0.37
834.198	0.38
834.628	0.38
835.059	0.38
835.49	0.39
835.92	0.39
836.351	0.39
836.781	0.39
837.212	0.4
837.642	0.4
838.072	0.4
838.503	0.4
838.933	0.4
839.364	0.4
839.794	0.4
840.224	0.4
840.654	0.4
841.085	0.4
841.515	0.4
841.945	0.4
842.375	0.4
842.805	0.41
843.235	0.41
843.665	0.41
844.095	0.41
844.525	0.41
844.955	0.41
845.385	0.41
845.815	0.41
846.245	0.41
846.675	0.41
847.105	0.41
847.534	0.41
847.964	0.41
848.394	0.41
848.824	0.41
849.253	0.41
849.683	0.41
850.112	0.42
850.542	0.42
850.972	0.42
851.401	0.42
851.831	0.42
852.26	0.42
852.69	0.42
853.119	0.42
853.548	0.42
853.978	0.42
854.407	0.42
854.836	0.42
855.266	0.42
855.695	0.42
856.124	0.42
856.553	0.42
856.983	0.42
857.412	0.41
857.841	0.41
858.27	0.41
858.699	0.41
859.128	0.41
859.557	0.41
859.986	0.41
860.415	0.41
860.844	0.41
861.273	0.41
861.702	0.4
862.13	0.4
862.559	0.4
862.988	0.4
863.417	0.4
863.845	0.4
864.274	0.4
864.703	0.4
865.131	0.4
865.56	0.4
865.989	0.4
866.417	0.4
866.846	0.4
867.274	0.4
867.703	0.4
868.131	0.4
868.559	0.4
868.988	0.4
869.416	0.4
869.844	0.4
870.273	0.4
870.701	0.4
871.129	0.4
871.557	0.39
871.986	0.39
872.414	0.39
872.842	0.39
873.27	0.39
873.698	0.39
874.126	0.39
874.554	0.39
874.982	0.39
875.41	0.39
875.838	0.39
876.266	0.39
876.694	0.39
877.122	0.39
877.549	0.39
877.977	0.39
878.405	0.39
878.833	0.38
879.26	0.38
879.688	0.38
880.116	0.38
880.543	0.38
880.971	0.38
881.399	0.38
881.826	0.38
882.254	0.38
882.681	0.38
883.109	0.38
883.536	0.38
883.963	0.38
884.391	0.38
884.818	0.38
885.245	0.38
885.673	0.38
886.1	0.38
886.527	0.38
886.954	0.38
887.381	0.38
887.809	0.38
888.236	0.38
888.663	0.38
889.09	0.38
889.517	0.38
889.944	0.37
890.371	0.37
890.798	0.37
891.225	0.37
891.652	0.37
892.078	0.37
892.505	0.37
892.932	0.37
893.359	0.37
893.786	0.37
894.212	0.37
894.639	0.37
895.066	0.37
895.492	0.37
895.919	0.37
896.346	0.37
896.772	0.37
897.199	0.36
897.625	0.36
898.052	0.36
898.478	0.36
898.904	0.36
899.331	0.36
899.757	0.36
900.183	0.36
900.61	0.36
901.036	0.36
901.462	0.36
901.888	0.36
902.315	0.36
902.741	0.36
903.167	0.35
903.593	0.35
904.019	0.35
904.445	0.35
904.871	0.35
905.297	0.35
905.723	0.35
906.149	0.35
906.575	0.35
907.001	0.35
907.427	0.35
907.852	0.35
908.278	0.35
908.704	0.35
909.13	0.35
909.555	0.34
909.981	0.34
910.407	0.34
910.832	0.34
911.258	0.34
911.684	0.34
912.109	0.34
912.535	0.34
912.96	0.34
913.386	0.34
913.811	0.35
914.236	0.35
914.662	0.35
915.087	0.35
915.512	0.35
915.938	0.35
916.363	0.34
916.788	0.34
917.213	0.34
917.639	0.34
918.064	0.34
918.489	0.34
918.914	0.34
919.339	0.34
919.764	0.34
920.189	0.34
920.614	0.34
921.039	0.33
921.464	0.33
921.889	0.33
922.314	0.33
922.738	0.33
923.163	0.33
923.588	0.33
924.013	0.33
924.437	0.33
924.862	0.33
925.287	0.33
925.711	0.33
926.136	0.33
926.561	0.33
926.985	0.33
927.41	0.33
927.834	0.33
928.259	0.33
928.683	0.32
929.108	0.32
929.532	0.32
929.956	0.32
930.381	0.32
930.805	0.32
931.229	0.32
931.653	0.32
932.078	0.31
932.502	0.31
932.926	0.31
933.35	0.31
933.774	0.31
934.198	0.31
934.622	0.31
935.046	0.31
935.47	0.31
935.894	0.31
936.318	0.31
936.742	0.31
937.166	0.31
937.59	0.31
938.014	0.31
938.437	0.31
938.861	0.31
939.285	0.31
939.709	0.31
940.132	0.31
940.556	0.31
940.98	0.31
941.403	0.31
941.827	0.31
942.25	0.31
942.674	0.31
943.097	0.31
943.521	0.31
943.944	0.31
944.368	0.3
944.791	0.3
945.214	0.3
945.638	0.3
946.061	0.3
946.484	0.3
946.907	0.3
947.331	0.3
947.754	0.3
948.177	0.3
948.6	0.3
949.023	0.29
949.446	0.29
949.869	0.29
950.292	0.29
950.715	0.29
951.138	0.29
951.561	0.29
951.984	0.29
952.407	0.29
952.83	0.29
953.252	0.29
953.675	0.29
954.098	0.29
954.521	0.28
954.943	0.28
955.366	0.28
955.789	0.28
956.211	0.28
956.634	0.28
957.056	0.28
957.479	0.28
957.902	0.28
958.324	0.28
958.746	0.28
959.169	0.28
959.591	0.28
960.014	0.28
960.436	0.28
960.858	0.28
961.281	0.28
961.703	0.28
962.125	0.28
962.547	0.28
962.969	0.28
963.391	0.28
963.814	0.28
964.236	0.28
964.658	0.28
965.08	0.28
965.502	0.28
965.924	0.28
966.346	0.28
966.768	0.28
967.189	0.28
967.611	0.28
968.033	0.28
968.455	0.28
968.877	0.28
969.298	0.28
969.72	0.27
970.142	0.27
970.563	0.27
970.985	0.27
971.407	0.27
971.828	0.27
972.25	0.27
972.671	0.27
973.093	0.27
973.514	0.27
973.936	0.27
974.357	0.27
974.778	0.27
975.2	0.27
975.621	0.27
976.042	0.27
976.464	0.27
976.885	0.27
977.306	0.27
977.727	0.27
978.148	0.27
978.57	0.27
978.991	0.27
979.412	0.27
979.833	0.27
980.254	0.26
980.675	0.26
981.096	0.26
981.517	0.26
981.937	0.26
982.358	0.26
982.779	0.26
983.2	0.26
983.621	0.26
984.042	0.26
984.462	0.26
984.883	0.26
985.304	0.26
985.724	0.26
986.145	0.26
986.565	0.26
986.986	0.26
987.407	0.26
987.827	0.26
988.248	0.26
988.668	0.26
989.088	0.26
989.509	0.26
989.929	0.25
990.35	0.25
990.77	0.25
991.19	0.25
991.61	0.25
992.031	0.25
992.451	0.25
992.871	0.25
993.291	0.25
993.711	0.25
994.131	0.24
994.551	0.24
994.971	0.24
995.391	0.24
995.811	0.24
996.231	0.24
996.651	0.24
997.071	0.24
997.491	0.24
997.911	0.24
998.331	0.24
998.75	0.24
999.17	0.24
999.59	0.24
1000.009	0.24
1000.429	0.24
1000.849	0.24
1001.268	0.24
1001.688	0.24
1002.107	0.24
1002.527	0.24
1002.946	0.24
1003.366	0.24
1003.785	0.24
1004.205	0.24
1004.624	0.24
1005.044	0.24
1005.463	0.24
1005.882	0.24
1006.301	0.24
1006.721	0.24
1007.14	0.24
1007.559	0.24
1007.978	0.24
1008.397	0.24
1008.816	0.23
1009.235	0.23
1009.655	0.23
1010.074	0.23
1010.492	0.23
1010.911	0.23
1011.33	0.23
1011.749	0.23
1012.168	0.23
1012.587	0.23
1013.006	0.23
1013.425	0.23
1013.843	0.23
1014.262	0.23
1014.681	0.23
1015.099	0.23
1015.518	0.23
1015.937	0.23
1016.355	0.23
1016.774	0.23
1017.192	0.23
1017.611	0.23
1018.029	0.23
1018.448	0.23
1018.866	0.23
1019.285	0.23
1019.703	0.23
1020.121	0.23
1020.54	0.23
1020.958	0.23
1021.376	0.23
1021.794	0.23
1022.213	0.23
1022.631	0.23
1023.049	0.23
1023.467	0.23
1023.885	0.23
1024.303	0.23
1024.721	0.23
1025.139	0.23
1025.557	0.23
1025.975	0.23
1026.393	0.23
1026.811	0.23
1027.229	0.23
1027.647	0.24
1028.065	0.24
1028.482	0.24
1028.9	0.24
1029.318	0.24
1029.735	0.24
1030.153	0.24
1030.571	0.24
1030.988	0.24
1031.406	0.24
1031.823	0.24
1032.241	0.24
1032.659	0.24
1033.076	0.24
1033.493	0.24
1033.911	0.24
1034.328	0.24
1034.746	0.24
1035.163	0.24
1035.58	0.24
1035.997	0.23
1036.415	0.23
1036.832	0.23
1037.249	0.23
1037.666	0.23
1038.083	0.23
1038.501	0.23
1038.918	0.23
1039.335	0.23
1039.752	0.23
1040.169	0.23
1040.586	0.23
1041.003	0.23
1041.419	0.23
1041.836	0.23
1042.253	0.23
1042.67	0.23
1043.087	0.23
1043.504	0.23
1043.92	0.23
1044.337	0.23
1044.754	0.23
1045.17	0.23
1045.587	0.23
1046.004	0.23
1046.42	0.23
1046.837	0.23
1047.253	0.23
1047.67	0.23
1048.086	0.23
1048.503	0.23
1048.919	0.23
1049.335	0.23
1049.752	0.22
1050.168	0.22
1050.584	0.22
1051.001	0.22
1051.417	0.22
1051.833	0.22
1052.249	0.22
1052.665	0.22
1053.081	0.23
1053.497	0.23
1053.914	0.23
1054.33	0.23
1054.746	0.23
1055.162	0.23
1055.578	0.23
1055.993	0.23
1056.409	0.23
1056.825	0.23
1057.241	0.23
1057.657	0.23
1058.073	0.23
1058.488	0.23
1058.904	0.23
1059.32	0.23
1059.736	0.23
1060.151	0.23
1060.567	0.23
1060.982	0.23
1061.398	0.23
1061.813	0.23
1062.229	0.23
1062.644	0.23
1063.06	0.23
1063.475	0.23
1063.891	0.23
1064.306	0.23
1064.721	0.23
1065.137	0.23
1065.552	0.23
1065.967	0.23
1066.382	0.23
1066.798	0.23
1067.213	0.23
1067.628	0.23
1068.043	0.23
1068.458	0.23
1068.873	0.23
1069.288	0.23
1069.703	0.23
1070.118	0.23
1070.533	0.23
1070.948	0.23
1071.363	0.23
1071.778	0.24
1072.193	0.24
1072.607	0.24
1073.022	0.24
1073.437	0.24
1073.852	0.24
1074.266	0.24
1074.681	0.24
1075.096	0.24
1075.51	0.24
1075.925	0.24
1076.339	0.24
1076.754	0.24
1077.168	0.24
1077.583	0.24
1077.997	0.24
1078.412	0.24
1078.826	0.24
1079.24	0.25
1079.655	0.25
1080.069	0.25
1080.483	0.25
1080.897	0.25
1081.312	0.25
1081.726	0.25
1082.14	0.25
1082.554	0.26
1082.968	0.26
1083.382	0.26
1083.796	0.26
1084.21	0.26
1084.624	0.27
1085.038	0.27
1085.452	0.27
1085.866	0.27
1086.28	0.28
1086.694	0.28
1087.108	0.28
1087.521	0.28
1087.935	0.29
1088.349	0.29
1088.763	0.29
1089.176	0.3
1089.59	0.3
1090.004	0.31
1090.417	0.31
1090.831	0.32
1091.244	0.32
1091.658	0.33
1092.071	0.34
1092.485	0.34
1092.898	0.35
1093.312	0.36
1093.725	0.37
1094.138	0.38
1094.552	0.38
1094.965	0.4
1095.378	0.41
1095.791	0.42
1096.205	0.43
1096.618	0.45
1097.031	0.46
1097.444	0.48
1097.857	0.5
1098.27	0.51
1098.683	0.54
1099.096	0.56
1099.509	0.58
1099.922	0.61
1100.335	0.65
1100.748	0.68
1101.161	0.72
1101.574	0.78
1101.986	0.84
1102.399	0.92
1102.812	1.04
1103.225	1.2
1103.637	1.46
1104.05	2.3
1104.463	-0
1104.875	-0
1105.288	-0
1105.7	-0
1106.113	-0
1106.525	-0
1106.938	-0
1107.35	-0
1107.763	-0
1108.175	-0
1108.588	-0
1109	-0
1109.412	-0
1109.824	-0
1110.237	-0
1110.649	-0
1111.061	-0
