Data from unagg-15c-2a-1h_Absorbance__65__00492.txt Node

Date: Mon May 06 09:34:54 CEST 2024
User: Laser008
Spectrometer: MAYP115816
Trigger mode: 0
Integration Time (sec): 2.000000E-1
Scans to average: 10
Electric dark correction enabled: true
Nonlinearity correction enabled: true
Boxcar width: 5
XAxis mode: Wavelengths
Number of Pixels in Spectrum: 2068
>>>>>Begin Spectral Data<<<<<
198.914	-1.94
199.384	-1.8
199.855	-1.65
200.325	-1.53
200.796	-1.45
201.266	-1.4
201.737	-1.32
202.207	-1.26
202.677	-1.21
203.147	-1.16
203.618	-1.13
204.088	-1.11
204.558	-1.09
205.028	-1.08
205.498	-1.07
205.968	-1.07
206.439	-1.07
206.909	-1.06
207.379	-1.06
207.849	-1.06
208.319	-1.06
208.789	-1.05
209.258	-1.05
209.728	-1.05
210.198	-1.05
210.668	-1.05
211.138	-1.05
211.608	-1.04
212.077	-1.05
212.547	-1.05
213.017	-1.04
213.486	-1.04
213.956	-1.04
214.426	-1.04
214.895	-1.04
215.365	-1.04
215.834	-1.04
216.304	-1.03
216.773	-1.03
217.243	-1.03
217.712	-1.03
218.181	-1.02
218.651	-1.02
219.12	-1.02
219.589	-1.02
220.058	-1.02
220.528	-1.02
220.997	-1.01
221.466	-1.01
221.935	-1
222.404	-1
222.873	-0.99
223.342	-0.99
223.812	-0.98
224.281	-0.97
224.749	-0.96
225.218	-0.95
225.687	-0.94
226.156	-0.93
226.625	-0.92
227.094	-0.9
227.563	-0.88
228.031	-0.86
228.5	-0.84
228.969	-0.82
229.438	-0.79
229.906	-0.76
230.375	-0.72
230.844	-0.68
231.312	-0.64
231.781	-0.6
232.249	-0.55
232.718	-0.51
233.186	-0.46
233.655	-0.41
234.123	-0.36
234.591	-0.31
235.06	-0.26
235.528	-0.21
235.996	-0.16
236.465	-0.12
236.933	-0.07
237.401	-0.03
237.869	0.01
238.337	0.05
238.805	0.09
239.274	0.12
239.742	0.16
240.21	0.19
240.678	0.22
241.146	0.25
241.614	0.28
242.081	0.3
242.549	0.32
243.017	0.35
243.485	0.37
243.953	0.39
244.421	0.4
244.888	0.42
245.356	0.44
245.824	0.45
246.291	0.46
246.759	0.48
247.227	0.49
247.694	0.5
248.162	0.51
248.629	0.52
249.097	0.53
249.564	0.54
250.032	0.55
250.499	0.56
250.967	0.57
251.434	0.58
251.901	0.58
252.369	0.59
252.836	0.6
253.303	0.6
253.77	0.61
254.237	0.61
254.705	0.62
255.172	0.62
255.639	0.63
256.106	0.63
256.573	0.64
257.04	0.64
257.507	0.64
257.974	0.65
258.441	0.65
258.908	0.65
259.375	0.65
259.841	0.66
260.308	0.66
260.775	0.66
261.242	0.66
261.709	0.66
262.175	0.66
262.642	0.67
263.109	0.67
263.575	0.67
264.042	0.67
264.508	0.67
264.975	0.67
265.441	0.67
265.908	0.67
266.374	0.67
266.841	0.67
267.307	0.67
267.773	0.67
268.24	0.67
268.706	0.67
269.172	0.67
269.639	0.67
270.105	0.66
270.571	0.66
271.037	0.66
271.503	0.66
271.969	0.66
272.435	0.66
272.902	0.66
273.368	0.65
273.834	0.65
274.3	0.65
274.765	0.65
275.231	0.65
275.697	0.65
276.163	0.65
276.629	0.64
277.095	0.64
277.56	0.64
278.026	0.63
278.492	0.63
278.958	0.63
279.423	0.63
279.889	0.63
280.354	0.62
280.82	0.62
281.286	0.62
281.751	0.62
282.217	0.62
282.682	0.62
283.147	0.62
283.613	0.62
284.078	0.62
284.544	0.61
285.009	0.61
285.474	0.61
285.939	0.61
286.405	0.61
286.87	0.6
287.335	0.6
287.8	0.6
288.265	0.6
288.73	0.6
289.195	0.6
289.66	0.6
290.125	0.59
290.59	0.59
291.055	0.59
291.52	0.59
291.985	0.59
292.45	0.59
292.915	0.59
293.38	0.58
293.844	0.58
294.309	0.58
294.774	0.58
295.239	0.58
295.703	0.58
296.168	0.58
296.632	0.58
297.097	0.58
297.562	0.58
298.026	0.57
298.491	0.57
298.955	0.57
299.419	0.57
299.884	0.57
300.348	0.57
300.813	0.57
301.277	0.57
301.741	0.57
302.205	0.57
302.67	0.57
303.134	0.57
303.598	0.57
304.062	0.57
304.526	0.57
304.99	0.56
305.454	0.56
305.919	0.56
306.383	0.56
306.847	0.56
307.31	0.56
307.774	0.56
308.238	0.56
308.702	0.56
309.166	0.56
309.63	0.56
310.094	0.56
310.557	0.56
311.021	0.56
311.485	0.56
311.948	0.55
312.412	0.55
312.876	0.55
313.339	0.55
313.803	0.55
314.266	0.55
314.73	0.55
315.193	0.55
315.657	0.55
316.12	0.55
316.584	0.55
317.047	0.55
317.51	0.55
317.973	0.55
318.437	0.54
318.9	0.54
319.363	0.54
319.826	0.54
320.29	0.54
320.753	0.54
321.216	0.54
321.679	0.54
322.142	0.54
322.605	0.54
323.068	0.53
323.531	0.53
323.994	0.53
324.457	0.53
324.92	0.53
325.382	0.53
325.845	0.53
326.308	0.53
326.771	0.53
327.233	0.53
327.696	0.53
328.159	0.53
328.622	0.53
329.084	0.52
329.547	0.52
330.009	0.52
330.472	0.52
330.934	0.52
331.397	0.52
331.859	0.52
332.322	0.52
332.784	0.52
333.246	0.52
333.709	0.51
334.171	0.51
334.633	0.51
335.096	0.51
335.558	0.51
336.02	0.51
336.482	0.51
336.944	0.51
337.406	0.51
337.868	0.51
338.331	0.51
338.793	0.5
339.255	0.5
339.717	0.5
340.178	0.5
340.64	0.5
341.102	0.5
341.564	0.5
342.026	0.5
342.488	0.5
342.949	0.5
343.411	0.5
343.873	0.5
344.335	0.5
344.796	0.5
345.258	0.49
345.719	0.49
346.181	0.49
346.643	0.49
347.104	0.49
347.566	0.49
348.027	0.49
348.488	0.49
348.95	0.49
349.411	0.49
349.873	0.49
350.334	0.49
350.795	0.48
351.256	0.48
351.718	0.48
352.179	0.48
352.64	0.48
353.101	0.48
353.562	0.48
354.023	0.48
354.484	0.48
354.945	0.47
355.406	0.47
355.867	0.47
356.328	0.47
356.789	0.47
357.25	0.47
357.711	0.47
358.172	0.47
358.633	0.47
359.093	0.47
359.554	0.47
360.015	0.47
360.476	0.47
360.936	0.47
361.397	0.48
361.858	0.48
362.318	0.48
362.779	0.48
363.239	0.48
363.7	0.48
364.16	0.48
364.621	0.47
365.081	0.47
365.541	0.47
366.002	0.47
366.462	0.47
366.922	0.47
367.383	0.47
367.843	0.47
368.303	0.47
368.763	0.47
369.223	0.47
369.684	0.47
370.144	0.47
370.604	0.47
371.064	0.47
371.524	0.47
371.984	0.47
372.444	0.47
372.904	0.47
373.363	0.47
373.823	0.47
374.283	0.47
374.743	0.47
375.203	0.47
375.663	0.47
376.122	0.47
376.582	0.47
377.042	0.47
377.501	0.47
377.961	0.47
378.42	0.47
378.88	0.47
379.34	0.47
379.799	0.47
380.259	0.47
380.718	0.47
381.177	0.47
381.637	0.47
382.096	0.47
382.555	0.47
383.015	0.47
383.474	0.47
383.933	0.47
384.393	0.47
384.852	0.47
385.311	0.47
385.77	0.47
386.229	0.47
386.688	0.47
387.147	0.47
387.606	0.47
388.065	0.47
388.524	0.47
388.983	0.47
389.442	0.47
389.901	0.47
390.36	0.47
390.819	0.47
391.277	0.47
391.736	0.47
392.195	0.47
392.654	0.47
393.112	0.47
393.571	0.47
394.03	0.47
394.488	0.47
394.947	0.47
395.405	0.47
395.864	0.47
396.322	0.47
396.781	0.47
397.239	0.47
397.698	0.47
398.156	0.47
398.614	0.47
399.073	0.47
399.531	0.47
399.989	0.47
400.447	0.47
400.905	0.47
401.364	0.46
401.822	0.46
402.28	0.46
402.738	0.46
403.196	0.46
403.654	0.46
404.112	0.46
404.57	0.46
405.028	0.46
405.486	0.46
405.944	0.46
406.402	0.46
406.859	0.46
407.317	0.46
407.775	0.46
408.233	0.46
408.691	0.46
409.148	0.46
409.606	0.45
410.064	0.45
410.521	0.45
410.979	0.45
411.436	0.45
411.894	0.45
412.351	0.45
412.809	0.45
413.266	0.45
413.724	0.45
414.181	0.45
414.638	0.45
415.096	0.45
415.553	0.45
416.01	0.45
416.467	0.45
416.925	0.45
417.382	0.45
417.839	0.45
418.296	0.45
418.753	0.45
419.21	0.45
419.667	0.45
420.124	0.45
420.581	0.45
421.038	0.45
421.495	0.45
421.952	0.45
422.409	0.45
422.866	0.45
423.322	0.45
423.779	0.45
424.236	0.45
424.693	0.45
425.149	0.45
425.606	0.45
426.063	0.45
426.519	0.44
426.976	0.44
427.433	0.44
427.889	0.45
428.346	0.45
428.802	0.45
429.258	0.45
429.715	0.45
430.171	0.45
430.628	0.45
431.084	0.45
431.54	0.45
431.997	0.45
432.453	0.45
432.909	0.44
433.365	0.44
433.821	0.44
434.277	0.44
434.734	0.44
435.19	0.44
435.646	0.44
436.102	0.44
436.558	0.44
437.014	0.44
437.47	0.44
437.925	0.44
438.381	0.44
438.837	0.44
439.293	0.44
439.749	0.44
440.205	0.44
440.66	0.44
441.116	0.44
441.572	0.44
442.027	0.44
442.483	0.44
442.939	0.44
443.394	0.44
443.85	0.44
444.305	0.44
444.761	0.44
445.216	0.44
445.672	0.44
446.127	0.44
446.582	0.44
447.038	0.44
447.493	0.44
447.948	0.44
448.403	0.43
448.859	0.43
449.314	0.43
449.769	0.43
450.224	0.43
450.679	0.43
451.134	0.43
451.589	0.43
452.044	0.43
452.499	0.43
452.954	0.43
453.409	0.43
453.864	0.43
454.319	0.43
454.774	0.42
455.229	0.42
455.684	0.42
456.138	0.42
456.593	0.42
457.048	0.42
457.503	0.42
457.957	0.42
458.412	0.42
458.866	0.42
459.321	0.42
459.776	0.42
460.23	0.42
460.685	0.42
461.139	0.42
461.593	0.42
462.048	0.42
462.502	0.42
462.957	0.42
463.411	0.42
463.865	0.42
464.319	0.42
464.774	0.42
465.228	0.42
465.682	0.42
466.136	0.42
466.59	0.42
467.044	0.42
467.499	0.42
467.953	0.41
468.407	0.41
468.861	0.41
469.315	0.41
469.768	0.41
470.222	0.4
470.676	0.4
471.13	0.4
471.584	0.4
472.038	0.4
472.491	0.4
472.945	0.4
473.399	0.41
473.852	0.41
474.306	0.41
474.76	0.41
475.213	0.41
475.667	0.41
476.12	0.41
476.574	0.41
477.027	0.41
477.481	0.41
477.934	0.41
478.388	0.41
478.841	0.41
479.294	0.41
479.748	0.41
480.201	0.41
480.654	0.41
481.107	0.41
481.561	0.41
482.014	0.42
482.467	0.42
482.92	0.42
483.373	0.42
483.826	0.43
484.279	0.43
484.732	0.43
485.185	0.43
485.638	0.43
486.091	0.43
486.544	0.44
486.997	0.44
487.449	0.44
487.902	0.44
488.355	0.43
488.808	0.43
489.26	0.43
489.713	0.43
490.166	0.43
490.618	0.42
491.071	0.42
491.523	0.43
491.976	0.43
492.429	0.43
492.881	0.43
493.333	0.43
493.786	0.43
494.238	0.43
494.691	0.44
495.143	0.44
495.595	0.44
496.048	0.44
496.5	0.44
496.952	0.44
497.404	0.44
497.856	0.44
498.309	0.44
498.761	0.44
499.213	0.45
499.665	0.45
500.117	0.45
500.569	0.45
501.021	0.45
501.473	0.45
501.925	0.46
502.377	0.46
502.828	0.46
503.28	0.46
503.732	0.46
504.184	0.46
504.636	0.46
505.087	0.47
505.539	0.47
505.991	0.47
506.442	0.47
506.894	0.47
507.345	0.47
507.797	0.47
508.249	0.47
508.7	0.47
509.151	0.47
509.603	0.47
510.054	0.47
510.506	0.47
510.957	0.47
511.408	0.47
511.86	0.48
512.311	0.48
512.762	0.48
513.213	0.48
513.665	0.48
514.116	0.48
514.567	0.47
515.018	0.47
515.469	0.48
515.92	0.48
516.371	0.48
516.822	0.48
517.273	0.48
517.724	0.48
518.175	0.48
518.626	0.48
519.076	0.48
519.527	0.47
519.978	0.47
520.429	0.47
520.88	0.47
521.33	0.46
521.781	0.46
522.232	0.46
522.682	0.46
523.133	0.46
523.583	0.46
524.034	0.47
524.484	0.47
524.935	0.48
525.385	0.48
525.836	0.49
526.286	0.49
526.736	0.5
527.187	0.51
527.637	0.51
528.087	0.51
528.538	0.52
528.988	0.52
529.438	0.52
529.888	0.52
530.338	0.52
530.788	0.53
531.238	0.53
531.688	0.53
532.139	0.53
532.589	0.53
533.038	0.54
533.488	0.54
533.938	0.54
534.388	0.54
534.838	0.54
535.288	0.54
535.738	0.54
536.187	0.55
536.637	0.55
537.087	0.55
537.537	0.55
537.986	0.55
538.436	0.55
538.885	0.55
539.335	0.56
539.785	0.56
540.234	0.56
540.684	0.56
541.133	0.56
541.582	0.56
542.032	0.56
542.481	0.56
542.931	0.56
543.38	0.56
543.829	0.56
544.278	0.57
544.728	0.57
545.177	0.57
545.626	0.57
546.075	0.58
546.524	0.58
546.973	0.58
547.422	0.58
547.871	0.58
548.32	0.58
548.769	0.58
549.218	0.58
549.667	0.58
550.116	0.58
550.565	0.58
551.014	0.58
551.463	0.58
551.911	0.58
552.36	0.58
552.809	0.58
553.258	0.59
553.706	0.59
554.155	0.59
554.603	0.59
555.052	0.59
555.501	0.59
555.949	0.59
556.398	0.59
556.846	0.58
557.294	0.58
557.743	0.58
558.191	0.58
558.64	0.58
559.088	0.58
559.536	0.59
559.985	0.59
560.433	0.59
560.881	0.59
561.329	0.6
561.777	0.6
562.225	0.6
562.674	0.6
563.122	0.6
563.57	0.6
564.018	0.6
564.466	0.6
564.914	0.6
565.362	0.6
565.809	0.6
566.257	0.6
566.705	0.6
567.153	0.6
567.601	0.61
568.048	0.61
568.496	0.62
568.944	0.62
569.392	0.63
569.839	0.64
570.287	0.64
570.734	0.65
571.182	0.65
571.63	0.65
572.077	0.66
572.525	0.66
572.972	0.66
573.419	0.66
573.867	0.66
574.314	0.66
574.761	0.67
575.209	0.67
575.656	0.67
576.103	0.67
576.551	0.67
576.998	0.67
577.445	0.67
577.892	0.67
578.339	0.67
578.786	0.67
579.233	0.67
579.68	0.68
580.127	0.68
580.574	0.68
581.021	0.67
581.468	0.67
581.915	0.67
582.362	0.67
582.809	0.67
583.255	0.67
583.702	0.66
584.149	0.66
584.596	0.65
585.042	0.65
585.489	0.65
585.936	0.65
586.382	0.65
586.829	0.65
587.275	0.64
587.722	0.64
588.168	0.63
588.615	0.63
589.061	0.62
589.508	0.62
589.954	0.62
590.4	0.61
590.847	0.61
591.293	0.61
591.739	0.61
592.185	0.61
592.632	0.61
593.078	0.61
593.524	0.61
593.97	0.61
594.416	0.6
594.862	0.6
595.308	0.6
595.754	0.6
596.2	0.59
596.646	0.59
597.092	0.59
597.538	0.59
597.984	0.59
598.43	0.59
598.876	0.59
599.321	0.59
599.767	0.59
600.213	0.59
600.659	0.59
601.104	0.58
601.55	0.58
601.995	0.58
602.441	0.57
602.887	0.57
603.332	0.56
603.778	0.56
604.223	0.56
604.668	0.56
605.114	0.56
605.559	0.56
606.005	0.56
606.45	0.56
606.895	0.56
607.341	0.56
607.786	0.55
608.231	0.55
608.676	0.55
609.121	0.54
609.566	0.54
610.012	0.53
610.457	0.53
610.902	0.53
611.347	0.53
611.792	0.52
612.237	0.52
612.682	0.52
613.127	0.52
613.571	0.52
614.016	0.52
614.461	0.52
614.906	0.52
615.351	0.51
615.795	0.51
616.24	0.51
616.685	0.5
617.129	0.5
617.574	0.5
618.019	0.49
618.463	0.49
618.908	0.49
619.352	0.48
619.797	0.48
620.241	0.48
620.686	0.48
621.13	0.48
621.574	0.48
622.019	0.48
622.463	0.48
622.907	0.47
623.352	0.47
623.796	0.47
624.24	0.47
624.684	0.47
625.128	0.47
625.572	0.47
626.016	0.47
626.461	0.46
626.905	0.46
627.349	0.46
627.793	0.46
628.236	0.46
628.68	0.46
629.124	0.46
629.568	0.46
630.012	0.46
630.456	0.45
630.9	0.45
631.343	0.45
631.787	0.45
632.231	0.45
632.674	0.45
633.118	0.44
633.562	0.44
634.005	0.44
634.449	0.44
634.892	0.44
635.336	0.45
635.779	0.45
636.223	0.45
636.666	0.45
637.109	0.45
637.553	0.45
637.996	0.45
638.439	0.45
638.883	0.45
639.326	0.45
639.769	0.45
640.212	0.45
640.655	0.45
641.099	0.45
641.542	0.45
641.985	0.45
642.428	0.45
642.871	0.45
643.314	0.45
643.757	0.45
644.2	0.46
644.643	0.46
645.085	0.46
645.528	0.46
645.971	0.46
646.414	0.46
646.857	0.47
647.299	0.47
647.742	0.47
648.185	0.47
648.627	0.48
649.07	0.48
649.513	0.48
649.955	0.49
650.398	0.49
650.84	0.49
651.283	0.49
651.725	0.49
652.168	0.5
652.61	0.5
653.052	0.5
653.495	0.5
653.937	0.44
654.379	0.4
654.821	0.41
655.264	0.42
655.706	0.42
656.148	0.42
656.59	0.42
657.032	0.43
657.474	0.43
657.916	0.42
658.358	0.42
658.8	0.48
659.242	0.54
659.684	0.54
660.126	0.54
660.568	0.54
661.01	0.54
661.452	0.55
661.894	0.55
662.335	0.55
662.777	0.55
663.219	0.56
663.661	0.56
664.102	0.56
664.544	0.57
664.985	0.57
665.427	0.57
665.869	0.58
666.31	0.58
666.752	0.58
667.193	0.58
667.634	0.59
668.076	0.59
668.517	0.59
668.959	0.6
669.4	0.6
669.841	0.61
670.282	0.61
670.724	0.61
671.165	0.62
671.606	0.62
672.047	0.62
672.488	0.63
672.929	0.63
673.37	0.63
673.811	0.63
674.252	0.63
674.693	0.63
675.134	0.63
675.575	0.63
676.016	0.64
676.457	0.64
676.898	0.64
677.339	0.64
677.78	0.65
678.22	0.65
678.661	0.65
679.102	0.65
679.542	0.65
679.983	0.66
680.424	0.66
680.864	0.66
681.305	0.66
681.745	0.66
682.186	0.66
682.626	0.66
683.067	0.67
683.507	0.67
683.948	0.67
684.388	0.67
684.828	0.68
685.269	0.68
685.709	0.68
686.149	0.68
686.589	0.68
687.029	0.68
687.47	0.68
687.91	0.68
688.35	0.68
688.79	0.68
689.23	0.69
689.67	0.69
690.11	0.69
690.55	0.69
690.99	0.69
691.43	0.69
691.87	0.69
692.31	0.7
692.749	0.7
693.189	0.7
693.629	0.7
694.069	0.7
694.508	0.7
694.948	0.7
695.388	0.7
695.827	0.7
696.267	0.7
696.706	0.71
697.146	0.71
697.586	0.71
698.025	0.71
698.464	0.7
698.904	0.7
699.343	0.7
699.783	0.7
700.222	0.7
700.661	0.7
701.101	0.7
701.54	0.7
701.979	0.7
702.418	0.7
702.857	0.7
703.297	0.7
703.736	0.7
704.175	0.7
704.614	0.7
705.053	0.7
705.492	0.7
705.931	0.7
706.37	0.7
706.809	0.7
707.248	0.7
707.687	0.7
708.125	0.7
708.564	0.7
709.003	0.7
709.442	0.7
709.88	0.69
710.319	0.69
710.758	0.69
711.196	0.69
711.635	0.69
712.074	0.69
712.512	0.69
712.951	0.68
713.389	0.68
713.828	0.68
714.266	0.68
714.705	0.68
715.143	0.68
715.581	0.67
716.02	0.67
716.458	0.67
716.896	0.67
717.334	0.67
717.773	0.66
718.211	0.66
718.649	0.66
719.087	0.66
719.525	0.66
719.963	0.66
720.401	0.66
720.839	0.65
721.277	0.65
721.715	0.65
722.153	0.65
722.591	0.65
723.029	0.64
723.467	0.64
723.905	0.64
724.342	0.64
724.78	0.64
725.218	0.63
725.656	0.63
726.093	0.63
726.531	0.63
726.969	0.63
727.406	0.63
727.844	0.63
728.281	0.62
728.719	0.62
729.156	0.62
729.594	0.62
730.031	0.62
730.469	0.62
730.906	0.62
731.343	0.62
731.781	0.62
732.218	0.62
732.655	0.62
733.092	0.61
733.53	0.61
733.967	0.61
734.404	0.61
734.841	0.61
735.278	0.6
735.715	0.6
736.152	0.6
736.589	0.6
737.026	0.59
737.463	0.59
737.9	0.59
738.337	0.59
738.774	0.58
739.211	0.58
739.647	0.58
740.084	0.57
740.521	0.57
740.958	0.57
741.394	0.56
741.831	0.56
742.268	0.55
742.704	0.55
743.141	0.54
743.577	0.54
744.014	0.54
744.45	0.53
744.887	0.53
745.323	0.52
745.76	0.52
746.196	0.52
746.632	0.52
747.069	0.52
747.505	0.52
747.941	0.51
748.378	0.51
748.814	0.51
749.25	0.51
749.686	0.51
750.122	0.51
750.558	0.51
750.994	0.51
751.43	0.51
751.866	0.51
752.302	0.51
752.738	0.51
753.174	0.51
753.61	0.51
754.046	0.5
754.482	0.5
754.918	0.5
755.354	0.5
755.789	0.5
756.225	0.5
756.661	0.5
757.096	0.5
757.532	0.5
757.968	0.5
758.403	0.49
758.839	0.49
759.274	0.49
759.71	0.48
760.145	0.48
760.581	0.47
761.016	0.47
761.452	0.46
761.887	0.46
762.322	0.45
762.758	0.45
763.193	0.45
763.628	0.44
764.063	0.44
764.499	0.43
764.934	0.43
765.369	0.42
765.804	0.42
766.239	0.42
766.674	0.41
767.109	0.41
767.544	0.4
767.979	0.39
768.414	0.39
768.849	0.38
769.284	0.38
769.719	0.37
770.154	0.37
770.588	0.36
771.023	0.36
771.458	0.35
771.893	0.34
772.327	0.34
772.762	0.33
773.197	0.32
773.631	0.32
774.066	0.31
774.5	0.3
774.935	0.29
775.369	0.28
775.804	0.28
776.238	0.27
776.673	0.26
777.107	0.25
777.541	0.24
777.976	0.23
778.41	0.22
778.844	0.21
779.279	0.21
779.713	0.2
780.147	0.19
780.581	0.18
781.015	0.16
781.449	0.15
781.883	0.14
782.317	0.12
782.751	0.1
783.185	0.09
783.619	0.07
784.053	0.05
784.487	0.03
784.921	0.01
785.355	-0
785.789	-0.02
786.223	-0.03
786.656	-0.03
787.09	-0.04
787.524	-0.04
787.957	-0.05
788.391	-0.05
788.825	-0.06
789.258	-0.06
789.692	-0.06
790.125	-0.05
790.559	-0.05
790.992	-0.06
791.426	-0.06
791.859	-0.05
792.293	-0.05
792.726	-0.04
793.159	-0.04
793.593	-0.04
794.026	-0.04
794.459	-0.04
794.892	-0.04
795.326	-0.04
795.759	-0.05
796.192	-0.05
796.625	-0.06
797.058	-0.06
797.491	-0.07
797.924	-0.08
798.357	-0.08
798.79	-0.08
799.223	-0.08
799.656	-0.08
800.089	-0.08
800.522	-0.08
800.955	-0.09
801.387	-0.09
801.82	-0.09
802.253	-0.09
802.686	-0.09
803.118	-0.09
803.551	-0.09
803.984	-0.08
804.416	-0.08
804.849	-0.07
805.281	-0.07
805.714	-0.07
806.146	-0.07
806.579	-0.07
807.011	-0.07
807.444	-0.07
807.876	-0.06
808.308	-0.07
808.741	-0.07
809.173	-0.07
809.605	-0.08
810.037	-0.08
810.47	-0.08
810.902	-0.08
811.334	-0.08
811.766	-0.08
812.198	-0.08
812.63	-0.08
813.062	-0.08
813.494	-0.08
813.926	-0.08
814.358	-0.08
814.79	-0.07
815.222	-0.07
815.654	-0.07
816.086	-0.07
816.518	-0.08
816.949	-0.08
817.381	-0.08
817.813	-0.08
818.245	-0.07
818.676	-0.06
819.108	-0.06
819.54	-0.05
819.971	-0.04
820.403	-0.03
820.834	-0.02
821.266	-0.01
821.697	0.01
822.129	0.03
822.56	0.05
822.991	0.06
823.423	0.07
823.854	0.08
824.286	0.1
824.717	0.11
825.148	0.13
825.579	0.14
826.01	0.15
826.442	0.16
826.873	0.17
827.304	0.18
827.735	0.19
828.166	0.19
828.597	0.2
829.028	0.21
829.459	0.21
829.89	0.21
830.321	0.22
830.752	0.22
831.183	0.23
831.613	0.23
832.044	0.24
832.475	0.24
832.906	0.24
833.336	0.25
833.767	0.25
834.198	0.25
834.628	0.26
835.059	0.26
835.49	0.26
835.92	0.26
836.351	0.26
836.781	0.27
837.212	0.27
837.642	0.27
838.072	0.27
838.503	0.27
838.933	0.27
839.364	0.27
839.794	0.27
840.224	0.27
840.654	0.27
841.085	0.27
841.515	0.27
841.945	0.27
842.375	0.27
842.805	0.27
843.235	0.27
843.665	0.27
844.095	0.27
844.525	0.27
844.955	0.27
845.385	0.27
845.815	0.27
846.245	0.27
846.675	0.27
847.105	0.27
847.534	0.27
847.964	0.27
848.394	0.27
848.824	0.27
849.253	0.27
849.683	0.27
850.112	0.27
850.542	0.28
850.972	0.28
851.401	0.28
851.831	0.28
852.26	0.28
852.69	0.28
853.119	0.28
853.548	0.28
853.978	0.28
854.407	0.28
854.836	0.28
855.266	0.28
855.695	0.27
856.124	0.27
856.553	0.27
856.983	0.27
857.412	0.27
857.841	0.27
858.27	0.27
858.699	0.27
859.128	0.27
859.557	0.26
859.986	0.26
860.415	0.26
860.844	0.26
861.273	0.26
861.702	0.26
862.13	0.26
862.559	0.26
862.988	0.26
863.417	0.26
863.845	0.26
864.274	0.26
864.703	0.26
865.131	0.26
865.56	0.26
865.989	0.26
866.417	0.26
866.846	0.26
867.274	0.26
867.703	0.26
868.131	0.26
868.559	0.26
868.988	0.25
869.416	0.25
869.844	0.25
870.273	0.25
870.701	0.25
871.129	0.25
871.557	0.25
871.986	0.25
872.414	0.25
872.842	0.25
873.27	0.25
873.698	0.25
874.126	0.25
874.554	0.25
874.982	0.25
875.41	0.25
875.838	0.25
876.266	0.25
876.694	0.25
877.122	0.25
877.549	0.25
877.977	0.25
878.405	0.25
878.833	0.25
879.26	0.24
879.688	0.24
880.116	0.24
880.543	0.24
880.971	0.24
881.399	0.24
881.826	0.24
882.254	0.24
882.681	0.24
883.109	0.24
883.536	0.24
883.963	0.24
884.391	0.24
884.818	0.24
885.245	0.24
885.673	0.24
886.1	0.24
886.527	0.24
886.954	0.24
887.381	0.24
887.809	0.24
888.236	0.24
888.663	0.24
889.09	0.24
889.517	0.24
889.944	0.24
890.371	0.24
890.798	0.24
891.225	0.24
891.652	0.24
892.078	0.23
892.505	0.23
892.932	0.23
893.359	0.23
893.786	0.23
894.212	0.23
894.639	0.23
895.066	0.23
895.492	0.23
895.919	0.23
896.346	0.23
896.772	0.23
897.199	0.23
897.625	0.23
898.052	0.23
898.478	0.23
898.904	0.23
899.331	0.23
899.757	0.22
900.183	0.22
900.61	0.22
901.036	0.22
901.462	0.23
901.888	0.23
902.315	0.23
902.741	0.23
903.167	0.23
903.593	0.22
904.019	0.22
904.445	0.22
904.871	0.22
905.297	0.22
905.723	0.22
906.149	0.22
906.575	0.22
907.001	0.22
907.427	0.22
907.852	0.22
908.278	0.22
908.704	0.22
909.13	0.22
909.555	0.21
909.981	0.21
910.407	0.21
910.832	0.21
911.258	0.21
911.684	0.21
912.109	0.21
912.535	0.21
912.96	0.22
913.386	0.22
913.811	0.22
914.236	0.22
914.662	0.22
915.087	0.22
915.512	0.22
915.938	0.22
916.363	0.22
916.788	0.22
917.213	0.22
917.639	0.22
918.064	0.21
918.489	0.21
918.914	0.21
919.339	0.21
919.764	0.21
920.189	0.21
920.614	0.21
921.039	0.21
921.464	0.21
921.889	0.21
922.314	0.21
922.738	0.21
923.163	0.21
923.588	0.21
924.013	0.21
924.437	0.21
924.862	0.21
925.287	0.21
925.711	0.21
926.136	0.21
926.561	0.21
926.985	0.2
927.41	0.2
927.834	0.2
928.259	0.2
928.683	0.2
929.108	0.2
929.532	0.2
929.956	0.2
930.381	0.2
930.805	0.2
931.229	0.2
931.653	0.2
932.078	0.19
932.502	0.19
932.926	0.19
933.35	0.19
933.774	0.19
934.198	0.19
934.622	0.19
935.046	0.19
935.47	0.19
935.894	0.18
936.318	0.19
936.742	0.19
937.166	0.19
937.59	0.19
938.014	0.19
938.437	0.19
938.861	0.19
939.285	0.19
939.709	0.19
940.132	0.19
940.556	0.19
940.98	0.19
941.403	0.19
941.827	0.19
942.25	0.19
942.674	0.19
943.097	0.19
943.521	0.19
943.944	0.19
944.368	0.19
944.791	0.19
945.214	0.19
945.638	0.19
946.061	0.19
946.484	0.19
946.907	0.18
947.331	0.18
947.754	0.18
948.177	0.18
948.6	0.18
949.023	0.18
949.446	0.18
949.869	0.18
950.292	0.18
950.715	0.18
951.138	0.18
951.561	0.18
951.984	0.18
952.407	0.18
952.83	0.17
953.252	0.17
953.675	0.17
954.098	0.17
954.521	0.17
954.943	0.17
955.366	0.17
955.789	0.17
956.211	0.17
956.634	0.17
957.056	0.17
957.479	0.17
957.902	0.17
958.324	0.17
958.746	0.17
959.169	0.17
959.591	0.17
960.014	0.17
960.436	0.17
960.858	0.17
961.281	0.17
961.703	0.17
962.125	0.17
962.547	0.17
962.969	0.17
963.391	0.17
963.814	0.17
964.236	0.17
964.658	0.17
965.08	0.17
965.502	0.18
965.924	0.18
966.346	0.18
966.768	0.18
967.189	0.17
967.611	0.17
968.033	0.17
968.455	0.17
968.877	0.17
969.298	0.17
969.72	0.17
970.142	0.17
970.563	0.17
970.985	0.17
971.407	0.17
971.828	0.17
972.25	0.17
972.671	0.17
973.093	0.17
973.514	0.17
973.936	0.17
974.357	0.17
974.778	0.17
975.2	0.17
975.621	0.17
976.042	0.17
976.464	0.17
976.885	0.17
977.306	0.17
977.727	0.17
978.148	0.17
978.57	0.16
978.991	0.16
979.412	0.16
979.833	0.16
980.254	0.16
980.675	0.16
981.096	0.16
981.517	0.16
981.937	0.16
982.358	0.16
982.779	0.16
983.2	0.16
983.621	0.16
984.042	0.16
984.462	0.16
984.883	0.16
985.304	0.16
985.724	0.16
986.145	0.16
986.565	0.16
986.986	0.16
987.407	0.16
987.827	0.16
988.248	0.16
988.668	0.16
989.088	0.16
989.509	0.16
989.929	0.16
990.35	0.16
990.77	0.15
991.19	0.15
991.61	0.15
992.031	0.15
992.451	0.15
992.871	0.15
993.291	0.15
993.711	0.15
994.131	0.14
994.551	0.14
994.971	0.14
995.391	0.14
995.811	0.14
996.231	0.14
996.651	0.14
997.071	0.14
997.491	0.14
997.911	0.14
998.331	0.14
998.75	0.14
999.17	0.14
999.59	0.14
1000.009	0.14
1000.429	0.14
1000.849	0.15
1001.268	0.15
1001.688	0.15
1002.107	0.15
1002.527	0.15
1002.946	0.15
1003.366	0.15
1003.785	0.15
1004.205	0.15
1004.624	0.14
1005.044	0.14
1005.463	0.14
1005.882	0.14
1006.301	0.14
1006.721	0.14
1007.14	0.14
1007.559	0.14
1007.978	0.14
1008.397	0.14
1008.816	0.14
1009.235	0.14
1009.655	0.14
1010.074	0.14
1010.492	0.14
1010.911	0.14
1011.33	0.14
1011.749	0.14
1012.168	0.14
1012.587	0.14
1013.006	0.14
1013.425	0.14
1013.843	0.14
1014.262	0.14
1014.681	0.13
1015.099	0.13
1015.518	0.13
1015.937	0.13
1016.355	0.13
1016.774	0.13
1017.192	0.13
1017.611	0.13
1018.029	0.13
1018.448	0.13
1018.866	0.13
1019.285	0.13
1019.703	0.13
1020.121	0.13
1020.54	0.13
1020.958	0.14
1021.376	0.14
1021.794	0.14
1022.213	0.14
1022.631	0.14
1023.049	0.14
1023.467	0.14
1023.885	0.14
1024.303	0.14
1024.721	0.14
1025.139	0.14
1025.557	0.14
1025.975	0.14
1026.393	0.14
1026.811	0.14
1027.229	0.14
1027.647	0.14
1028.065	0.14
1028.482	0.14
1028.9	0.14
1029.318	0.15
1029.735	0.15
1030.153	0.15
1030.571	0.15
1030.988	0.15
1031.406	0.15
1031.823	0.15
1032.241	0.15
1032.659	0.15
1033.076	0.15
1033.493	0.15
1033.911	0.15
1034.328	0.15
1034.746	0.15
1035.163	0.15
1035.58	0.14
1035.997	0.14
1036.415	0.14
1036.832	0.14
1037.249	0.14
1037.666	0.14
1038.083	0.14
1038.501	0.14
1038.918	0.14
1039.335	0.14
1039.752	0.14
1040.169	0.14
1040.586	0.14
1041.003	0.14
1041.419	0.14
1041.836	0.14
1042.253	0.14
1042.67	0.14
1043.087	0.14
1043.504	0.14
1043.92	0.14
1044.337	0.14
1044.754	0.14
1045.17	0.14
1045.587	0.14
1046.004	0.14
1046.42	0.14
1046.837	0.14
1047.253	0.14
1047.67	0.14
1048.086	0.14
1048.503	0.14
1048.919	0.14
1049.335	0.14
1049.752	0.14
1050.168	0.14
1050.584	0.14
1051.001	0.14
1051.417	0.14
1051.833	0.14
1052.249	0.14
1052.665	0.14
1053.081	0.14
1053.497	0.14
1053.914	0.14
1054.33	0.14
1054.746	0.14
1055.162	0.14
1055.578	0.14
1055.993	0.14
1056.409	0.14
1056.825	0.14
1057.241	0.14
1057.657	0.14
1058.073	0.14
1058.488	0.14
1058.904	0.14
1059.32	0.14
1059.736	0.14
1060.151	0.15
1060.567	0.15
1060.982	0.15
1061.398	0.15
1061.813	0.15
1062.229	0.15
1062.644	0.15
1063.06	0.15
1063.475	0.15
1063.891	0.15
1064.306	0.15
1064.721	0.15
1065.137	0.15
1065.552	0.15
1065.967	0.15
1066.382	0.15
1066.798	0.15
1067.213	0.15
1067.628	0.15
1068.043	0.15
1068.458	0.15
1068.873	0.15
1069.288	0.15
1069.703	0.15
1070.118	0.15
1070.533	0.15
1070.948	0.15
1071.363	0.15
1071.778	0.15
1072.193	0.15
1072.607	0.15
1073.022	0.15
1073.437	0.15
1073.852	0.16
1074.266	0.16
1074.681	0.16
1075.096	0.16
1075.51	0.16
1075.925	0.16
1076.339	0.16
1076.754	0.16
1077.168	0.16
1077.583	0.16
1077.997	0.16
1078.412	0.16
1078.826	0.16
1079.24	0.16
1079.655	0.16
1080.069	0.17
1080.483	0.17
1080.897	0.17
1081.312	0.17
1081.726	0.17
1082.14	0.17
1082.554	0.17
1082.968	0.18
1083.382	0.18
1083.796	0.18
1084.21	0.18
1084.624	0.18
1085.038	0.19
1085.452	0.19
1085.866	0.19
1086.28	0.19
1086.694	0.2
1087.108	0.2
1087.521	0.2
1087.935	0.2
1088.349	0.21
1088.763	0.21
1089.176	0.21
1089.59	0.22
1090.004	0.22
1090.417	0.23
1090.831	0.23
1091.244	0.24
1091.658	0.24
1092.071	0.25
1092.485	0.26
1092.898	0.26
1093.312	0.27
1093.725	0.28
1094.138	0.29
1094.552	0.3
1094.965	0.31
1095.378	0.32
1095.791	0.33
1096.205	0.34
1096.618	0.36
1097.031	0.37
1097.444	0.39
1097.857	0.4
1098.27	0.42
1098.683	0.44
1099.096	0.46
1099.509	0.48
1099.922	0.5
1100.335	0.53
1100.748	0.56
1101.161	0.6
1101.574	0.64
1101.986	0.7
1102.399	0.76
1102.812	0.85
1103.225	0.95
1103.637	1.1
1104.05	1.34
1104.463	1.98
1104.875	-0
1105.288	-0
1105.7	-0
1106.113	-0
1106.525	-0
1106.938	-0
1107.35	-0
1107.763	-0
1108.175	-0
1108.588	-0
1109	-0
1109.412	-0
1109.824	-0
1110.237	-0
1110.649	-0
1111.061	-0
