Data from unagg-15c-2a-1h_Absorbance__61__00488.txt Node

Date: Mon May 06 09:34:46 CEST 2024
User: Laser008
Spectrometer: MAYP115816
Trigger mode: 0
Integration Time (sec): 2.000000E-1
Scans to average: 10
Electric dark correction enabled: true
Nonlinearity correction enabled: true
Boxcar width: 5
XAxis mode: Wavelengths
Number of Pixels in Spectrum: 2068
>>>>>Begin Spectral Data<<<<<
198.914	-1.92
199.384	-1.78
199.855	-1.63
200.325	-1.51
200.796	-1.43
201.266	-1.37
201.737	-1.3
202.207	-1.24
202.677	-1.19
203.147	-1.14
203.618	-1.11
204.088	-1.09
204.558	-1.07
205.028	-1.06
205.498	-1.05
205.968	-1.05
206.439	-1.05
206.909	-1.04
207.379	-1.04
207.849	-1.04
208.319	-1.04
208.789	-1.03
209.258	-1.03
209.728	-1.03
210.198	-1.03
210.668	-1.03
211.138	-1.03
211.608	-1.02
212.077	-1.02
212.547	-1.02
213.017	-1.02
213.486	-1.02
213.956	-1.02
214.426	-1.02
214.895	-1.02
215.365	-1.02
215.834	-1.01
216.304	-1.01
216.773	-1.01
217.243	-1.01
217.712	-1
218.181	-1
218.651	-1
219.12	-1
219.589	-0.99
220.058	-0.99
220.528	-0.99
220.997	-0.99
221.466	-0.99
221.935	-0.98
222.404	-0.98
222.873	-0.97
223.342	-0.97
223.812	-0.96
224.281	-0.95
224.749	-0.94
225.218	-0.93
225.687	-0.92
226.156	-0.91
226.625	-0.9
227.094	-0.88
227.563	-0.86
228.031	-0.84
228.5	-0.82
228.969	-0.8
229.438	-0.77
229.906	-0.74
230.375	-0.7
230.844	-0.66
231.312	-0.62
231.781	-0.58
232.249	-0.53
232.718	-0.49
233.186	-0.44
233.655	-0.39
234.123	-0.34
234.591	-0.29
235.06	-0.24
235.528	-0.19
235.996	-0.14
236.465	-0.1
236.933	-0.05
237.401	-0.01
237.869	0.03
238.337	0.07
238.805	0.11
239.274	0.15
239.742	0.18
240.21	0.22
240.678	0.25
241.146	0.28
241.614	0.3
242.081	0.33
242.549	0.35
243.017	0.37
243.485	0.39
243.953	0.41
244.421	0.43
244.888	0.45
245.356	0.47
245.824	0.48
246.291	0.49
246.759	0.51
247.227	0.52
247.694	0.53
248.162	0.54
248.629	0.55
249.097	0.56
249.564	0.57
250.032	0.58
250.499	0.59
250.967	0.6
251.434	0.61
251.901	0.61
252.369	0.62
252.836	0.63
253.303	0.64
253.77	0.64
254.237	0.65
254.705	0.65
255.172	0.66
255.639	0.66
256.106	0.67
256.573	0.67
257.04	0.67
257.507	0.68
257.974	0.68
258.441	0.68
258.908	0.69
259.375	0.69
259.841	0.69
260.308	0.69
260.775	0.69
261.242	0.69
261.709	0.7
262.175	0.7
262.642	0.7
263.109	0.7
263.575	0.7
264.042	0.7
264.508	0.7
264.975	0.7
265.441	0.7
265.908	0.7
266.374	0.7
266.841	0.7
267.307	0.7
267.773	0.7
268.24	0.7
268.706	0.7
269.172	0.7
269.639	0.7
270.105	0.7
270.571	0.7
271.037	0.69
271.503	0.69
271.969	0.69
272.435	0.69
272.902	0.69
273.368	0.69
273.834	0.69
274.3	0.69
274.765	0.68
275.231	0.68
275.697	0.68
276.163	0.68
276.629	0.68
277.095	0.67
277.56	0.67
278.026	0.67
278.492	0.67
278.958	0.66
279.423	0.66
279.889	0.66
280.354	0.66
280.82	0.66
281.286	0.65
281.751	0.65
282.217	0.65
282.682	0.65
283.147	0.65
283.613	0.65
284.078	0.65
284.544	0.65
285.009	0.64
285.474	0.64
285.939	0.64
286.405	0.64
286.87	0.64
287.335	0.64
287.8	0.63
288.265	0.63
288.73	0.63
289.195	0.63
289.66	0.63
290.125	0.63
290.59	0.62
291.055	0.62
291.52	0.62
291.985	0.62
292.45	0.62
292.915	0.62
293.38	0.62
293.844	0.61
294.309	0.61
294.774	0.61
295.239	0.61
295.703	0.61
296.168	0.61
296.632	0.61
297.097	0.61
297.562	0.61
298.026	0.61
298.491	0.6
298.955	0.6
299.419	0.6
299.884	0.6
300.348	0.6
300.813	0.6
301.277	0.6
301.741	0.6
302.205	0.6
302.67	0.6
303.134	0.6
303.598	0.59
304.062	0.59
304.526	0.59
304.99	0.59
305.454	0.59
305.919	0.59
306.383	0.59
306.847	0.59
307.31	0.59
307.774	0.59
308.238	0.59
308.702	0.59
309.166	0.59
309.63	0.58
310.094	0.58
310.557	0.58
311.021	0.58
311.485	0.58
311.948	0.58
312.412	0.58
312.876	0.58
313.339	0.58
313.803	0.58
314.266	0.58
314.73	0.58
315.193	0.57
315.657	0.57
316.12	0.57
316.584	0.57
317.047	0.57
317.51	0.57
317.973	0.57
318.437	0.57
318.9	0.57
319.363	0.57
319.826	0.57
320.29	0.56
320.753	0.56
321.216	0.56
321.679	0.56
322.142	0.56
322.605	0.56
323.068	0.56
323.531	0.56
323.994	0.56
324.457	0.56
324.92	0.55
325.382	0.55
325.845	0.55
326.308	0.55
326.771	0.55
327.233	0.55
327.696	0.55
328.159	0.55
328.622	0.55
329.084	0.55
329.547	0.54
330.009	0.54
330.472	0.54
330.934	0.54
331.397	0.54
331.859	0.54
332.322	0.54
332.784	0.54
333.246	0.54
333.709	0.54
334.171	0.54
334.633	0.53
335.096	0.53
335.558	0.53
336.02	0.53
336.482	0.53
336.944	0.53
337.406	0.53
337.868	0.53
338.331	0.53
338.793	0.53
339.255	0.52
339.717	0.52
340.178	0.52
340.64	0.52
341.102	0.52
341.564	0.52
342.026	0.52
342.488	0.52
342.949	0.52
343.411	0.52
343.873	0.52
344.335	0.52
344.796	0.51
345.258	0.51
345.719	0.51
346.181	0.51
346.643	0.51
347.104	0.51
347.566	0.51
348.027	0.51
348.488	0.51
348.95	0.51
349.411	0.51
349.873	0.51
350.334	0.5
350.795	0.5
351.256	0.5
351.718	0.5
352.179	0.5
352.64	0.5
353.101	0.5
353.562	0.5
354.023	0.5
354.484	0.49
354.945	0.49
355.406	0.49
355.867	0.49
356.328	0.49
356.789	0.49
357.25	0.49
357.711	0.49
358.172	0.49
358.633	0.49
359.093	0.49
359.554	0.49
360.015	0.49
360.476	0.49
360.936	0.49
361.397	0.49
361.858	0.49
362.318	0.49
362.779	0.49
363.239	0.49
363.7	0.49
364.16	0.49
364.621	0.49
365.081	0.49
365.541	0.49
366.002	0.49
366.462	0.49
366.922	0.49
367.383	0.49
367.843	0.49
368.303	0.49
368.763	0.49
369.223	0.49
369.684	0.49
370.144	0.49
370.604	0.49
371.064	0.49
371.524	0.49
371.984	0.49
372.444	0.49
372.904	0.49
373.363	0.49
373.823	0.48
374.283	0.48
374.743	0.49
375.203	0.49
375.663	0.49
376.122	0.49
376.582	0.49
377.042	0.49
377.501	0.49
377.961	0.49
378.42	0.49
378.88	0.49
379.34	0.49
379.799	0.49
380.259	0.49
380.718	0.49
381.177	0.49
381.637	0.49
382.096	0.49
382.555	0.49
383.015	0.49
383.474	0.48
383.933	0.48
384.393	0.48
384.852	0.48
385.311	0.48
385.77	0.48
386.229	0.48
386.688	0.48
387.147	0.48
387.606	0.48
388.065	0.48
388.524	0.48
388.983	0.48
389.442	0.48
389.901	0.48
390.36	0.48
390.819	0.48
391.277	0.48
391.736	0.48
392.195	0.48
392.654	0.48
393.112	0.48
393.571	0.48
394.03	0.48
394.488	0.48
394.947	0.48
395.405	0.48
395.864	0.48
396.322	0.48
396.781	0.48
397.239	0.48
397.698	0.48
398.156	0.48
398.614	0.48
399.073	0.48
399.531	0.48
399.989	0.48
400.447	0.48
400.905	0.48
401.364	0.48
401.822	0.48
402.28	0.48
402.738	0.48
403.196	0.48
403.654	0.48
404.112	0.48
404.57	0.48
405.028	0.48
405.486	0.48
405.944	0.47
406.402	0.47
406.859	0.47
407.317	0.47
407.775	0.47
408.233	0.47
408.691	0.47
409.148	0.47
409.606	0.47
410.064	0.47
410.521	0.47
410.979	0.47
411.436	0.47
411.894	0.47
412.351	0.47
412.809	0.47
413.266	0.47
413.724	0.47
414.181	0.47
414.638	0.47
415.096	0.47
415.553	0.46
416.01	0.46
416.467	0.46
416.925	0.46
417.382	0.46
417.839	0.46
418.296	0.46
418.753	0.46
419.21	0.46
419.667	0.46
420.124	0.47
420.581	0.47
421.038	0.47
421.495	0.47
421.952	0.47
422.409	0.47
422.866	0.47
423.322	0.47
423.779	0.47
424.236	0.46
424.693	0.46
425.149	0.46
425.606	0.46
426.063	0.46
426.519	0.46
426.976	0.46
427.433	0.46
427.889	0.46
428.346	0.46
428.802	0.46
429.258	0.46
429.715	0.46
430.171	0.46
430.628	0.46
431.084	0.46
431.54	0.46
431.997	0.46
432.453	0.46
432.909	0.46
433.365	0.46
433.821	0.46
434.277	0.45
434.734	0.45
435.19	0.45
435.646	0.45
436.102	0.45
436.558	0.45
437.014	0.45
437.47	0.45
437.925	0.45
438.381	0.45
438.837	0.45
439.293	0.45
439.749	0.45
440.205	0.45
440.66	0.45
441.116	0.45
441.572	0.45
442.027	0.45
442.483	0.45
442.939	0.45
443.394	0.45
443.85	0.45
444.305	0.45
444.761	0.45
445.216	0.45
445.672	0.45
446.127	0.45
446.582	0.45
447.038	0.45
447.493	0.45
447.948	0.45
448.403	0.45
448.859	0.45
449.314	0.45
449.769	0.45
450.224	0.45
450.679	0.45
451.134	0.45
451.589	0.44
452.044	0.44
452.499	0.44
452.954	0.44
453.409	0.44
453.864	0.44
454.319	0.44
454.774	0.44
455.229	0.44
455.684	0.44
456.138	0.44
456.593	0.44
457.048	0.44
457.503	0.44
457.957	0.44
458.412	0.44
458.866	0.44
459.321	0.44
459.776	0.44
460.23	0.43
460.685	0.43
461.139	0.43
461.593	0.43
462.048	0.43
462.502	0.43
462.957	0.43
463.411	0.43
463.865	0.43
464.319	0.43
464.774	0.43
465.228	0.43
465.682	0.43
466.136	0.43
466.59	0.43
467.044	0.43
467.499	0.43
467.953	0.43
468.407	0.43
468.861	0.43
469.315	0.42
469.768	0.42
470.222	0.42
470.676	0.42
471.13	0.42
471.584	0.42
472.038	0.42
472.491	0.42
472.945	0.42
473.399	0.42
473.852	0.42
474.306	0.43
474.76	0.43
475.213	0.43
475.667	0.43
476.12	0.43
476.574	0.43
477.027	0.43
477.481	0.43
477.934	0.43
478.388	0.43
478.841	0.43
479.294	0.43
479.748	0.43
480.201	0.43
480.654	0.43
481.107	0.43
481.561	0.43
482.014	0.43
482.467	0.43
482.92	0.44
483.373	0.44
483.826	0.44
484.279	0.45
484.732	0.45
485.185	0.45
485.638	0.45
486.091	0.45
486.544	0.45
486.997	0.45
487.449	0.46
487.902	0.45
488.355	0.45
488.808	0.45
489.26	0.45
489.713	0.45
490.166	0.45
490.618	0.45
491.071	0.45
491.523	0.45
491.976	0.45
492.429	0.45
492.881	0.45
493.333	0.45
493.786	0.45
494.238	0.46
494.691	0.46
495.143	0.46
495.595	0.46
496.048	0.46
496.5	0.46
496.952	0.47
497.404	0.47
497.856	0.47
498.309	0.47
498.761	0.47
499.213	0.47
499.665	0.47
500.117	0.47
500.569	0.47
501.021	0.48
501.473	0.48
501.925	0.48
502.377	0.48
502.828	0.49
503.28	0.49
503.732	0.49
504.184	0.49
504.636	0.49
505.087	0.49
505.539	0.49
505.991	0.49
506.442	0.49
506.894	0.49
507.345	0.5
507.797	0.5
508.249	0.5
508.7	0.5
509.151	0.5
509.603	0.5
510.054	0.5
510.506	0.5
510.957	0.5
511.408	0.5
511.86	0.51
512.311	0.51
512.762	0.51
513.213	0.5
513.665	0.5
514.116	0.5
514.567	0.5
515.018	0.5
515.469	0.5
515.92	0.5
516.371	0.5
516.822	0.5
517.273	0.51
517.724	0.51
518.175	0.51
518.626	0.51
519.076	0.5
519.527	0.5
519.978	0.5
520.429	0.5
520.88	0.49
521.33	0.49
521.781	0.49
522.232	0.49
522.682	0.49
523.133	0.49
523.583	0.49
524.034	0.5
524.484	0.5
524.935	0.51
525.385	0.51
525.836	0.52
526.286	0.52
526.736	0.53
527.187	0.53
527.637	0.54
528.087	0.54
528.538	0.54
528.988	0.55
529.438	0.55
529.888	0.55
530.338	0.55
530.788	0.55
531.238	0.56
531.688	0.56
532.139	0.56
532.589	0.56
533.038	0.56
533.488	0.56
533.938	0.57
534.388	0.57
534.838	0.57
535.288	0.57
535.738	0.57
536.187	0.57
536.637	0.57
537.087	0.58
537.537	0.58
537.986	0.58
538.436	0.58
538.885	0.58
539.335	0.58
539.785	0.58
540.234	0.58
540.684	0.58
541.133	0.58
541.582	0.58
542.032	0.58
542.481	0.58
542.931	0.58
543.38	0.59
543.829	0.59
544.278	0.59
544.728	0.59
545.177	0.59
545.626	0.59
546.075	0.6
546.524	0.6
546.973	0.6
547.422	0.6
547.871	0.6
548.32	0.6
548.769	0.6
549.218	0.6
549.667	0.6
550.116	0.6
550.565	0.59
551.014	0.59
551.463	0.59
551.911	0.6
552.36	0.6
552.809	0.6
553.258	0.6
553.706	0.6
554.155	0.6
554.603	0.6
555.052	0.6
555.501	0.6
555.949	0.6
556.398	0.6
556.846	0.6
557.294	0.59
557.743	0.59
558.191	0.59
558.64	0.59
559.088	0.59
559.536	0.6
559.985	0.6
560.433	0.6
560.881	0.6
561.329	0.61
561.777	0.61
562.225	0.61
562.674	0.61
563.122	0.61
563.57	0.61
564.018	0.61
564.466	0.6
564.914	0.6
565.362	0.6
565.809	0.6
566.257	0.6
566.705	0.61
567.153	0.61
567.601	0.61
568.048	0.62
568.496	0.62
568.944	0.63
569.392	0.63
569.839	0.64
570.287	0.64
570.734	0.65
571.182	0.65
571.63	0.65
572.077	0.66
572.525	0.66
572.972	0.66
573.419	0.66
573.867	0.66
574.314	0.66
574.761	0.66
575.209	0.66
575.656	0.67
576.103	0.67
576.551	0.67
576.998	0.67
577.445	0.67
577.892	0.66
578.339	0.66
578.786	0.66
579.233	0.67
579.68	0.67
580.127	0.67
580.574	0.67
581.021	0.66
581.468	0.66
581.915	0.66
582.362	0.66
582.809	0.66
583.255	0.66
583.702	0.65
584.149	0.65
584.596	0.64
585.042	0.64
585.489	0.64
585.936	0.64
586.382	0.64
586.829	0.64
587.275	0.63
587.722	0.63
588.168	0.62
588.615	0.62
589.061	0.61
589.508	0.61
589.954	0.61
590.4	0.6
590.847	0.6
591.293	0.6
591.739	0.6
592.185	0.6
592.632	0.6
593.078	0.6
593.524	0.6
593.97	0.59
594.416	0.59
594.862	0.59
595.308	0.59
595.754	0.58
596.2	0.58
596.646	0.58
597.092	0.58
597.538	0.58
597.984	0.58
598.43	0.58
598.876	0.58
599.321	0.58
599.767	0.58
600.213	0.58
600.659	0.57
601.104	0.57
601.55	0.57
601.995	0.56
602.441	0.56
602.887	0.56
603.332	0.55
603.778	0.55
604.223	0.55
604.668	0.55
605.114	0.55
605.559	0.55
606.005	0.55
606.45	0.55
606.895	0.55
607.341	0.54
607.786	0.54
608.231	0.54
608.676	0.54
609.121	0.53
609.566	0.53
610.012	0.52
610.457	0.52
610.902	0.52
611.347	0.52
611.792	0.51
612.237	0.51
612.682	0.51
613.127	0.51
613.571	0.51
614.016	0.51
614.461	0.51
614.906	0.51
615.351	0.5
615.795	0.5
616.24	0.5
616.685	0.5
617.129	0.49
617.574	0.49
618.019	0.48
618.463	0.48
618.908	0.48
619.352	0.48
619.797	0.48
620.241	0.48
620.686	0.47
621.13	0.47
621.574	0.47
622.019	0.47
622.463	0.47
622.907	0.47
623.352	0.47
623.796	0.47
624.24	0.47
624.684	0.47
625.128	0.46
625.572	0.46
626.016	0.46
626.461	0.46
626.905	0.46
627.349	0.46
627.793	0.46
628.236	0.46
628.68	0.46
629.124	0.46
629.568	0.46
630.012	0.46
630.456	0.45
630.9	0.45
631.343	0.45
631.787	0.45
632.231	0.45
632.674	0.45
633.118	0.45
633.562	0.45
634.005	0.45
634.449	0.45
634.892	0.45
635.336	0.45
635.779	0.45
636.223	0.45
636.666	0.45
637.109	0.45
637.553	0.45
637.996	0.45
638.439	0.45
638.883	0.45
639.326	0.45
639.769	0.45
640.212	0.46
640.655	0.46
641.099	0.46
641.542	0.46
641.985	0.46
642.428	0.46
642.871	0.46
643.314	0.46
643.757	0.47
644.2	0.47
644.643	0.47
645.085	0.47
645.528	0.47
645.971	0.47
646.414	0.48
646.857	0.48
647.299	0.48
647.742	0.49
648.185	0.49
648.627	0.49
649.07	0.49
649.513	0.5
649.955	0.5
650.398	0.5
650.84	0.51
651.283	0.51
651.725	0.51
652.168	0.51
652.61	0.52
653.052	0.52
653.495	0.52
653.937	0.46
654.379	0.42
654.821	0.44
655.264	0.44
655.706	0.44
656.148	0.44
656.59	0.45
657.032	0.45
657.474	0.45
657.916	0.45
658.358	0.45
658.8	0.51
659.242	0.57
659.684	0.57
660.126	0.57
660.568	0.57
661.01	0.57
661.452	0.57
661.894	0.58
662.335	0.58
662.777	0.58
663.219	0.59
663.661	0.59
664.102	0.59
664.544	0.6
664.985	0.6
665.427	0.6
665.869	0.61
666.31	0.61
666.752	0.61
667.193	0.62
667.634	0.62
668.076	0.62
668.517	0.63
668.959	0.63
669.4	0.63
669.841	0.64
670.282	0.65
670.724	0.65
671.165	0.65
671.606	0.66
672.047	0.66
672.488	0.66
672.929	0.66
673.37	0.66
673.811	0.67
674.252	0.67
674.693	0.67
675.134	0.67
675.575	0.67
676.016	0.67
676.457	0.67
676.898	0.68
677.339	0.68
677.78	0.68
678.22	0.68
678.661	0.69
679.102	0.69
679.542	0.69
679.983	0.69
680.424	0.69
680.864	0.69
681.305	0.69
681.745	0.69
682.186	0.7
682.626	0.7
683.067	0.7
683.507	0.71
683.948	0.71
684.388	0.71
684.828	0.71
685.269	0.71
685.709	0.72
686.149	0.72
686.589	0.72
687.029	0.72
687.47	0.72
687.91	0.72
688.35	0.72
688.79	0.72
689.23	0.72
689.67	0.72
690.11	0.72
690.55	0.72
690.99	0.72
691.43	0.73
691.87	0.73
692.31	0.73
692.749	0.73
693.189	0.73
693.629	0.73
694.069	0.73
694.508	0.73
694.948	0.73
695.388	0.73
695.827	0.73
696.267	0.73
696.706	0.73
697.146	0.73
697.586	0.73
698.025	0.73
698.464	0.73
698.904	0.73
699.343	0.73
699.783	0.73
700.222	0.72
700.661	0.72
701.101	0.72
701.54	0.72
701.979	0.72
702.418	0.72
702.857	0.72
703.297	0.72
703.736	0.72
704.175	0.72
704.614	0.72
705.053	0.72
705.492	0.72
705.931	0.72
706.37	0.72
706.809	0.72
707.248	0.72
707.687	0.72
708.125	0.72
708.564	0.72
709.003	0.71
709.442	0.71
709.88	0.71
710.319	0.71
710.758	0.7
711.196	0.7
711.635	0.7
712.074	0.7
712.512	0.7
712.951	0.69
713.389	0.69
713.828	0.69
714.266	0.69
714.705	0.69
715.143	0.68
715.581	0.68
716.02	0.68
716.458	0.68
716.896	0.67
717.334	0.67
717.773	0.67
718.211	0.67
718.649	0.66
719.087	0.66
719.525	0.66
719.963	0.66
720.401	0.66
720.839	0.66
721.277	0.65
721.715	0.65
722.153	0.65
722.591	0.64
723.029	0.64
723.467	0.64
723.905	0.64
724.342	0.64
724.78	0.63
725.218	0.63
725.656	0.63
726.093	0.63
726.531	0.62
726.969	0.62
727.406	0.62
727.844	0.62
728.281	0.62
728.719	0.62
729.156	0.62
729.594	0.61
730.031	0.61
730.469	0.61
730.906	0.61
731.343	0.61
731.781	0.61
732.218	0.61
732.655	0.6
733.092	0.6
733.53	0.6
733.967	0.6
734.404	0.59
734.841	0.59
735.278	0.59
735.715	0.59
736.152	0.58
736.589	0.58
737.026	0.58
737.463	0.58
737.9	0.57
738.337	0.57
738.774	0.56
739.211	0.56
739.647	0.56
740.084	0.56
740.521	0.55
740.958	0.55
741.394	0.55
741.831	0.54
742.268	0.53
742.704	0.53
743.141	0.52
743.577	0.52
744.014	0.52
744.45	0.51
744.887	0.51
745.323	0.5
745.76	0.5
746.196	0.5
746.632	0.5
747.069	0.49
747.505	0.49
747.941	0.49
748.378	0.49
748.814	0.49
749.25	0.49
749.686	0.49
750.122	0.49
750.558	0.49
750.994	0.49
751.43	0.49
751.866	0.49
752.302	0.48
752.738	0.48
753.174	0.48
753.61	0.48
754.046	0.48
754.482	0.48
754.918	0.48
755.354	0.48
755.789	0.48
756.225	0.47
756.661	0.47
757.096	0.47
757.532	0.47
757.968	0.47
758.403	0.46
758.839	0.46
759.274	0.46
759.71	0.45
760.145	0.45
760.581	0.44
761.016	0.44
761.452	0.43
761.887	0.43
762.322	0.43
762.758	0.42
763.193	0.42
763.628	0.41
764.063	0.41
764.499	0.4
764.934	0.4
765.369	0.4
765.804	0.39
766.239	0.39
766.674	0.38
767.109	0.38
767.544	0.37
767.979	0.37
768.414	0.36
768.849	0.36
769.284	0.35
769.719	0.35
770.154	0.34
770.588	0.34
771.023	0.33
771.458	0.32
771.893	0.32
772.327	0.31
772.762	0.31
773.197	0.3
773.631	0.29
774.066	0.28
774.5	0.28
774.935	0.27
775.369	0.26
775.804	0.25
776.238	0.25
776.673	0.24
777.107	0.23
777.541	0.22
777.976	0.21
778.41	0.2
778.844	0.2
779.279	0.19
779.713	0.18
780.147	0.17
780.581	0.16
781.015	0.15
781.449	0.14
781.883	0.12
782.317	0.11
782.751	0.09
783.185	0.08
783.619	0.06
784.053	0.04
784.487	0.03
784.921	0.01
785.355	-0.01
785.789	-0.02
786.223	-0.03
786.656	-0.03
787.09	-0.04
787.524	-0.04
787.957	-0.05
788.391	-0.05
788.825	-0.06
789.258	-0.06
789.692	-0.06
790.125	-0.05
790.559	-0.06
790.992	-0.06
791.426	-0.06
791.859	-0.06
792.293	-0.05
792.726	-0.04
793.159	-0.04
793.593	-0.04
794.026	-0.04
794.459	-0.04
794.892	-0.05
795.326	-0.05
795.759	-0.05
796.192	-0.05
796.625	-0.06
797.058	-0.06
797.491	-0.07
797.924	-0.08
798.357	-0.08
798.79	-0.08
799.223	-0.08
799.656	-0.08
800.089	-0.08
800.522	-0.08
800.955	-0.09
801.387	-0.09
801.82	-0.09
802.253	-0.09
802.686	-0.09
803.118	-0.09
803.551	-0.09
803.984	-0.08
804.416	-0.08
804.849	-0.07
805.281	-0.07
805.714	-0.07
806.146	-0.07
806.579	-0.07
807.011	-0.07
807.444	-0.07
807.876	-0.07
808.308	-0.07
808.741	-0.07
809.173	-0.07
809.605	-0.08
810.037	-0.08
810.47	-0.08
810.902	-0.08
811.334	-0.08
811.766	-0.08
812.198	-0.08
812.63	-0.08
813.062	-0.08
813.494	-0.08
813.926	-0.08
814.358	-0.08
814.79	-0.07
815.222	-0.07
815.654	-0.07
816.086	-0.07
816.518	-0.08
816.949	-0.08
817.381	-0.08
817.813	-0.08
818.245	-0.07
818.676	-0.07
819.108	-0.06
819.54	-0.05
819.971	-0.05
820.403	-0.04
820.834	-0.03
821.266	-0.01
821.697	0
822.129	0.02
822.56	0.03
822.991	0.05
823.423	0.06
823.854	0.07
824.286	0.08
824.717	0.1
825.148	0.11
825.579	0.12
826.01	0.13
826.442	0.14
826.873	0.15
827.304	0.16
827.735	0.16
828.166	0.17
828.597	0.18
829.028	0.18
829.459	0.19
829.89	0.19
830.321	0.19
830.752	0.2
831.183	0.2
831.613	0.21
832.044	0.21
832.475	0.21
832.906	0.22
833.336	0.22
833.767	0.22
834.198	0.22
834.628	0.23
835.059	0.23
835.49	0.23
835.92	0.23
836.351	0.23
836.781	0.24
837.212	0.24
837.642	0.24
838.072	0.24
838.503	0.24
838.933	0.24
839.364	0.24
839.794	0.24
840.224	0.24
840.654	0.24
841.085	0.24
841.515	0.24
841.945	0.24
842.375	0.24
842.805	0.24
843.235	0.24
843.665	0.24
844.095	0.24
844.525	0.24
844.955	0.24
845.385	0.24
845.815	0.24
846.245	0.24
846.675	0.24
847.105	0.24
847.534	0.24
847.964	0.24
848.394	0.24
848.824	0.24
849.253	0.24
849.683	0.24
850.112	0.24
850.542	0.24
850.972	0.24
851.401	0.24
851.831	0.24
852.26	0.24
852.69	0.24
853.119	0.24
853.548	0.24
853.978	0.24
854.407	0.24
854.836	0.24
855.266	0.24
855.695	0.24
856.124	0.24
856.553	0.24
856.983	0.24
857.412	0.24
857.841	0.24
858.27	0.23
858.699	0.23
859.128	0.23
859.557	0.23
859.986	0.23
860.415	0.23
860.844	0.23
861.273	0.23
861.702	0.23
862.13	0.23
862.559	0.23
862.988	0.23
863.417	0.23
863.845	0.23
864.274	0.23
864.703	0.23
865.131	0.23
865.56	0.23
865.989	0.23
866.417	0.22
866.846	0.22
867.274	0.22
867.703	0.22
868.131	0.22
868.559	0.22
868.988	0.22
869.416	0.22
869.844	0.22
870.273	0.22
870.701	0.22
871.129	0.22
871.557	0.22
871.986	0.22
872.414	0.22
872.842	0.22
873.27	0.22
873.698	0.22
874.126	0.22
874.554	0.22
874.982	0.22
875.41	0.21
875.838	0.21
876.266	0.21
876.694	0.21
877.122	0.21
877.549	0.21
877.977	0.21
878.405	0.21
878.833	0.21
879.26	0.21
879.688	0.21
880.116	0.21
880.543	0.21
880.971	0.21
881.399	0.21
881.826	0.21
882.254	0.21
882.681	0.21
883.109	0.21
883.536	0.21
883.963	0.21
884.391	0.21
884.818	0.21
885.245	0.21
885.673	0.21
886.1	0.21
886.527	0.21
886.954	0.21
887.381	0.21
887.809	0.21
888.236	0.21
888.663	0.21
889.09	0.21
889.517	0.21
889.944	0.21
890.371	0.21
890.798	0.21
891.225	0.21
891.652	0.21
892.078	0.21
892.505	0.2
892.932	0.2
893.359	0.2
893.786	0.2
894.212	0.2
894.639	0.2
895.066	0.2
895.492	0.2
895.919	0.2
896.346	0.2
896.772	0.2
897.199	0.2
897.625	0.2
898.052	0.2
898.478	0.2
898.904	0.2
899.331	0.2
899.757	0.2
900.183	0.2
900.61	0.2
901.036	0.2
901.462	0.2
901.888	0.2
902.315	0.2
902.741	0.2
903.167	0.2
903.593	0.2
904.019	0.2
904.445	0.2
904.871	0.2
905.297	0.2
905.723	0.2
906.149	0.19
906.575	0.19
907.001	0.19
907.427	0.19
907.852	0.19
908.278	0.19
908.704	0.19
909.13	0.19
909.555	0.19
909.981	0.19
910.407	0.19
910.832	0.19
911.258	0.19
911.684	0.19
912.109	0.19
912.535	0.19
912.96	0.19
913.386	0.19
913.811	0.19
914.236	0.19
914.662	0.19
915.087	0.19
915.512	0.19
915.938	0.19
916.363	0.19
916.788	0.19
917.213	0.19
917.639	0.19
918.064	0.19
918.489	0.19
918.914	0.19
919.339	0.19
919.764	0.19
920.189	0.19
920.614	0.19
921.039	0.19
921.464	0.19
921.889	0.19
922.314	0.19
922.738	0.18
923.163	0.18
923.588	0.18
924.013	0.18
924.437	0.18
924.862	0.18
925.287	0.18
925.711	0.18
926.136	0.18
926.561	0.18
926.985	0.18
927.41	0.18
927.834	0.18
928.259	0.18
928.683	0.18
929.108	0.18
929.532	0.18
929.956	0.18
930.381	0.18
930.805	0.17
931.229	0.17
931.653	0.17
932.078	0.17
932.502	0.17
932.926	0.17
933.35	0.16
933.774	0.16
934.198	0.16
934.622	0.16
935.046	0.16
935.47	0.16
935.894	0.16
936.318	0.16
936.742	0.16
937.166	0.16
937.59	0.16
938.014	0.16
938.437	0.16
938.861	0.16
939.285	0.17
939.709	0.17
940.132	0.17
940.556	0.17
940.98	0.17
941.403	0.17
941.827	0.17
942.25	0.17
942.674	0.17
943.097	0.17
943.521	0.17
943.944	0.17
944.368	0.17
944.791	0.16
945.214	0.16
945.638	0.16
946.061	0.16
946.484	0.16
946.907	0.16
947.331	0.16
947.754	0.16
948.177	0.16
948.6	0.16
949.023	0.16
949.446	0.16
949.869	0.16
950.292	0.16
950.715	0.15
951.138	0.15
951.561	0.15
951.984	0.15
952.407	0.15
952.83	0.15
953.252	0.15
953.675	0.15
954.098	0.15
954.521	0.15
954.943	0.15
955.366	0.15
955.789	0.15
956.211	0.15
956.634	0.15
957.056	0.15
957.479	0.15
957.902	0.15
958.324	0.15
958.746	0.15
959.169	0.15
959.591	0.15
960.014	0.15
960.436	0.15
960.858	0.15
961.281	0.15
961.703	0.15
962.125	0.15
962.547	0.15
962.969	0.15
963.391	0.15
963.814	0.15
964.236	0.15
964.658	0.15
965.08	0.15
965.502	0.15
965.924	0.15
966.346	0.15
966.768	0.15
967.189	0.15
967.611	0.15
968.033	0.15
968.455	0.15
968.877	0.15
969.298	0.15
969.72	0.15
970.142	0.15
970.563	0.15
970.985	0.14
971.407	0.14
971.828	0.14
972.25	0.14
972.671	0.15
973.093	0.15
973.514	0.15
973.936	0.15
974.357	0.15
974.778	0.15
975.2	0.15
975.621	0.15
976.042	0.15
976.464	0.15
976.885	0.15
977.306	0.15
977.727	0.15
978.148	0.14
978.57	0.14
978.991	0.14
979.412	0.14
979.833	0.14
980.254	0.14
980.675	0.14
981.096	0.14
981.517	0.14
981.937	0.14
982.358	0.14
982.779	0.14
983.2	0.14
983.621	0.14
984.042	0.14
984.462	0.14
984.883	0.14
985.304	0.14
985.724	0.14
986.145	0.14
986.565	0.14
986.986	0.14
987.407	0.14
987.827	0.14
988.248	0.14
988.668	0.14
989.088	0.14
989.509	0.14
989.929	0.14
990.35	0.14
990.77	0.13
991.19	0.13
991.61	0.13
992.031	0.13
992.451	0.13
992.871	0.13
993.291	0.13
993.711	0.13
994.131	0.13
994.551	0.12
994.971	0.12
995.391	0.12
995.811	0.12
996.231	0.12
996.651	0.12
997.071	0.12
997.491	0.12
997.911	0.12
998.331	0.12
998.75	0.12
999.17	0.12
999.59	0.12
1000.009	0.12
1000.429	0.13
1000.849	0.13
1001.268	0.13
1001.688	0.13
1002.107	0.13
1002.527	0.13
1002.946	0.13
1003.366	0.13
1003.785	0.13
1004.205	0.13
1004.624	0.13
1005.044	0.13
1005.463	0.13
1005.882	0.12
1006.301	0.12
1006.721	0.12
1007.14	0.12
1007.559	0.12
1007.978	0.12
1008.397	0.12
1008.816	0.12
1009.235	0.12
1009.655	0.12
1010.074	0.12
1010.492	0.12
1010.911	0.12
1011.33	0.12
1011.749	0.12
1012.168	0.12
1012.587	0.12
1013.006	0.12
1013.425	0.12
1013.843	0.12
1014.262	0.12
1014.681	0.12
1015.099	0.12
1015.518	0.12
1015.937	0.12
1016.355	0.11
1016.774	0.11
1017.192	0.11
1017.611	0.11
1018.029	0.11
1018.448	0.11
1018.866	0.11
1019.285	0.11
1019.703	0.11
1020.121	0.12
1020.54	0.12
1020.958	0.12
1021.376	0.12
1021.794	0.12
1022.213	0.12
1022.631	0.12
1023.049	0.12
1023.467	0.12
1023.885	0.12
1024.303	0.12
1024.721	0.12
1025.139	0.12
1025.557	0.12
1025.975	0.12
1026.393	0.12
1026.811	0.12
1027.229	0.12
1027.647	0.12
1028.065	0.12
1028.482	0.13
1028.9	0.13
1029.318	0.13
1029.735	0.13
1030.153	0.13
1030.571	0.13
1030.988	0.13
1031.406	0.13
1031.823	0.13
1032.241	0.13
1032.659	0.13
1033.076	0.13
1033.493	0.13
1033.911	0.13
1034.328	0.13
1034.746	0.13
1035.163	0.13
1035.58	0.13
1035.997	0.12
1036.415	0.12
1036.832	0.12
1037.249	0.12
1037.666	0.12
1038.083	0.12
1038.501	0.12
1038.918	0.12
1039.335	0.12
1039.752	0.12
1040.169	0.12
1040.586	0.12
1041.003	0.12
1041.419	0.12
1041.836	0.12
1042.253	0.12
1042.67	0.12
1043.087	0.12
1043.504	0.12
1043.92	0.12
1044.337	0.12
1044.754	0.12
1045.17	0.12
1045.587	0.12
1046.004	0.12
1046.42	0.12
1046.837	0.12
1047.253	0.12
1047.67	0.12
1048.086	0.12
1048.503	0.12
1048.919	0.12
1049.335	0.12
1049.752	0.12
1050.168	0.12
1050.584	0.12
1051.001	0.12
1051.417	0.12
1051.833	0.12
1052.249	0.12
1052.665	0.12
1053.081	0.12
1053.497	0.13
1053.914	0.13
1054.33	0.13
1054.746	0.13
1055.162	0.13
1055.578	0.13
1055.993	0.13
1056.409	0.13
1056.825	0.13
1057.241	0.13
1057.657	0.13
1058.073	0.13
1058.488	0.13
1058.904	0.13
1059.32	0.13
1059.736	0.13
1060.151	0.13
1060.567	0.13
1060.982	0.13
1061.398	0.13
1061.813	0.13
1062.229	0.13
1062.644	0.13
1063.06	0.13
1063.475	0.13
1063.891	0.13
1064.306	0.13
1064.721	0.13
1065.137	0.13
1065.552	0.13
1065.967	0.13
1066.382	0.13
1066.798	0.13
1067.213	0.13
1067.628	0.13
1068.043	0.13
1068.458	0.13
1068.873	0.13
1069.288	0.13
1069.703	0.13
1070.118	0.13
1070.533	0.13
1070.948	0.13
1071.363	0.13
1071.778	0.13
1072.193	0.13
1072.607	0.13
1073.022	0.14
1073.437	0.14
1073.852	0.14
1074.266	0.14
1074.681	0.14
1075.096	0.14
1075.51	0.14
1075.925	0.14
1076.339	0.14
1076.754	0.14
1077.168	0.14
1077.583	0.14
1077.997	0.14
1078.412	0.14
1078.826	0.14
1079.24	0.14
1079.655	0.14
1080.069	0.14
1080.483	0.15
1080.897	0.15
1081.312	0.15
1081.726	0.15
1082.14	0.15
1082.554	0.15
1082.968	0.15
1083.382	0.15
1083.796	0.16
1084.21	0.16
1084.624	0.16
1085.038	0.16
1085.452	0.17
1085.866	0.17
1086.28	0.17
1086.694	0.17
1087.108	0.17
1087.521	0.18
1087.935	0.18
1088.349	0.18
1088.763	0.18
1089.176	0.19
1089.59	0.19
1090.004	0.19
1090.417	0.2
1090.831	0.2
1091.244	0.21
1091.658	0.21
1092.071	0.22
1092.485	0.23
1092.898	0.23
1093.312	0.24
1093.725	0.24
1094.138	0.25
1094.552	0.26
1094.965	0.27
1095.378	0.28
1095.791	0.29
1096.205	0.3
1096.618	0.31
1097.031	0.32
1097.444	0.34
1097.857	0.35
1098.27	0.36
1098.683	0.38
1099.096	0.4
1099.509	0.42
1099.922	0.43
1100.335	0.46
1100.748	0.48
1101.161	0.51
1101.574	0.54
1101.986	0.58
1102.399	0.63
1102.812	0.68
1103.225	0.75
1103.637	0.83
1104.05	0.93
1104.463	1.08
1104.875	1.33
1105.288	1.9
1105.7	-0
1106.113	-0
1106.525	-0
1106.938	-0
1107.35	-0
1107.763	-0
1108.175	-0
1108.588	-0
1109	-0
1109.412	-0
1109.824	-0
1110.237	-0
1110.649	-0
1111.061	-0
