Data from unagg-15c-2a-1h_Absorbance__785__01212.txt Node

Date: Mon May 06 09:58:54 CEST 2024
User: Laser008
Spectrometer: MAYP115816
Trigger mode: 0
Integration Time (sec): 2.000000E-1
Scans to average: 10
Electric dark correction enabled: true
Nonlinearity correction enabled: true
Boxcar width: 5
XAxis mode: Wavelengths
Number of Pixels in Spectrum: 2068
>>>>>Begin Spectral Data<<<<<
198.914	-1.83
199.384	-1.69
199.855	-1.54
200.325	-1.42
200.796	-1.34
201.266	-1.29
201.737	-1.22
202.207	-1.16
202.677	-1.11
203.147	-1.07
203.618	-1.04
204.088	-1.01
204.558	-0.99
205.028	-0.98
205.498	-0.98
205.968	-0.97
206.439	-0.97
206.909	-0.97
207.379	-0.97
207.849	-0.96
208.319	-0.96
208.789	-0.96
209.258	-0.95
209.728	-0.95
210.198	-0.95
210.668	-0.95
211.138	-0.95
211.608	-0.95
212.077	-0.95
212.547	-0.95
213.017	-0.95
213.486	-0.95
213.956	-0.95
214.426	-0.95
214.895	-0.95
215.365	-0.94
215.834	-0.94
216.304	-0.94
216.773	-0.94
217.243	-0.94
217.712	-0.93
218.181	-0.93
218.651	-0.93
219.12	-0.93
219.589	-0.92
220.058	-0.92
220.528	-0.92
220.997	-0.92
221.466	-0.92
221.935	-0.91
222.404	-0.91
222.873	-0.9
223.342	-0.9
223.812	-0.89
224.281	-0.88
224.749	-0.87
225.218	-0.86
225.687	-0.85
226.156	-0.84
226.625	-0.83
227.094	-0.81
227.563	-0.8
228.031	-0.78
228.5	-0.76
228.969	-0.73
229.438	-0.71
229.906	-0.68
230.375	-0.64
230.844	-0.61
231.312	-0.57
231.781	-0.53
232.249	-0.48
232.718	-0.44
233.186	-0.4
233.655	-0.35
234.123	-0.31
234.591	-0.26
235.06	-0.22
235.528	-0.17
235.996	-0.13
236.465	-0.1
236.933	-0.06
237.401	-0.02
237.869	0.01
238.337	0.04
238.805	0.07
239.274	0.1
239.742	0.12
240.21	0.15
240.678	0.17
241.146	0.19
241.614	0.21
242.081	0.23
242.549	0.24
243.017	0.26
243.485	0.27
243.953	0.29
244.421	0.3
244.888	0.31
245.356	0.32
245.824	0.33
246.291	0.34
246.759	0.35
247.227	0.36
247.694	0.37
248.162	0.38
248.629	0.38
249.097	0.39
249.564	0.4
250.032	0.41
250.499	0.41
250.967	0.42
251.434	0.42
251.901	0.43
252.369	0.44
252.836	0.44
253.303	0.44
253.77	0.45
254.237	0.45
254.705	0.46
255.172	0.46
255.639	0.47
256.106	0.47
256.573	0.47
257.04	0.47
257.507	0.48
257.974	0.48
258.441	0.48
258.908	0.48
259.375	0.48
259.841	0.48
260.308	0.49
260.775	0.49
261.242	0.49
261.709	0.49
262.175	0.49
262.642	0.49
263.109	0.49
263.575	0.49
264.042	0.49
264.508	0.49
264.975	0.49
265.441	0.49
265.908	0.49
266.374	0.48
266.841	0.48
267.307	0.48
267.773	0.48
268.24	0.48
268.706	0.48
269.172	0.48
269.639	0.47
270.105	0.47
270.571	0.47
271.037	0.47
271.503	0.46
271.969	0.46
272.435	0.46
272.902	0.46
273.368	0.45
273.834	0.45
274.3	0.45
274.765	0.45
275.231	0.44
275.697	0.44
276.163	0.44
276.629	0.43
277.095	0.43
277.56	0.43
278.026	0.42
278.492	0.42
278.958	0.42
279.423	0.41
279.889	0.41
280.354	0.41
280.82	0.41
281.286	0.4
281.751	0.4
282.217	0.4
282.682	0.39
283.147	0.39
283.613	0.39
284.078	0.39
284.544	0.38
285.009	0.38
285.474	0.38
285.939	0.38
286.405	0.37
286.87	0.37
287.335	0.37
287.8	0.37
288.265	0.37
288.73	0.36
289.195	0.36
289.66	0.36
290.125	0.36
290.59	0.36
291.055	0.35
291.52	0.35
291.985	0.35
292.45	0.35
292.915	0.35
293.38	0.35
293.844	0.34
294.309	0.34
294.774	0.34
295.239	0.34
295.703	0.34
296.168	0.34
296.632	0.34
297.097	0.34
297.562	0.34
298.026	0.34
298.491	0.33
298.955	0.33
299.419	0.33
299.884	0.33
300.348	0.33
300.813	0.33
301.277	0.33
301.741	0.33
302.205	0.33
302.67	0.33
303.134	0.33
303.598	0.33
304.062	0.33
304.526	0.33
304.99	0.33
305.454	0.33
305.919	0.33
306.383	0.33
306.847	0.33
307.31	0.33
307.774	0.33
308.238	0.33
308.702	0.33
309.166	0.32
309.63	0.32
310.094	0.32
310.557	0.32
311.021	0.32
311.485	0.32
311.948	0.32
312.412	0.32
312.876	0.32
313.339	0.32
313.803	0.32
314.266	0.32
314.73	0.32
315.193	0.32
315.657	0.32
316.12	0.32
316.584	0.32
317.047	0.32
317.51	0.32
317.973	0.32
318.437	0.32
318.9	0.32
319.363	0.32
319.826	0.32
320.29	0.32
320.753	0.32
321.216	0.32
321.679	0.32
322.142	0.32
322.605	0.32
323.068	0.32
323.531	0.31
323.994	0.31
324.457	0.31
324.92	0.31
325.382	0.31
325.845	0.31
326.308	0.31
326.771	0.31
327.233	0.31
327.696	0.31
328.159	0.31
328.622	0.31
329.084	0.31
329.547	0.31
330.009	0.31
330.472	0.31
330.934	0.31
331.397	0.31
331.859	0.31
332.322	0.31
332.784	0.31
333.246	0.31
333.709	0.31
334.171	0.31
334.633	0.31
335.096	0.31
335.558	0.31
336.02	0.31
336.482	0.3
336.944	0.3
337.406	0.3
337.868	0.3
338.331	0.3
338.793	0.3
339.255	0.3
339.717	0.3
340.178	0.3
340.64	0.3
341.102	0.3
341.564	0.3
342.026	0.3
342.488	0.3
342.949	0.3
343.411	0.3
343.873	0.3
344.335	0.3
344.796	0.3
345.258	0.3
345.719	0.3
346.181	0.3
346.643	0.3
347.104	0.3
347.566	0.3
348.027	0.3
348.488	0.29
348.95	0.29
349.411	0.29
349.873	0.29
350.334	0.29
350.795	0.29
351.256	0.29
351.718	0.29
352.179	0.29
352.64	0.29
353.101	0.29
353.562	0.29
354.023	0.29
354.484	0.29
354.945	0.29
355.406	0.29
355.867	0.29
356.328	0.29
356.789	0.29
357.25	0.28
357.711	0.28
358.172	0.28
358.633	0.29
359.093	0.29
359.554	0.29
360.015	0.29
360.476	0.29
360.936	0.29
361.397	0.29
361.858	0.29
362.318	0.29
362.779	0.29
363.239	0.29
363.7	0.29
364.16	0.29
364.621	0.29
365.081	0.29
365.541	0.29
366.002	0.29
366.462	0.29
366.922	0.29
367.383	0.29
367.843	0.29
368.303	0.29
368.763	0.29
369.223	0.29
369.684	0.29
370.144	0.29
370.604	0.29
371.064	0.29
371.524	0.29
371.984	0.29
372.444	0.29
372.904	0.29
373.363	0.29
373.823	0.29
374.283	0.29
374.743	0.29
375.203	0.29
375.663	0.29
376.122	0.29
376.582	0.29
377.042	0.29
377.501	0.29
377.961	0.29
378.42	0.29
378.88	0.29
379.34	0.29
379.799	0.29
380.259	0.29
380.718	0.29
381.177	0.29
381.637	0.29
382.096	0.29
382.555	0.29
383.015	0.29
383.474	0.29
383.933	0.29
384.393	0.29
384.852	0.29
385.311	0.29
385.77	0.29
386.229	0.29
386.688	0.29
387.147	0.29
387.606	0.29
388.065	0.29
388.524	0.29
388.983	0.29
389.442	0.29
389.901	0.29
390.36	0.29
390.819	0.29
391.277	0.29
391.736	0.29
392.195	0.29
392.654	0.29
393.112	0.29
393.571	0.29
394.03	0.29
394.488	0.29
394.947	0.29
395.405	0.29
395.864	0.29
396.322	0.29
396.781	0.29
397.239	0.29
397.698	0.29
398.156	0.29
398.614	0.29
399.073	0.29
399.531	0.29
399.989	0.29
400.447	0.29
400.905	0.29
401.364	0.29
401.822	0.29
402.28	0.29
402.738	0.29
403.196	0.29
403.654	0.29
404.112	0.29
404.57	0.29
405.028	0.29
405.486	0.29
405.944	0.29
406.402	0.29
406.859	0.29
407.317	0.29
407.775	0.29
408.233	0.29
408.691	0.29
409.148	0.29
409.606	0.29
410.064	0.29
410.521	0.29
410.979	0.29
411.436	0.29
411.894	0.29
412.351	0.28
412.809	0.28
413.266	0.28
413.724	0.28
414.181	0.28
414.638	0.28
415.096	0.28
415.553	0.28
416.01	0.28
416.467	0.28
416.925	0.28
417.382	0.28
417.839	0.28
418.296	0.28
418.753	0.28
419.21	0.28
419.667	0.28
420.124	0.28
420.581	0.29
421.038	0.29
421.495	0.29
421.952	0.29
422.409	0.29
422.866	0.29
423.322	0.29
423.779	0.28
424.236	0.28
424.693	0.28
425.149	0.28
425.606	0.28
426.063	0.28
426.519	0.28
426.976	0.28
427.433	0.28
427.889	0.28
428.346	0.28
428.802	0.29
429.258	0.29
429.715	0.29
430.171	0.29
430.628	0.29
431.084	0.29
431.54	0.29
431.997	0.28
432.453	0.28
432.909	0.28
433.365	0.28
433.821	0.28
434.277	0.28
434.734	0.28
435.19	0.28
435.646	0.28
436.102	0.28
436.558	0.28
437.014	0.28
437.47	0.28
437.925	0.28
438.381	0.28
438.837	0.28
439.293	0.28
439.749	0.28
440.205	0.28
440.66	0.28
441.116	0.28
441.572	0.28
442.027	0.28
442.483	0.28
442.939	0.28
443.394	0.28
443.85	0.28
444.305	0.28
444.761	0.28
445.216	0.28
445.672	0.28
446.127	0.28
446.582	0.28
447.038	0.28
447.493	0.28
447.948	0.28
448.403	0.28
448.859	0.28
449.314	0.28
449.769	0.28
450.224	0.28
450.679	0.28
451.134	0.28
451.589	0.28
452.044	0.28
452.499	0.28
452.954	0.28
453.409	0.27
453.864	0.27
454.319	0.27
454.774	0.27
455.229	0.27
455.684	0.27
456.138	0.27
456.593	0.27
457.048	0.27
457.503	0.27
457.957	0.27
458.412	0.27
458.866	0.27
459.321	0.27
459.776	0.27
460.23	0.27
460.685	0.27
461.139	0.27
461.593	0.27
462.048	0.27
462.502	0.27
462.957	0.27
463.411	0.27
463.865	0.27
464.319	0.27
464.774	0.27
465.228	0.27
465.682	0.27
466.136	0.27
466.59	0.27
467.044	0.27
467.499	0.27
467.953	0.27
468.407	0.27
468.861	0.26
469.315	0.26
469.768	0.26
470.222	0.26
470.676	0.26
471.13	0.26
471.584	0.26
472.038	0.26
472.491	0.26
472.945	0.26
473.399	0.26
473.852	0.26
474.306	0.26
474.76	0.26
475.213	0.26
475.667	0.26
476.12	0.26
476.574	0.26
477.027	0.26
477.481	0.26
477.934	0.26
478.388	0.26
478.841	0.26
479.294	0.26
479.748	0.26
480.201	0.26
480.654	0.26
481.107	0.26
481.561	0.27
482.014	0.27
482.467	0.27
482.92	0.27
483.373	0.27
483.826	0.27
484.279	0.27
484.732	0.27
485.185	0.27
485.638	0.27
486.091	0.28
486.544	0.28
486.997	0.28
487.449	0.28
487.902	0.28
488.355	0.27
488.808	0.27
489.26	0.27
489.713	0.27
490.166	0.27
490.618	0.27
491.071	0.27
491.523	0.27
491.976	0.27
492.429	0.27
492.881	0.27
493.333	0.27
493.786	0.27
494.238	0.27
494.691	0.28
495.143	0.28
495.595	0.28
496.048	0.28
496.5	0.28
496.952	0.28
497.404	0.28
497.856	0.28
498.309	0.28
498.761	0.28
499.213	0.28
499.665	0.28
500.117	0.28
500.569	0.28
501.021	0.29
501.473	0.29
501.925	0.29
502.377	0.29
502.828	0.29
503.28	0.29
503.732	0.29
504.184	0.29
504.636	0.29
505.087	0.29
505.539	0.29
505.991	0.29
506.442	0.29
506.894	0.29
507.345	0.29
507.797	0.29
508.249	0.29
508.7	0.3
509.151	0.3
509.603	0.3
510.054	0.3
510.506	0.3
510.957	0.3
511.408	0.3
511.86	0.3
512.311	0.3
512.762	0.3
513.213	0.3
513.665	0.3
514.116	0.3
514.567	0.3
515.018	0.3
515.469	0.3
515.92	0.3
516.371	0.3
516.822	0.3
517.273	0.3
517.724	0.3
518.175	0.3
518.626	0.3
519.076	0.3
519.527	0.3
519.978	0.3
520.429	0.3
520.88	0.3
521.33	0.3
521.781	0.29
522.232	0.29
522.682	0.29
523.133	0.3
523.583	0.3
524.034	0.3
524.484	0.3
524.935	0.31
525.385	0.31
525.836	0.31
526.286	0.32
526.736	0.32
527.187	0.32
527.637	0.33
528.087	0.33
528.538	0.33
528.988	0.33
529.438	0.33
529.888	0.33
530.338	0.33
530.788	0.33
531.238	0.34
531.688	0.34
532.139	0.34
532.589	0.34
533.038	0.34
533.488	0.34
533.938	0.34
534.388	0.34
534.838	0.34
535.288	0.34
535.738	0.35
536.187	0.35
536.637	0.35
537.087	0.35
537.537	0.35
537.986	0.35
538.436	0.35
538.885	0.35
539.335	0.35
539.785	0.35
540.234	0.35
540.684	0.35
541.133	0.36
541.582	0.36
542.032	0.36
542.481	0.36
542.931	0.36
543.38	0.36
543.829	0.36
544.278	0.36
544.728	0.36
545.177	0.36
545.626	0.37
546.075	0.37
546.524	0.37
546.973	0.37
547.422	0.37
547.871	0.37
548.32	0.37
548.769	0.37
549.218	0.37
549.667	0.37
550.116	0.37
550.565	0.37
551.014	0.37
551.463	0.37
551.911	0.37
552.36	0.38
552.809	0.38
553.258	0.38
553.706	0.38
554.155	0.38
554.603	0.38
555.052	0.38
555.501	0.38
555.949	0.38
556.398	0.38
556.846	0.38
557.294	0.38
557.743	0.38
558.191	0.38
558.64	0.38
559.088	0.38
559.536	0.38
559.985	0.38
560.433	0.38
560.881	0.39
561.329	0.39
561.777	0.39
562.225	0.39
562.674	0.39
563.122	0.39
563.57	0.39
564.018	0.39
564.466	0.39
564.914	0.39
565.362	0.39
565.809	0.39
566.257	0.39
566.705	0.39
567.153	0.39
567.601	0.4
568.048	0.4
568.496	0.4
568.944	0.41
569.392	0.41
569.839	0.41
570.287	0.41
570.734	0.42
571.182	0.42
571.63	0.42
572.077	0.42
572.525	0.42
572.972	0.42
573.419	0.43
573.867	0.43
574.314	0.43
574.761	0.43
575.209	0.43
575.656	0.43
576.103	0.43
576.551	0.43
576.998	0.43
577.445	0.43
577.892	0.43
578.339	0.43
578.786	0.43
579.233	0.44
579.68	0.44
580.127	0.44
580.574	0.44
581.021	0.44
581.468	0.44
581.915	0.43
582.362	0.43
582.809	0.43
583.255	0.43
583.702	0.43
584.149	0.43
584.596	0.43
585.042	0.43
585.489	0.43
585.936	0.43
586.382	0.43
586.829	0.43
587.275	0.43
587.722	0.42
588.168	0.42
588.615	0.42
589.061	0.42
589.508	0.42
589.954	0.42
590.4	0.42
590.847	0.42
591.293	0.42
591.739	0.42
592.185	0.42
592.632	0.42
593.078	0.42
593.524	0.42
593.97	0.41
594.416	0.41
594.862	0.41
595.308	0.41
595.754	0.41
596.2	0.41
596.646	0.41
597.092	0.41
597.538	0.41
597.984	0.41
598.43	0.41
598.876	0.41
599.321	0.41
599.767	0.41
600.213	0.41
600.659	0.41
601.104	0.41
601.55	0.41
601.995	0.4
602.441	0.4
602.887	0.4
603.332	0.4
603.778	0.4
604.223	0.4
604.668	0.4
605.114	0.4
605.559	0.4
606.005	0.4
606.45	0.4
606.895	0.4
607.341	0.4
607.786	0.4
608.231	0.4
608.676	0.39
609.121	0.39
609.566	0.39
610.012	0.39
610.457	0.38
610.902	0.38
611.347	0.38
611.792	0.38
612.237	0.38
612.682	0.38
613.127	0.38
613.571	0.38
614.016	0.38
614.461	0.38
614.906	0.38
615.351	0.38
615.795	0.37
616.24	0.37
616.685	0.37
617.129	0.37
617.574	0.36
618.019	0.36
618.463	0.36
618.908	0.36
619.352	0.36
619.797	0.36
620.241	0.36
620.686	0.36
621.13	0.36
621.574	0.35
622.019	0.35
622.463	0.35
622.907	0.35
623.352	0.35
623.796	0.35
624.24	0.35
624.684	0.35
625.128	0.35
625.572	0.34
626.016	0.34
626.461	0.34
626.905	0.34
627.349	0.34
627.793	0.34
628.236	0.34
628.68	0.34
629.124	0.34
629.568	0.34
630.012	0.33
630.456	0.33
630.9	0.33
631.343	0.33
631.787	0.33
632.231	0.33
632.674	0.32
633.118	0.32
633.562	0.32
634.005	0.32
634.449	0.32
634.892	0.32
635.336	0.32
635.779	0.32
636.223	0.32
636.666	0.32
637.109	0.32
637.553	0.32
637.996	0.32
638.439	0.32
638.883	0.32
639.326	0.32
639.769	0.32
640.212	0.31
640.655	0.31
641.099	0.31
641.542	0.31
641.985	0.31
642.428	0.31
642.871	0.31
643.314	0.31
643.757	0.31
644.2	0.31
644.643	0.31
645.085	0.31
645.528	0.31
645.971	0.31
646.414	0.31
646.857	0.32
647.299	0.32
647.742	0.32
648.185	0.32
648.627	0.32
649.07	0.32
649.513	0.32
649.955	0.32
650.398	0.32
650.84	0.32
651.283	0.32
651.725	0.32
652.168	0.32
652.61	0.32
653.052	0.33
653.495	0.31
653.937	0.25
654.379	0.2
654.821	0.21
655.264	0.21
655.706	0.21
656.148	0.21
656.59	0.21
657.032	0.21
657.474	0.21
657.916	0.21
658.358	0.21
658.8	0.26
659.242	0.33
659.684	0.33
660.126	0.33
660.568	0.33
661.01	0.33
661.452	0.33
661.894	0.33
662.335	0.33
662.777	0.34
663.219	0.34
663.661	0.34
664.102	0.34
664.544	0.34
664.985	0.34
665.427	0.34
665.869	0.34
666.31	0.34
666.752	0.34
667.193	0.34
667.634	0.35
668.076	0.35
668.517	0.35
668.959	0.35
669.4	0.35
669.841	0.35
670.282	0.36
670.724	0.36
671.165	0.36
671.606	0.36
672.047	0.36
672.488	0.36
672.929	0.36
673.37	0.36
673.811	0.36
674.252	0.36
674.693	0.36
675.134	0.36
675.575	0.36
676.016	0.37
676.457	0.37
676.898	0.37
677.339	0.37
677.78	0.37
678.22	0.37
678.661	0.37
679.102	0.37
679.542	0.37
679.983	0.37
680.424	0.38
680.864	0.38
681.305	0.38
681.745	0.38
682.186	0.38
682.626	0.38
683.067	0.38
683.507	0.38
683.948	0.38
684.388	0.38
684.828	0.38
685.269	0.39
685.709	0.39
686.149	0.39
686.589	0.39
687.029	0.39
687.47	0.39
687.91	0.39
688.35	0.39
688.79	0.39
689.23	0.39
689.67	0.4
690.11	0.4
690.55	0.4
690.99	0.4
691.43	0.4
691.87	0.4
692.31	0.4
692.749	0.4
693.189	0.4
693.629	0.4
694.069	0.4
694.508	0.41
694.948	0.41
695.388	0.41
695.827	0.41
696.267	0.41
696.706	0.41
697.146	0.41
697.586	0.41
698.025	0.41
698.464	0.41
698.904	0.41
699.343	0.41
699.783	0.41
700.222	0.41
700.661	0.41
701.101	0.41
701.54	0.41
701.979	0.41
702.418	0.42
702.857	0.42
703.297	0.42
703.736	0.42
704.175	0.42
704.614	0.42
705.053	0.42
705.492	0.42
705.931	0.42
706.37	0.43
706.809	0.43
707.248	0.43
707.687	0.43
708.125	0.43
708.564	0.43
709.003	0.43
709.442	0.43
709.88	0.43
710.319	0.43
710.758	0.43
711.196	0.43
711.635	0.43
712.074	0.43
712.512	0.43
712.951	0.43
713.389	0.43
713.828	0.43
714.266	0.43
714.705	0.43
715.143	0.43
715.581	0.43
716.02	0.43
716.458	0.43
716.896	0.43
717.334	0.43
717.773	0.43
718.211	0.43
718.649	0.43
719.087	0.43
719.525	0.43
719.963	0.43
720.401	0.43
720.839	0.43
721.277	0.43
721.715	0.43
722.153	0.43
722.591	0.43
723.029	0.43
723.467	0.43
723.905	0.43
724.342	0.43
724.78	0.43
725.218	0.43
725.656	0.43
726.093	0.43
726.531	0.43
726.969	0.43
727.406	0.43
727.844	0.43
728.281	0.43
728.719	0.43
729.156	0.43
729.594	0.44
730.031	0.44
730.469	0.44
730.906	0.44
731.343	0.44
731.781	0.44
732.218	0.44
732.655	0.44
733.092	0.44
733.53	0.44
733.967	0.44
734.404	0.44
734.841	0.44
735.278	0.44
735.715	0.44
736.152	0.44
736.589	0.44
737.026	0.44
737.463	0.44
737.9	0.43
738.337	0.43
738.774	0.43
739.211	0.43
739.647	0.43
740.084	0.43
740.521	0.43
740.958	0.43
741.394	0.43
741.831	0.42
742.268	0.42
742.704	0.42
743.141	0.42
743.577	0.42
744.014	0.42
744.45	0.42
744.887	0.41
745.323	0.41
745.76	0.41
746.196	0.41
746.632	0.41
747.069	0.41
747.505	0.41
747.941	0.41
748.378	0.41
748.814	0.41
749.25	0.41
749.686	0.41
750.122	0.41
750.558	0.41
750.994	0.41
751.43	0.41
751.866	0.41
752.302	0.41
752.738	0.41
753.174	0.41
753.61	0.41
754.046	0.41
754.482	0.41
754.918	0.41
755.354	0.41
755.789	0.42
756.225	0.41
756.661	0.41
757.096	0.41
757.532	0.41
757.968	0.41
758.403	0.41
758.839	0.41
759.274	0.41
759.71	0.41
760.145	0.41
760.581	0.4
761.016	0.4
761.452	0.4
761.887	0.4
762.322	0.4
762.758	0.4
763.193	0.39
763.628	0.39
764.063	0.39
764.499	0.38
764.934	0.38
765.369	0.38
765.804	0.37
766.239	0.37
766.674	0.37
767.109	0.37
767.544	0.36
767.979	0.36
768.414	0.35
768.849	0.35
769.284	0.35
769.719	0.35
770.154	0.34
770.588	0.34
771.023	0.33
771.458	0.33
771.893	0.33
772.327	0.32
772.762	0.32
773.197	0.31
773.631	0.31
774.066	0.3
774.5	0.3
774.935	0.29
775.369	0.29
775.804	0.28
776.238	0.28
776.673	0.27
777.107	0.27
777.541	0.26
777.976	0.25
778.41	0.24
778.844	0.24
779.279	0.23
779.713	0.23
780.147	0.22
780.581	0.21
781.015	0.2
781.449	0.19
781.883	0.18
782.317	0.16
782.751	0.15
783.185	0.14
783.619	0.12
784.053	0.11
784.487	0.09
784.921	0.07
785.355	0.06
785.789	0.04
786.223	0.03
786.656	0.02
787.09	0.01
787.524	-0.01
787.957	-0.02
788.391	-0.03
788.825	-0.04
789.258	-0.04
789.692	-0.05
790.125	-0.05
790.559	-0.06
790.992	-0.06
791.426	-0.06
791.859	-0.06
792.293	-0.05
792.726	-0.04
793.159	-0.04
793.593	-0.04
794.026	-0.04
794.459	-0.04
794.892	-0.05
795.326	-0.05
795.759	-0.05
796.192	-0.05
796.625	-0.06
797.058	-0.07
797.491	-0.07
797.924	-0.08
798.357	-0.08
798.79	-0.08
799.223	-0.08
799.656	-0.08
800.089	-0.08
800.522	-0.09
800.955	-0.09
801.387	-0.09
801.82	-0.09
802.253	-0.09
802.686	-0.09
803.118	-0.09
803.551	-0.09
803.984	-0.08
804.416	-0.08
804.849	-0.07
805.281	-0.07
805.714	-0.07
806.146	-0.07
806.579	-0.07
807.011	-0.07
807.444	-0.07
807.876	-0.07
808.308	-0.07
808.741	-0.07
809.173	-0.08
809.605	-0.08
810.037	-0.08
810.47	-0.08
810.902	-0.09
811.334	-0.09
811.766	-0.08
812.198	-0.08
812.63	-0.08
813.062	-0.08
813.494	-0.08
813.926	-0.08
814.358	-0.08
814.79	-0.08
815.222	-0.07
815.654	-0.07
816.086	-0.07
816.518	-0.08
816.949	-0.08
817.381	-0.07
817.813	-0.06
818.245	-0.05
818.676	-0.04
819.108	-0.02
819.54	-0.01
819.971	0.01
820.403	0.02
820.834	0.04
821.266	0.06
821.697	0.08
822.129	0.1
822.56	0.12
822.991	0.13
823.423	0.14
823.854	0.15
824.286	0.17
824.717	0.18
825.148	0.2
825.579	0.21
826.01	0.22
826.442	0.23
826.873	0.24
827.304	0.25
827.735	0.25
828.166	0.26
828.597	0.27
829.028	0.27
829.459	0.28
829.89	0.28
830.321	0.29
830.752	0.29
831.183	0.3
831.613	0.3
832.044	0.3
832.475	0.31
832.906	0.31
833.336	0.32
833.767	0.32
834.198	0.32
834.628	0.32
835.059	0.33
835.49	0.33
835.92	0.33
836.351	0.33
836.781	0.33
837.212	0.34
837.642	0.34
838.072	0.34
838.503	0.34
838.933	0.34
839.364	0.34
839.794	0.34
840.224	0.34
840.654	0.35
841.085	0.35
841.515	0.35
841.945	0.35
842.375	0.35
842.805	0.35
843.235	0.35
843.665	0.35
844.095	0.35
844.525	0.35
844.955	0.35
845.385	0.35
845.815	0.35
846.245	0.35
846.675	0.35
847.105	0.35
847.534	0.35
847.964	0.36
848.394	0.36
848.824	0.36
849.253	0.36
849.683	0.36
850.112	0.36
850.542	0.36
850.972	0.36
851.401	0.36
851.831	0.36
852.26	0.36
852.69	0.36
853.119	0.36
853.548	0.36
853.978	0.36
854.407	0.36
854.836	0.36
855.266	0.36
855.695	0.36
856.124	0.36
856.553	0.36
856.983	0.36
857.412	0.36
857.841	0.35
858.27	0.35
858.699	0.35
859.128	0.35
859.557	0.35
859.986	0.35
860.415	0.35
860.844	0.35
861.273	0.35
861.702	0.35
862.13	0.35
862.559	0.35
862.988	0.35
863.417	0.35
863.845	0.35
864.274	0.35
864.703	0.35
865.131	0.35
865.56	0.35
865.989	0.35
866.417	0.35
866.846	0.35
867.274	0.35
867.703	0.35
868.131	0.35
868.559	0.35
868.988	0.35
869.416	0.35
869.844	0.35
870.273	0.35
870.701	0.35
871.129	0.35
871.557	0.34
871.986	0.34
872.414	0.34
872.842	0.34
873.27	0.34
873.698	0.34
874.126	0.34
874.554	0.34
874.982	0.34
875.41	0.34
875.838	0.34
876.266	0.34
876.694	0.34
877.122	0.34
877.549	0.34
877.977	0.34
878.405	0.34
878.833	0.34
879.26	0.34
879.688	0.34
880.116	0.34
880.543	0.34
880.971	0.34
881.399	0.34
881.826	0.34
882.254	0.34
882.681	0.34
883.109	0.34
883.536	0.34
883.963	0.34
884.391	0.34
884.818	0.34
885.245	0.34
885.673	0.34
886.1	0.34
886.527	0.34
886.954	0.34
887.381	0.34
887.809	0.34
888.236	0.34
888.663	0.33
889.09	0.33
889.517	0.33
889.944	0.33
890.371	0.33
890.798	0.33
891.225	0.33
891.652	0.33
892.078	0.33
892.505	0.33
892.932	0.33
893.359	0.33
893.786	0.33
894.212	0.33
894.639	0.33
895.066	0.33
895.492	0.33
895.919	0.33
896.346	0.33
896.772	0.33
897.199	0.33
897.625	0.33
898.052	0.32
898.478	0.32
898.904	0.32
899.331	0.32
899.757	0.32
900.183	0.32
900.61	0.32
901.036	0.32
901.462	0.32
901.888	0.32
902.315	0.32
902.741	0.32
903.167	0.32
903.593	0.32
904.019	0.32
904.445	0.32
904.871	0.32
905.297	0.32
905.723	0.32
906.149	0.31
906.575	0.31
907.001	0.31
907.427	0.31
907.852	0.31
908.278	0.31
908.704	0.31
909.13	0.31
909.555	0.31
909.981	0.31
910.407	0.31
910.832	0.31
911.258	0.31
911.684	0.31
912.109	0.31
912.535	0.31
912.96	0.31
913.386	0.31
913.811	0.31
914.236	0.31
914.662	0.31
915.087	0.31
915.512	0.31
915.938	0.31
916.363	0.31
916.788	0.31
917.213	0.31
917.639	0.31
918.064	0.31
918.489	0.31
918.914	0.31
919.339	0.31
919.764	0.31
920.189	0.31
920.614	0.31
921.039	0.31
921.464	0.3
921.889	0.3
922.314	0.3
922.738	0.3
923.163	0.3
923.588	0.3
924.013	0.3
924.437	0.3
924.862	0.3
925.287	0.3
925.711	0.3
926.136	0.3
926.561	0.3
926.985	0.3
927.41	0.3
927.834	0.3
928.259	0.3
928.683	0.3
929.108	0.3
929.532	0.3
929.956	0.3
930.381	0.3
930.805	0.3
931.229	0.3
931.653	0.29
932.078	0.29
932.502	0.29
932.926	0.29
933.35	0.29
933.774	0.29
934.198	0.29
934.622	0.28
935.046	0.28
935.47	0.28
935.894	0.28
936.318	0.28
936.742	0.28
937.166	0.28
937.59	0.28
938.014	0.28
938.437	0.28
938.861	0.28
939.285	0.28
939.709	0.28
940.132	0.28
940.556	0.28
940.98	0.28
941.403	0.29
941.827	0.29
942.25	0.29
942.674	0.29
943.097	0.28
943.521	0.28
943.944	0.28
944.368	0.28
944.791	0.28
945.214	0.28
945.638	0.28
946.061	0.28
946.484	0.28
946.907	0.28
947.331	0.28
947.754	0.28
948.177	0.28
948.6	0.28
949.023	0.28
949.446	0.28
949.869	0.28
950.292	0.28
950.715	0.27
951.138	0.27
951.561	0.27
951.984	0.27
952.407	0.27
952.83	0.27
953.252	0.27
953.675	0.26
954.098	0.26
954.521	0.26
954.943	0.26
955.366	0.26
955.789	0.26
956.211	0.26
956.634	0.26
957.056	0.26
957.479	0.26
957.902	0.26
958.324	0.26
958.746	0.26
959.169	0.26
959.591	0.26
960.014	0.26
960.436	0.26
960.858	0.26
961.281	0.26
961.703	0.26
962.125	0.26
962.547	0.26
962.969	0.26
963.391	0.26
963.814	0.26
964.236	0.26
964.658	0.26
965.08	0.26
965.502	0.26
965.924	0.26
966.346	0.26
966.768	0.26
967.189	0.26
967.611	0.26
968.033	0.26
968.455	0.26
968.877	0.26
969.298	0.26
969.72	0.26
970.142	0.25
970.563	0.25
970.985	0.25
971.407	0.25
971.828	0.25
972.25	0.25
972.671	0.25
973.093	0.25
973.514	0.25
973.936	0.25
974.357	0.25
974.778	0.25
975.2	0.25
975.621	0.25
976.042	0.25
976.464	0.25
976.885	0.25
977.306	0.25
977.727	0.25
978.148	0.25
978.57	0.25
978.991	0.25
979.412	0.25
979.833	0.25
980.254	0.25
980.675	0.25
981.096	0.25
981.517	0.25
981.937	0.24
982.358	0.24
982.779	0.24
983.2	0.24
983.621	0.24
984.042	0.24
984.462	0.24
984.883	0.24
985.304	0.24
985.724	0.24
986.145	0.24
986.565	0.24
986.986	0.24
987.407	0.24
987.827	0.24
988.248	0.24
988.668	0.24
989.088	0.24
989.509	0.24
989.929	0.24
990.35	0.24
990.77	0.24
991.19	0.24
991.61	0.24
992.031	0.24
992.451	0.24
992.871	0.24
993.291	0.23
993.711	0.23
994.131	0.23
994.551	0.23
994.971	0.23
995.391	0.23
995.811	0.23
996.231	0.23
996.651	0.23
997.071	0.23
997.491	0.23
997.911	0.23
998.331	0.23
998.75	0.23
999.17	0.23
999.59	0.23
1000.009	0.23
1000.429	0.23
1000.849	0.23
1001.268	0.23
1001.688	0.23
1002.107	0.23
1002.527	0.23
1002.946	0.23
1003.366	0.23
1003.785	0.23
1004.205	0.23
1004.624	0.23
1005.044	0.23
1005.463	0.23
1005.882	0.23
1006.301	0.23
1006.721	0.23
1007.14	0.23
1007.559	0.23
1007.978	0.23
1008.397	0.23
1008.816	0.23
1009.235	0.23
1009.655	0.23
1010.074	0.23
1010.492	0.23
1010.911	0.23
1011.33	0.23
1011.749	0.23
1012.168	0.23
1012.587	0.23
1013.006	0.22
1013.425	0.22
1013.843	0.22
1014.262	0.22
1014.681	0.22
1015.099	0.22
1015.518	0.22
1015.937	0.22
1016.355	0.22
1016.774	0.22
1017.192	0.22
1017.611	0.22
1018.029	0.22
1018.448	0.22
1018.866	0.22
1019.285	0.22
1019.703	0.22
1020.121	0.22
1020.54	0.22
1020.958	0.22
1021.376	0.22
1021.794	0.22
1022.213	0.22
1022.631	0.22
1023.049	0.22
1023.467	0.22
1023.885	0.22
1024.303	0.22
1024.721	0.22
1025.139	0.22
1025.557	0.22
1025.975	0.22
1026.393	0.22
1026.811	0.22
1027.229	0.23
1027.647	0.23
1028.065	0.23
1028.482	0.23
1028.9	0.23
1029.318	0.23
1029.735	0.23
1030.153	0.23
1030.571	0.23
1030.988	0.23
1031.406	0.23
1031.823	0.23
1032.241	0.23
1032.659	0.23
1033.076	0.23
1033.493	0.23
1033.911	0.23
1034.328	0.23
1034.746	0.23
1035.163	0.23
1035.58	0.22
1035.997	0.22
1036.415	0.22
1036.832	0.22
1037.249	0.22
1037.666	0.22
1038.083	0.22
1038.501	0.22
1038.918	0.22
1039.335	0.22
1039.752	0.22
1040.169	0.22
1040.586	0.22
1041.003	0.22
1041.419	0.22
1041.836	0.22
1042.253	0.22
1042.67	0.22
1043.087	0.22
1043.504	0.22
1043.92	0.22
1044.337	0.21
1044.754	0.21
1045.17	0.21
1045.587	0.21
1046.004	0.21
1046.42	0.21
1046.837	0.21
1047.253	0.21
1047.67	0.21
1048.086	0.21
1048.503	0.21
1048.919	0.21
1049.335	0.21
1049.752	0.21
1050.168	0.21
1050.584	0.2
1051.001	0.2
1051.417	0.2
1051.833	0.2
1052.249	0.2
1052.665	0.2
1053.081	0.2
1053.497	0.2
1053.914	0.21
1054.33	0.21
1054.746	0.21
1055.162	0.21
1055.578	0.21
1055.993	0.21
1056.409	0.21
1056.825	0.21
1057.241	0.21
1057.657	0.21
1058.073	0.21
1058.488	0.21
1058.904	0.21
1059.32	0.21
1059.736	0.21
1060.151	0.21
1060.567	0.21
1060.982	0.21
1061.398	0.21
1061.813	0.21
1062.229	0.21
1062.644	0.21
1063.06	0.21
1063.475	0.21
1063.891	0.21
1064.306	0.21
1064.721	0.21
1065.137	0.21
1065.552	0.21
1065.967	0.21
1066.382	0.2
1066.798	0.21
1067.213	0.21
1067.628	0.21
1068.043	0.21
1068.458	0.21
1068.873	0.21
1069.288	0.21
1069.703	0.21
1070.118	0.21
1070.533	0.21
1070.948	0.21
1071.363	0.21
1071.778	0.21
1072.193	0.21
1072.607	0.21
1073.022	0.21
1073.437	0.21
1073.852	0.21
1074.266	0.21
1074.681	0.21
1075.096	0.21
1075.51	0.21
1075.925	0.21
1076.339	0.21
1076.754	0.21
1077.168	0.21
1077.583	0.21
1077.997	0.21
1078.412	0.22
1078.826	0.22
1079.24	0.22
1079.655	0.22
1080.069	0.22
1080.483	0.22
1080.897	0.22
1081.312	0.22
1081.726	0.22
1082.14	0.23
1082.554	0.23
1082.968	0.23
1083.382	0.23
1083.796	0.23
1084.21	0.23
1084.624	0.24
1085.038	0.24
1085.452	0.24
1085.866	0.24
1086.28	0.24
1086.694	0.24
1087.108	0.25
1087.521	0.25
1087.935	0.25
1088.349	0.25
1088.763	0.25
1089.176	0.25
1089.59	0.26
1090.004	0.26
1090.417	0.26
1090.831	0.27
1091.244	0.27
1091.658	0.27
1092.071	0.28
1092.485	0.28
1092.898	0.29
1093.312	0.29
1093.725	0.3
1094.138	0.3
1094.552	0.31
1094.965	0.32
1095.378	0.32
1095.791	0.33
1096.205	0.34
1096.618	0.35
1097.031	0.35
1097.444	0.36
1097.857	0.37
1098.27	0.38
1098.683	0.39
1099.096	0.41
1099.509	0.42
1099.922	0.44
1100.335	0.45
1100.748	0.47
1101.161	0.49
1101.574	0.51
1101.986	0.54
1102.399	0.57
1102.812	0.6
1103.225	0.64
1103.637	0.69
1104.05	0.74
1104.463	0.8
1104.875	0.88
1105.288	0.97
1105.7	1.1
1106.113	1.3
1106.525	1.75
1106.938	-0
1107.35	-0
1107.763	-0
1108.175	-0
1108.588	-0
1109	-0
1109.412	-0
1109.824	-0
1110.237	-0
1110.649	-0
1111.061	-0
