Data from unagg-15c-2a-1h_Absorbance__1019__01446.txt Node

Date: Mon May 06 10:06:42 CEST 2024
User: Laser008
Spectrometer: MAYP115816
Trigger mode: 0
Integration Time (sec): 2.000000E-1
Scans to average: 10
Electric dark correction enabled: true
Nonlinearity correction enabled: true
Boxcar width: 5
XAxis mode: Wavelengths
Number of Pixels in Spectrum: 2068
>>>>>Begin Spectral Data<<<<<
198.914	-1.8
199.384	-1.66
199.855	-1.51
200.325	-1.39
200.796	-1.31
201.266	-1.26
201.737	-1.19
202.207	-1.13
202.677	-1.08
203.147	-1.04
203.618	-1.01
204.088	-0.99
204.558	-0.97
205.028	-0.96
205.498	-0.95
205.968	-0.95
206.439	-0.95
206.909	-0.94
207.379	-0.94
207.849	-0.94
208.319	-0.94
208.789	-0.93
209.258	-0.93
209.728	-0.93
210.198	-0.93
210.668	-0.93
211.138	-0.93
211.608	-0.93
212.077	-0.93
212.547	-0.93
213.017	-0.92
213.486	-0.92
213.956	-0.92
214.426	-0.92
214.895	-0.92
215.365	-0.92
215.834	-0.92
216.304	-0.92
216.773	-0.91
217.243	-0.91
217.712	-0.91
218.181	-0.91
218.651	-0.91
219.12	-0.9
219.589	-0.9
220.058	-0.9
220.528	-0.9
220.997	-0.9
221.466	-0.89
221.935	-0.89
222.404	-0.89
222.873	-0.88
223.342	-0.88
223.812	-0.87
224.281	-0.86
224.749	-0.85
225.218	-0.84
225.687	-0.83
226.156	-0.82
226.625	-0.81
227.094	-0.79
227.563	-0.77
228.031	-0.76
228.5	-0.73
228.969	-0.71
229.438	-0.68
229.906	-0.66
230.375	-0.62
230.844	-0.59
231.312	-0.55
231.781	-0.51
232.249	-0.47
232.718	-0.42
233.186	-0.38
233.655	-0.34
234.123	-0.29
234.591	-0.25
235.06	-0.21
235.528	-0.17
235.996	-0.13
236.465	-0.09
236.933	-0.06
237.401	-0.03
237.869	0.01
238.337	0.03
238.805	0.06
239.274	0.09
239.742	0.11
240.21	0.13
240.678	0.15
241.146	0.17
241.614	0.19
242.081	0.2
242.549	0.22
243.017	0.23
243.485	0.25
243.953	0.26
244.421	0.27
244.888	0.28
245.356	0.29
245.824	0.3
246.291	0.31
246.759	0.32
247.227	0.33
247.694	0.33
248.162	0.34
248.629	0.35
249.097	0.36
249.564	0.36
250.032	0.37
250.499	0.38
250.967	0.38
251.434	0.39
251.901	0.39
252.369	0.4
252.836	0.4
253.303	0.41
253.77	0.41
254.237	0.41
254.705	0.42
255.172	0.42
255.639	0.43
256.106	0.43
256.573	0.43
257.04	0.43
257.507	0.44
257.974	0.44
258.441	0.44
258.908	0.44
259.375	0.44
259.841	0.44
260.308	0.44
260.775	0.45
261.242	0.45
261.709	0.45
262.175	0.45
262.642	0.45
263.109	0.45
263.575	0.45
264.042	0.44
264.508	0.44
264.975	0.44
265.441	0.44
265.908	0.44
266.374	0.44
266.841	0.44
267.307	0.44
267.773	0.44
268.24	0.43
268.706	0.43
269.172	0.43
269.639	0.43
270.105	0.42
270.571	0.42
271.037	0.42
271.503	0.42
271.969	0.41
272.435	0.41
272.902	0.41
273.368	0.41
273.834	0.4
274.3	0.4
274.765	0.4
275.231	0.39
275.697	0.39
276.163	0.39
276.629	0.38
277.095	0.38
277.56	0.38
278.026	0.37
278.492	0.37
278.958	0.37
279.423	0.36
279.889	0.36
280.354	0.36
280.82	0.35
281.286	0.35
281.751	0.35
282.217	0.34
282.682	0.34
283.147	0.34
283.613	0.34
284.078	0.33
284.544	0.33
285.009	0.33
285.474	0.33
285.939	0.32
286.405	0.32
286.87	0.32
287.335	0.32
287.8	0.31
288.265	0.31
288.73	0.31
289.195	0.31
289.66	0.3
290.125	0.3
290.59	0.3
291.055	0.3
291.52	0.3
291.985	0.29
292.45	0.29
292.915	0.29
293.38	0.29
293.844	0.29
294.309	0.29
294.774	0.29
295.239	0.28
295.703	0.28
296.168	0.28
296.632	0.28
297.097	0.28
297.562	0.28
298.026	0.28
298.491	0.28
298.955	0.28
299.419	0.28
299.884	0.28
300.348	0.27
300.813	0.27
301.277	0.27
301.741	0.27
302.205	0.27
302.67	0.27
303.134	0.27
303.598	0.27
304.062	0.27
304.526	0.27
304.99	0.27
305.454	0.27
305.919	0.27
306.383	0.27
306.847	0.27
307.31	0.27
307.774	0.27
308.238	0.27
308.702	0.27
309.166	0.27
309.63	0.27
310.094	0.27
310.557	0.27
311.021	0.27
311.485	0.27
311.948	0.27
312.412	0.27
312.876	0.27
313.339	0.27
313.803	0.27
314.266	0.27
314.73	0.27
315.193	0.27
315.657	0.26
316.12	0.26
316.584	0.26
317.047	0.26
317.51	0.26
317.973	0.26
318.437	0.26
318.9	0.26
319.363	0.26
319.826	0.26
320.29	0.26
320.753	0.26
321.216	0.26
321.679	0.26
322.142	0.26
322.605	0.26
323.068	0.26
323.531	0.26
323.994	0.26
324.457	0.26
324.92	0.26
325.382	0.26
325.845	0.26
326.308	0.26
326.771	0.26
327.233	0.26
327.696	0.26
328.159	0.26
328.622	0.26
329.084	0.26
329.547	0.26
330.009	0.26
330.472	0.26
330.934	0.26
331.397	0.25
331.859	0.25
332.322	0.25
332.784	0.25
333.246	0.25
333.709	0.25
334.171	0.25
334.633	0.25
335.096	0.25
335.558	0.25
336.02	0.25
336.482	0.25
336.944	0.25
337.406	0.25
337.868	0.25
338.331	0.25
338.793	0.25
339.255	0.25
339.717	0.25
340.178	0.25
340.64	0.25
341.102	0.25
341.564	0.25
342.026	0.25
342.488	0.25
342.949	0.25
343.411	0.25
343.873	0.25
344.335	0.25
344.796	0.24
345.258	0.24
345.719	0.24
346.181	0.24
346.643	0.24
347.104	0.24
347.566	0.24
348.027	0.24
348.488	0.24
348.95	0.24
349.411	0.24
349.873	0.24
350.334	0.24
350.795	0.24
351.256	0.24
351.718	0.24
352.179	0.24
352.64	0.24
353.101	0.24
353.562	0.24
354.023	0.24
354.484	0.24
354.945	0.24
355.406	0.24
355.867	0.23
356.328	0.23
356.789	0.23
357.25	0.23
357.711	0.23
358.172	0.23
358.633	0.23
359.093	0.23
359.554	0.24
360.015	0.24
360.476	0.24
360.936	0.24
361.397	0.24
361.858	0.24
362.318	0.24
362.779	0.24
363.239	0.24
363.7	0.24
364.16	0.24
364.621	0.24
365.081	0.24
365.541	0.24
366.002	0.24
366.462	0.24
366.922	0.24
367.383	0.24
367.843	0.24
368.303	0.24
368.763	0.24
369.223	0.24
369.684	0.24
370.144	0.24
370.604	0.24
371.064	0.24
371.524	0.24
371.984	0.24
372.444	0.24
372.904	0.24
373.363	0.24
373.823	0.24
374.283	0.24
374.743	0.24
375.203	0.24
375.663	0.24
376.122	0.24
376.582	0.24
377.042	0.24
377.501	0.24
377.961	0.24
378.42	0.24
378.88	0.24
379.34	0.24
379.799	0.24
380.259	0.24
380.718	0.24
381.177	0.24
381.637	0.24
382.096	0.24
382.555	0.24
383.015	0.24
383.474	0.24
383.933	0.24
384.393	0.24
384.852	0.24
385.311	0.24
385.77	0.24
386.229	0.24
386.688	0.24
387.147	0.24
387.606	0.24
388.065	0.24
388.524	0.24
388.983	0.24
389.442	0.24
389.901	0.24
390.36	0.24
390.819	0.24
391.277	0.24
391.736	0.24
392.195	0.24
392.654	0.24
393.112	0.24
393.571	0.24
394.03	0.24
394.488	0.24
394.947	0.24
395.405	0.24
395.864	0.24
396.322	0.24
396.781	0.24
397.239	0.24
397.698	0.24
398.156	0.24
398.614	0.24
399.073	0.24
399.531	0.24
399.989	0.24
400.447	0.24
400.905	0.24
401.364	0.24
401.822	0.24
402.28	0.24
402.738	0.24
403.196	0.24
403.654	0.24
404.112	0.24
404.57	0.24
405.028	0.24
405.486	0.24
405.944	0.24
406.402	0.24
406.859	0.24
407.317	0.24
407.775	0.24
408.233	0.24
408.691	0.24
409.148	0.24
409.606	0.24
410.064	0.24
410.521	0.24
410.979	0.24
411.436	0.24
411.894	0.24
412.351	0.24
412.809	0.24
413.266	0.24
413.724	0.24
414.181	0.24
414.638	0.24
415.096	0.24
415.553	0.23
416.01	0.23
416.467	0.23
416.925	0.23
417.382	0.23
417.839	0.23
418.296	0.23
418.753	0.23
419.21	0.23
419.667	0.24
420.124	0.24
420.581	0.24
421.038	0.24
421.495	0.24
421.952	0.24
422.409	0.24
422.866	0.24
423.322	0.24
423.779	0.24
424.236	0.24
424.693	0.23
425.149	0.23
425.606	0.23
426.063	0.23
426.519	0.23
426.976	0.23
427.433	0.23
427.889	0.23
428.346	0.24
428.802	0.24
429.258	0.24
429.715	0.24
430.171	0.24
430.628	0.24
431.084	0.24
431.54	0.24
431.997	0.24
432.453	0.24
432.909	0.23
433.365	0.23
433.821	0.23
434.277	0.23
434.734	0.23
435.19	0.23
435.646	0.23
436.102	0.23
436.558	0.23
437.014	0.23
437.47	0.23
437.925	0.23
438.381	0.23
438.837	0.23
439.293	0.23
439.749	0.23
440.205	0.23
440.66	0.23
441.116	0.23
441.572	0.23
442.027	0.23
442.483	0.23
442.939	0.23
443.394	0.23
443.85	0.23
444.305	0.23
444.761	0.23
445.216	0.23
445.672	0.23
446.127	0.23
446.582	0.23
447.038	0.23
447.493	0.23
447.948	0.23
448.403	0.23
448.859	0.23
449.314	0.23
449.769	0.23
450.224	0.23
450.679	0.23
451.134	0.23
451.589	0.23
452.044	0.23
452.499	0.23
452.954	0.23
453.409	0.23
453.864	0.23
454.319	0.23
454.774	0.23
455.229	0.23
455.684	0.23
456.138	0.23
456.593	0.23
457.048	0.23
457.503	0.23
457.957	0.23
458.412	0.23
458.866	0.23
459.321	0.23
459.776	0.23
460.23	0.23
460.685	0.22
461.139	0.22
461.593	0.22
462.048	0.22
462.502	0.22
462.957	0.22
463.411	0.22
463.865	0.22
464.319	0.22
464.774	0.22
465.228	0.22
465.682	0.22
466.136	0.22
466.59	0.22
467.044	0.22
467.499	0.22
467.953	0.22
468.407	0.22
468.861	0.22
469.315	0.22
469.768	0.22
470.222	0.22
470.676	0.22
471.13	0.22
471.584	0.22
472.038	0.22
472.491	0.22
472.945	0.22
473.399	0.22
473.852	0.22
474.306	0.22
474.76	0.22
475.213	0.22
475.667	0.22
476.12	0.22
476.574	0.22
477.027	0.22
477.481	0.22
477.934	0.22
478.388	0.22
478.841	0.22
479.294	0.22
479.748	0.22
480.201	0.22
480.654	0.22
481.107	0.22
481.561	0.22
482.014	0.22
482.467	0.22
482.92	0.22
483.373	0.23
483.826	0.23
484.279	0.23
484.732	0.23
485.185	0.23
485.638	0.23
486.091	0.23
486.544	0.23
486.997	0.23
487.449	0.23
487.902	0.23
488.355	0.23
488.808	0.23
489.26	0.23
489.713	0.23
490.166	0.23
490.618	0.23
491.071	0.23
491.523	0.23
491.976	0.23
492.429	0.23
492.881	0.23
493.333	0.23
493.786	0.23
494.238	0.23
494.691	0.23
495.143	0.23
495.595	0.23
496.048	0.23
496.5	0.23
496.952	0.23
497.404	0.23
497.856	0.23
498.309	0.24
498.761	0.24
499.213	0.24
499.665	0.24
500.117	0.24
500.569	0.24
501.021	0.24
501.473	0.24
501.925	0.24
502.377	0.24
502.828	0.24
503.28	0.24
503.732	0.24
504.184	0.24
504.636	0.24
505.087	0.24
505.539	0.25
505.991	0.25
506.442	0.25
506.894	0.25
507.345	0.25
507.797	0.25
508.249	0.25
508.7	0.25
509.151	0.25
509.603	0.25
510.054	0.25
510.506	0.25
510.957	0.25
511.408	0.25
511.86	0.25
512.311	0.25
512.762	0.25
513.213	0.25
513.665	0.25
514.116	0.25
514.567	0.25
515.018	0.25
515.469	0.25
515.92	0.25
516.371	0.25
516.822	0.25
517.273	0.25
517.724	0.25
518.175	0.25
518.626	0.25
519.076	0.25
519.527	0.25
519.978	0.25
520.429	0.25
520.88	0.25
521.33	0.25
521.781	0.25
522.232	0.25
522.682	0.25
523.133	0.25
523.583	0.25
524.034	0.25
524.484	0.26
524.935	0.26
525.385	0.26
525.836	0.26
526.286	0.27
526.736	0.27
527.187	0.27
527.637	0.27
528.087	0.27
528.538	0.28
528.988	0.28
529.438	0.28
529.888	0.28
530.338	0.28
530.788	0.28
531.238	0.28
531.688	0.28
532.139	0.28
532.589	0.28
533.038	0.28
533.488	0.29
533.938	0.29
534.388	0.29
534.838	0.29
535.288	0.29
535.738	0.29
536.187	0.29
536.637	0.29
537.087	0.29
537.537	0.29
537.986	0.29
538.436	0.29
538.885	0.3
539.335	0.3
539.785	0.3
540.234	0.3
540.684	0.3
541.133	0.3
541.582	0.3
542.032	0.3
542.481	0.3
542.931	0.3
543.38	0.3
543.829	0.3
544.278	0.3
544.728	0.31
545.177	0.31
545.626	0.31
546.075	0.31
546.524	0.31
546.973	0.31
547.422	0.31
547.871	0.31
548.32	0.31
548.769	0.31
549.218	0.31
549.667	0.31
550.116	0.31
550.565	0.31
551.014	0.31
551.463	0.31
551.911	0.31
552.36	0.32
552.809	0.32
553.258	0.32
553.706	0.32
554.155	0.32
554.603	0.32
555.052	0.32
555.501	0.32
555.949	0.32
556.398	0.32
556.846	0.32
557.294	0.32
557.743	0.32
558.191	0.32
558.64	0.32
559.088	0.32
559.536	0.32
559.985	0.32
560.433	0.32
560.881	0.33
561.329	0.33
561.777	0.33
562.225	0.33
562.674	0.33
563.122	0.33
563.57	0.33
564.018	0.33
564.466	0.33
564.914	0.33
565.362	0.33
565.809	0.33
566.257	0.33
566.705	0.33
567.153	0.33
567.601	0.33
568.048	0.34
568.496	0.34
568.944	0.34
569.392	0.34
569.839	0.35
570.287	0.35
570.734	0.35
571.182	0.35
571.63	0.35
572.077	0.35
572.525	0.35
572.972	0.36
573.419	0.36
573.867	0.36
574.314	0.36
574.761	0.36
575.209	0.36
575.656	0.36
576.103	0.36
576.551	0.36
576.998	0.36
577.445	0.36
577.892	0.36
578.339	0.36
578.786	0.37
579.233	0.37
579.68	0.37
580.127	0.37
580.574	0.37
581.021	0.37
581.468	0.36
581.915	0.36
582.362	0.36
582.809	0.37
583.255	0.36
583.702	0.36
584.149	0.36
584.596	0.36
585.042	0.36
585.489	0.36
585.936	0.36
586.382	0.36
586.829	0.36
587.275	0.36
587.722	0.36
588.168	0.36
588.615	0.35
589.061	0.35
589.508	0.35
589.954	0.35
590.4	0.35
590.847	0.35
591.293	0.35
591.739	0.35
592.185	0.35
592.632	0.35
593.078	0.35
593.524	0.35
593.97	0.35
594.416	0.35
594.862	0.35
595.308	0.35
595.754	0.34
596.2	0.34
596.646	0.35
597.092	0.35
597.538	0.35
597.984	0.35
598.43	0.35
598.876	0.35
599.321	0.35
599.767	0.35
600.213	0.35
600.659	0.34
601.104	0.34
601.55	0.34
601.995	0.34
602.441	0.34
602.887	0.34
603.332	0.34
603.778	0.34
604.223	0.34
604.668	0.34
605.114	0.34
605.559	0.34
606.005	0.34
606.45	0.34
606.895	0.34
607.341	0.34
607.786	0.34
608.231	0.33
608.676	0.33
609.121	0.33
609.566	0.33
610.012	0.33
610.457	0.33
610.902	0.32
611.347	0.32
611.792	0.32
612.237	0.32
612.682	0.32
613.127	0.32
613.571	0.32
614.016	0.32
614.461	0.32
614.906	0.32
615.351	0.32
615.795	0.31
616.24	0.31
616.685	0.31
617.129	0.31
617.574	0.31
618.019	0.3
618.463	0.3
618.908	0.3
619.352	0.3
619.797	0.3
620.241	0.3
620.686	0.3
621.13	0.3
621.574	0.3
622.019	0.3
622.463	0.3
622.907	0.3
623.352	0.3
623.796	0.3
624.24	0.3
624.684	0.29
625.128	0.29
625.572	0.29
626.016	0.29
626.461	0.29
626.905	0.29
627.349	0.29
627.793	0.29
628.236	0.29
628.68	0.29
629.124	0.29
629.568	0.29
630.012	0.28
630.456	0.28
630.9	0.28
631.343	0.28
631.787	0.28
632.231	0.28
632.674	0.28
633.118	0.28
633.562	0.27
634.005	0.27
634.449	0.27
634.892	0.27
635.336	0.27
635.779	0.27
636.223	0.27
636.666	0.27
637.109	0.27
637.553	0.27
637.996	0.27
638.439	0.27
638.883	0.27
639.326	0.27
639.769	0.27
640.212	0.27
640.655	0.27
641.099	0.27
641.542	0.27
641.985	0.27
642.428	0.27
642.871	0.27
643.314	0.27
643.757	0.27
644.2	0.27
644.643	0.27
645.085	0.27
645.528	0.27
645.971	0.27
646.414	0.27
646.857	0.27
647.299	0.27
647.742	0.27
648.185	0.27
648.627	0.27
649.07	0.27
649.513	0.27
649.955	0.27
650.398	0.27
650.84	0.27
651.283	0.27
651.725	0.27
652.168	0.27
652.61	0.27
653.052	0.28
653.495	0.26
653.937	0.21
654.379	0.17
654.821	0.17
655.264	0.18
655.706	0.18
656.148	0.18
656.59	0.18
657.032	0.18
657.474	0.18
657.916	0.18
658.358	0.18
658.8	0.22
659.242	0.28
659.684	0.28
660.126	0.28
660.568	0.28
661.01	0.28
661.452	0.28
661.894	0.28
662.335	0.29
662.777	0.29
663.219	0.29
663.661	0.29
664.102	0.29
664.544	0.29
664.985	0.29
665.427	0.29
665.869	0.29
666.31	0.29
666.752	0.29
667.193	0.29
667.634	0.29
668.076	0.29
668.517	0.29
668.959	0.3
669.4	0.3
669.841	0.3
670.282	0.3
670.724	0.3
671.165	0.3
671.606	0.31
672.047	0.31
672.488	0.31
672.929	0.31
673.37	0.31
673.811	0.31
674.252	0.31
674.693	0.31
675.134	0.31
675.575	0.31
676.016	0.31
676.457	0.31
676.898	0.31
677.339	0.31
677.78	0.32
678.22	0.32
678.661	0.32
679.102	0.32
679.542	0.32
679.983	0.32
680.424	0.32
680.864	0.32
681.305	0.32
681.745	0.32
682.186	0.32
682.626	0.32
683.067	0.32
683.507	0.32
683.948	0.32
684.388	0.32
684.828	0.32
685.269	0.33
685.709	0.33
686.149	0.33
686.589	0.33
687.029	0.33
687.47	0.33
687.91	0.33
688.35	0.33
688.79	0.33
689.23	0.33
689.67	0.33
690.11	0.33
690.55	0.34
690.99	0.34
691.43	0.34
691.87	0.34
692.31	0.34
692.749	0.34
693.189	0.34
693.629	0.34
694.069	0.34
694.508	0.34
694.948	0.35
695.388	0.35
695.827	0.35
696.267	0.35
696.706	0.35
697.146	0.35
697.586	0.35
698.025	0.35
698.464	0.35
698.904	0.35
699.343	0.35
699.783	0.35
700.222	0.35
700.661	0.35
701.101	0.35
701.54	0.35
701.979	0.35
702.418	0.36
702.857	0.36
703.297	0.36
703.736	0.36
704.175	0.36
704.614	0.36
705.053	0.36
705.492	0.36
705.931	0.36
706.37	0.36
706.809	0.36
707.248	0.37
707.687	0.37
708.125	0.37
708.564	0.37
709.003	0.37
709.442	0.37
709.88	0.36
710.319	0.37
710.758	0.37
711.196	0.37
711.635	0.37
712.074	0.37
712.512	0.37
712.951	0.37
713.389	0.37
713.828	0.37
714.266	0.36
714.705	0.36
715.143	0.36
715.581	0.36
716.02	0.36
716.458	0.36
716.896	0.36
717.334	0.36
717.773	0.36
718.211	0.36
718.649	0.36
719.087	0.37
719.525	0.37
719.963	0.37
720.401	0.37
720.839	0.37
721.277	0.37
721.715	0.37
722.153	0.37
722.591	0.37
723.029	0.37
723.467	0.37
723.905	0.36
724.342	0.36
724.78	0.36
725.218	0.36
725.656	0.36
726.093	0.36
726.531	0.36
726.969	0.36
727.406	0.36
727.844	0.37
728.281	0.37
728.719	0.37
729.156	0.37
729.594	0.37
730.031	0.37
730.469	0.37
730.906	0.37
731.343	0.37
731.781	0.37
732.218	0.37
732.655	0.37
733.092	0.37
733.53	0.37
733.967	0.37
734.404	0.37
734.841	0.37
735.278	0.37
735.715	0.37
736.152	0.37
736.589	0.37
737.026	0.37
737.463	0.37
737.9	0.37
738.337	0.37
738.774	0.37
739.211	0.37
739.647	0.36
740.084	0.36
740.521	0.36
740.958	0.36
741.394	0.36
741.831	0.36
742.268	0.36
742.704	0.36
743.141	0.36
743.577	0.36
744.014	0.35
744.45	0.35
744.887	0.35
745.323	0.35
745.76	0.35
746.196	0.35
746.632	0.35
747.069	0.35
747.505	0.35
747.941	0.35
748.378	0.35
748.814	0.34
749.25	0.35
749.686	0.35
750.122	0.35
750.558	0.35
750.994	0.35
751.43	0.35
751.866	0.35
752.302	0.35
752.738	0.35
753.174	0.35
753.61	0.35
754.046	0.35
754.482	0.35
754.918	0.35
755.354	0.35
755.789	0.35
756.225	0.35
756.661	0.35
757.096	0.35
757.532	0.35
757.968	0.35
758.403	0.35
758.839	0.35
759.274	0.35
759.71	0.35
760.145	0.35
760.581	0.34
761.016	0.34
761.452	0.34
761.887	0.34
762.322	0.34
762.758	0.34
763.193	0.33
763.628	0.33
764.063	0.33
764.499	0.33
764.934	0.32
765.369	0.32
765.804	0.32
766.239	0.32
766.674	0.32
767.109	0.31
767.544	0.31
767.979	0.31
768.414	0.3
768.849	0.3
769.284	0.3
769.719	0.3
770.154	0.29
770.588	0.29
771.023	0.28
771.458	0.28
771.893	0.28
772.327	0.27
772.762	0.27
773.197	0.27
773.631	0.26
774.066	0.26
774.5	0.25
774.935	0.25
775.369	0.24
775.804	0.24
776.238	0.23
776.673	0.23
777.107	0.22
777.541	0.22
777.976	0.21
778.41	0.21
778.844	0.2
779.279	0.2
779.713	0.19
780.147	0.18
780.581	0.18
781.015	0.17
781.449	0.16
781.883	0.15
782.317	0.13
782.751	0.12
783.185	0.11
783.619	0.1
784.053	0.08
784.487	0.07
784.921	0.05
785.355	0.04
785.789	0.02
786.223	0.01
786.656	0
787.09	-0.01
787.524	-0.02
787.957	-0.03
788.391	-0.03
788.825	-0.04
789.258	-0.05
789.692	-0.05
790.125	-0.05
790.559	-0.06
790.992	-0.06
791.426	-0.06
791.859	-0.06
792.293	-0.05
792.726	-0.04
793.159	-0.04
793.593	-0.04
794.026	-0.04
794.459	-0.04
794.892	-0.05
795.326	-0.05
795.759	-0.05
796.192	-0.05
796.625	-0.06
797.058	-0.07
797.491	-0.07
797.924	-0.08
798.357	-0.08
798.79	-0.08
799.223	-0.08
799.656	-0.08
800.089	-0.08
800.522	-0.09
800.955	-0.09
801.387	-0.09
801.82	-0.09
802.253	-0.09
802.686	-0.09
803.118	-0.09
803.551	-0.09
803.984	-0.08
804.416	-0.08
804.849	-0.07
805.281	-0.07
805.714	-0.07
806.146	-0.07
806.579	-0.07
807.011	-0.07
807.444	-0.07
807.876	-0.07
808.308	-0.07
808.741	-0.07
809.173	-0.08
809.605	-0.08
810.037	-0.08
810.47	-0.08
810.902	-0.09
811.334	-0.09
811.766	-0.08
812.198	-0.08
812.63	-0.08
813.062	-0.08
813.494	-0.08
813.926	-0.08
814.358	-0.08
814.79	-0.08
815.222	-0.07
815.654	-0.07
816.086	-0.07
816.518	-0.08
816.949	-0.08
817.381	-0.07
817.813	-0.07
818.245	-0.05
818.676	-0.04
819.108	-0.03
819.54	-0.02
819.971	-0.01
820.403	0.01
820.834	0.03
821.266	0.05
821.697	0.06
822.129	0.08
822.56	0.09
822.991	0.11
823.423	0.12
823.854	0.13
824.286	0.14
824.717	0.15
825.148	0.16
825.579	0.18
826.01	0.18
826.442	0.19
826.873	0.2
827.304	0.21
827.735	0.22
828.166	0.22
828.597	0.23
829.028	0.23
829.459	0.24
829.89	0.24
830.321	0.25
830.752	0.25
831.183	0.26
831.613	0.26
832.044	0.26
832.475	0.27
832.906	0.27
833.336	0.27
833.767	0.28
834.198	0.28
834.628	0.28
835.059	0.28
835.49	0.28
835.92	0.29
836.351	0.29
836.781	0.29
837.212	0.29
837.642	0.29
838.072	0.29
838.503	0.3
838.933	0.3
839.364	0.3
839.794	0.3
840.224	0.3
840.654	0.3
841.085	0.3
841.515	0.3
841.945	0.3
842.375	0.3
842.805	0.3
843.235	0.3
843.665	0.3
844.095	0.3
844.525	0.3
844.955	0.3
845.385	0.3
845.815	0.3
846.245	0.3
846.675	0.3
847.105	0.3
847.534	0.3
847.964	0.3
848.394	0.3
848.824	0.3
849.253	0.3
849.683	0.31
850.112	0.31
850.542	0.31
850.972	0.31
851.401	0.31
851.831	0.31
852.26	0.31
852.69	0.31
853.119	0.31
853.548	0.31
853.978	0.31
854.407	0.31
854.836	0.31
855.266	0.31
855.695	0.31
856.124	0.31
856.553	0.31
856.983	0.31
857.412	0.31
857.841	0.3
858.27	0.3
858.699	0.3
859.128	0.3
859.557	0.3
859.986	0.3
860.415	0.3
860.844	0.3
861.273	0.3
861.702	0.3
862.13	0.3
862.559	0.3
862.988	0.3
863.417	0.3
863.845	0.3
864.274	0.3
864.703	0.3
865.131	0.3
865.56	0.3
865.989	0.3
866.417	0.3
866.846	0.3
867.274	0.3
867.703	0.3
868.131	0.3
868.559	0.3
868.988	0.3
869.416	0.3
869.844	0.3
870.273	0.3
870.701	0.3
871.129	0.3
871.557	0.3
871.986	0.29
872.414	0.29
872.842	0.29
873.27	0.29
873.698	0.29
874.126	0.29
874.554	0.29
874.982	0.29
875.41	0.29
875.838	0.29
876.266	0.29
876.694	0.29
877.122	0.29
877.549	0.29
877.977	0.29
878.405	0.29
878.833	0.29
879.26	0.29
879.688	0.29
880.116	0.29
880.543	0.29
880.971	0.29
881.399	0.29
881.826	0.29
882.254	0.29
882.681	0.29
883.109	0.29
883.536	0.29
883.963	0.29
884.391	0.29
884.818	0.29
885.245	0.29
885.673	0.29
886.1	0.29
886.527	0.29
886.954	0.29
887.381	0.29
887.809	0.29
888.236	0.29
888.663	0.29
889.09	0.29
889.517	0.29
889.944	0.29
890.371	0.29
890.798	0.29
891.225	0.29
891.652	0.29
892.078	0.29
892.505	0.29
892.932	0.29
893.359	0.29
893.786	0.29
894.212	0.29
894.639	0.29
895.066	0.29
895.492	0.28
895.919	0.28
896.346	0.28
896.772	0.28
897.199	0.28
897.625	0.28
898.052	0.28
898.478	0.28
898.904	0.28
899.331	0.28
899.757	0.28
900.183	0.28
900.61	0.28
901.036	0.28
901.462	0.28
901.888	0.28
902.315	0.28
902.741	0.28
903.167	0.28
903.593	0.28
904.019	0.28
904.445	0.28
904.871	0.28
905.297	0.28
905.723	0.27
906.149	0.27
906.575	0.27
907.001	0.27
907.427	0.27
907.852	0.27
908.278	0.27
908.704	0.27
909.13	0.27
909.555	0.27
909.981	0.27
910.407	0.27
910.832	0.27
911.258	0.27
911.684	0.27
912.109	0.27
912.535	0.27
912.96	0.27
913.386	0.27
913.811	0.27
914.236	0.27
914.662	0.27
915.087	0.27
915.512	0.27
915.938	0.27
916.363	0.27
916.788	0.27
917.213	0.27
917.639	0.27
918.064	0.27
918.489	0.27
918.914	0.27
919.339	0.27
919.764	0.27
920.189	0.27
920.614	0.27
921.039	0.27
921.464	0.27
921.889	0.26
922.314	0.26
922.738	0.26
923.163	0.26
923.588	0.26
924.013	0.26
924.437	0.26
924.862	0.26
925.287	0.26
925.711	0.26
926.136	0.26
926.561	0.26
926.985	0.26
927.41	0.26
927.834	0.26
928.259	0.26
928.683	0.26
929.108	0.26
929.532	0.26
929.956	0.25
930.381	0.25
930.805	0.25
931.229	0.25
931.653	0.25
932.078	0.25
932.502	0.25
932.926	0.25
933.35	0.25
933.774	0.24
934.198	0.24
934.622	0.24
935.046	0.24
935.47	0.24
935.894	0.24
936.318	0.24
936.742	0.24
937.166	0.24
937.59	0.24
938.014	0.24
938.437	0.24
938.861	0.24
939.285	0.25
939.709	0.25
940.132	0.25
940.556	0.25
940.98	0.25
941.403	0.25
941.827	0.25
942.25	0.25
942.674	0.25
943.097	0.25
943.521	0.24
943.944	0.24
944.368	0.24
944.791	0.24
945.214	0.24
945.638	0.24
946.061	0.24
946.484	0.24
946.907	0.24
947.331	0.24
947.754	0.24
948.177	0.24
948.6	0.24
949.023	0.24
949.446	0.24
949.869	0.23
950.292	0.23
950.715	0.23
951.138	0.23
951.561	0.23
951.984	0.23
952.407	0.23
952.83	0.23
953.252	0.23
953.675	0.23
954.098	0.23
954.521	0.23
954.943	0.23
955.366	0.23
955.789	0.23
956.211	0.23
956.634	0.23
957.056	0.23
957.479	0.23
957.902	0.23
958.324	0.23
958.746	0.23
959.169	0.23
959.591	0.23
960.014	0.23
960.436	0.23
960.858	0.23
961.281	0.23
961.703	0.23
962.125	0.23
962.547	0.23
962.969	0.23
963.391	0.23
963.814	0.23
964.236	0.23
964.658	0.23
965.08	0.23
965.502	0.23
965.924	0.23
966.346	0.23
966.768	0.23
967.189	0.23
967.611	0.23
968.033	0.23
968.455	0.23
968.877	0.23
969.298	0.23
969.72	0.23
970.142	0.22
970.563	0.22
970.985	0.22
971.407	0.22
971.828	0.22
972.25	0.22
972.671	0.22
973.093	0.22
973.514	0.22
973.936	0.22
974.357	0.22
974.778	0.22
975.2	0.22
975.621	0.22
976.042	0.22
976.464	0.22
976.885	0.22
977.306	0.22
977.727	0.22
978.148	0.22
978.57	0.22
978.991	0.22
979.412	0.22
979.833	0.22
980.254	0.22
980.675	0.22
981.096	0.22
981.517	0.22
981.937	0.21
982.358	0.21
982.779	0.21
983.2	0.21
983.621	0.21
984.042	0.21
984.462	0.21
984.883	0.21
985.304	0.21
985.724	0.21
986.145	0.21
986.565	0.21
986.986	0.21
987.407	0.21
987.827	0.21
988.248	0.21
988.668	0.21
989.088	0.21
989.509	0.21
989.929	0.21
990.35	0.21
990.77	0.21
991.19	0.21
991.61	0.21
992.031	0.21
992.451	0.21
992.871	0.2
993.291	0.2
993.711	0.2
994.131	0.2
994.551	0.2
994.971	0.2
995.391	0.2
995.811	0.2
996.231	0.2
996.651	0.2
997.071	0.2
997.491	0.2
997.911	0.2
998.331	0.2
998.75	0.2
999.17	0.2
999.59	0.2
1000.009	0.2
1000.429	0.2
1000.849	0.2
1001.268	0.2
1001.688	0.2
1002.107	0.2
1002.527	0.2
1002.946	0.2
1003.366	0.2
1003.785	0.2
1004.205	0.2
1004.624	0.2
1005.044	0.2
1005.463	0.2
1005.882	0.2
1006.301	0.2
1006.721	0.2
1007.14	0.2
1007.559	0.2
1007.978	0.2
1008.397	0.2
1008.816	0.2
1009.235	0.2
1009.655	0.2
1010.074	0.19
1010.492	0.19
1010.911	0.19
1011.33	0.19
1011.749	0.19
1012.168	0.19
1012.587	0.19
1013.006	0.19
1013.425	0.19
1013.843	0.19
1014.262	0.19
1014.681	0.19
1015.099	0.19
1015.518	0.19
1015.937	0.19
1016.355	0.19
1016.774	0.19
1017.192	0.19
1017.611	0.19
1018.029	0.19
1018.448	0.19
1018.866	0.19
1019.285	0.19
1019.703	0.19
1020.121	0.19
1020.54	0.19
1020.958	0.19
1021.376	0.19
1021.794	0.19
1022.213	0.19
1022.631	0.19
1023.049	0.19
1023.467	0.19
1023.885	0.19
1024.303	0.19
1024.721	0.19
1025.139	0.2
1025.557	0.2
1025.975	0.2
1026.393	0.2
1026.811	0.2
1027.229	0.2
1027.647	0.2
1028.065	0.2
1028.482	0.2
1028.9	0.2
1029.318	0.2
1029.735	0.2
1030.153	0.2
1030.571	0.2
1030.988	0.21
1031.406	0.21
1031.823	0.21
1032.241	0.21
1032.659	0.21
1033.076	0.21
1033.493	0.2
1033.911	0.2
1034.328	0.2
1034.746	0.2
1035.163	0.2
1035.58	0.2
1035.997	0.2
1036.415	0.2
1036.832	0.19
1037.249	0.19
1037.666	0.19
1038.083	0.19
1038.501	0.19
1038.918	0.19
1039.335	0.19
1039.752	0.19
1040.169	0.19
1040.586	0.19
1041.003	0.19
1041.419	0.19
1041.836	0.19
1042.253	0.19
1042.67	0.19
1043.087	0.19
1043.504	0.19
1043.92	0.19
1044.337	0.19
1044.754	0.19
1045.17	0.19
1045.587	0.19
1046.004	0.18
1046.42	0.18
1046.837	0.18
1047.253	0.18
1047.67	0.18
1048.086	0.18
1048.503	0.18
1048.919	0.18
1049.335	0.18
1049.752	0.18
1050.168	0.18
1050.584	0.18
1051.001	0.18
1051.417	0.18
1051.833	0.18
1052.249	0.18
1052.665	0.18
1053.081	0.18
1053.497	0.18
1053.914	0.18
1054.33	0.18
1054.746	0.18
1055.162	0.18
1055.578	0.18
1055.993	0.18
1056.409	0.18
1056.825	0.18
1057.241	0.18
1057.657	0.18
1058.073	0.18
1058.488	0.18
1058.904	0.18
1059.32	0.18
1059.736	0.18
1060.151	0.18
1060.567	0.18
1060.982	0.18
1061.398	0.18
1061.813	0.18
1062.229	0.18
1062.644	0.18
1063.06	0.18
1063.475	0.18
1063.891	0.18
1064.306	0.18
1064.721	0.18
1065.137	0.18
1065.552	0.18
1065.967	0.18
1066.382	0.18
1066.798	0.18
1067.213	0.18
1067.628	0.18
1068.043	0.18
1068.458	0.18
1068.873	0.18
1069.288	0.18
1069.703	0.18
1070.118	0.18
1070.533	0.18
1070.948	0.18
1071.363	0.18
1071.778	0.18
1072.193	0.18
1072.607	0.18
1073.022	0.18
1073.437	0.18
1073.852	0.18
1074.266	0.18
1074.681	0.18
1075.096	0.18
1075.51	0.18
1075.925	0.18
1076.339	0.18
1076.754	0.18
1077.168	0.18
1077.583	0.18
1077.997	0.18
1078.412	0.18
1078.826	0.18
1079.24	0.18
1079.655	0.18
1080.069	0.18
1080.483	0.18
1080.897	0.19
1081.312	0.19
1081.726	0.19
1082.14	0.19
1082.554	0.19
1082.968	0.19
1083.382	0.19
1083.796	0.2
1084.21	0.2
1084.624	0.2
1085.038	0.2
1085.452	0.2
1085.866	0.2
1086.28	0.2
1086.694	0.2
1087.108	0.21
1087.521	0.21
1087.935	0.21
1088.349	0.21
1088.763	0.21
1089.176	0.21
1089.59	0.22
1090.004	0.22
1090.417	0.22
1090.831	0.22
1091.244	0.23
1091.658	0.23
1092.071	0.24
1092.485	0.24
1092.898	0.24
1093.312	0.25
1093.725	0.25
1094.138	0.26
1094.552	0.26
1094.965	0.27
1095.378	0.27
1095.791	0.28
1096.205	0.28
1096.618	0.29
1097.031	0.3
1097.444	0.31
1097.857	0.31
1098.27	0.32
1098.683	0.33
1099.096	0.34
1099.509	0.35
1099.922	0.36
1100.335	0.37
1100.748	0.38
1101.161	0.4
1101.574	0.41
1101.986	0.43
1102.399	0.45
1102.812	0.47
1103.225	0.5
1103.637	0.53
1104.05	0.56
1104.463	0.6
1104.875	0.64
1105.288	0.7
1105.7	0.75
1106.113	0.82
1106.525	0.91
1106.938	1.08
1107.35	1.43
1107.763	-0
1108.175	-0
1108.588	-0
1109	-0
1109.412	-0
1109.824	-0
1110.237	-0
1110.649	-0
1111.061	-0
