Data from unagg-15c-2a-1h_Absorbance__49__00476.txt Node

Date: Mon May 06 09:34:22 CEST 2024
User: Laser008
Spectrometer: MAYP115816
Trigger mode: 0
Integration Time (sec): 2.000000E-1
Scans to average: 10
Electric dark correction enabled: true
Nonlinearity correction enabled: true
Boxcar width: 5
XAxis mode: Wavelengths
Number of Pixels in Spectrum: 2068
>>>>>Begin Spectral Data<<<<<
198.914	-1.55
199.384	-1.41
199.855	-1.27
200.325	-1.15
200.796	-1.07
201.266	-1.02
201.737	-0.95
202.207	-0.9
202.677	-0.85
203.147	-0.81
203.618	-0.78
204.088	-0.76
204.558	-0.74
205.028	-0.72
205.498	-0.72
205.968	-0.72
206.439	-0.72
206.909	-0.71
207.379	-0.71
207.849	-0.71
208.319	-0.71
208.789	-0.71
209.258	-0.7
209.728	-0.7
210.198	-0.7
210.668	-0.7
211.138	-0.7
211.608	-0.7
212.077	-0.7
212.547	-0.7
213.017	-0.7
213.486	-0.7
213.956	-0.7
214.426	-0.7
214.895	-0.69
215.365	-0.69
215.834	-0.69
216.304	-0.69
216.773	-0.69
217.243	-0.68
217.712	-0.68
218.181	-0.68
218.651	-0.68
219.12	-0.67
219.589	-0.67
220.058	-0.67
220.528	-0.67
220.997	-0.67
221.466	-0.66
221.935	-0.66
222.404	-0.65
222.873	-0.65
223.342	-0.64
223.812	-0.64
224.281	-0.63
224.749	-0.62
225.218	-0.61
225.687	-0.6
226.156	-0.59
226.625	-0.57
227.094	-0.56
227.563	-0.54
228.031	-0.52
228.5	-0.5
228.969	-0.47
229.438	-0.45
229.906	-0.41
230.375	-0.38
230.844	-0.34
231.312	-0.3
231.781	-0.25
232.249	-0.21
232.718	-0.16
233.186	-0.11
233.655	-0.06
234.123	-0.01
234.591	0.04
235.06	0.09
235.528	0.14
235.996	0.19
236.465	0.23
236.933	0.28
237.401	0.32
237.869	0.36
238.337	0.41
238.805	0.44
239.274	0.48
239.742	0.52
240.21	0.55
240.678	0.58
241.146	0.61
241.614	0.64
242.081	0.66
242.549	0.69
243.017	0.71
243.485	0.73
243.953	0.75
244.421	0.77
244.888	0.79
245.356	0.8
245.824	0.82
246.291	0.83
246.759	0.85
247.227	0.86
247.694	0.87
248.162	0.88
248.629	0.89
249.097	0.9
249.564	0.91
250.032	0.92
250.499	0.93
250.967	0.94
251.434	0.95
251.901	0.95
252.369	0.96
252.836	0.97
253.303	0.97
253.77	0.98
254.237	0.98
254.705	0.99
255.172	0.99
255.639	1
256.106	1
256.573	1
257.04	1.01
257.507	1.01
257.974	1.01
258.441	1.01
258.908	1.01
259.375	1.02
259.841	1.02
260.308	1.02
260.775	1.02
261.242	1.02
261.709	1.02
262.175	1.02
262.642	1.02
263.109	1.03
263.575	1.02
264.042	1.03
264.508	1.03
264.975	1.02
265.441	1.02
265.908	1.02
266.374	1.02
266.841	1.02
267.307	1.02
267.773	1.02
268.24	1.02
268.706	1.02
269.172	1.01
269.639	1.01
270.105	1.01
270.571	1.01
271.037	1
271.503	1
271.969	1
272.435	1
272.902	1
273.368	0.99
273.834	0.99
274.3	0.99
274.765	0.98
275.231	0.98
275.697	0.98
276.163	0.97
276.629	0.97
277.095	0.97
277.56	0.96
278.026	0.96
278.492	0.95
278.958	0.95
279.423	0.94
279.889	0.94
280.354	0.94
280.82	0.93
281.286	0.93
281.751	0.93
282.217	0.92
282.682	0.92
283.147	0.92
283.613	0.92
284.078	0.91
284.544	0.91
285.009	0.91
285.474	0.9
285.939	0.9
286.405	0.9
286.87	0.89
287.335	0.89
287.8	0.89
288.265	0.88
288.73	0.88
289.195	0.87
289.66	0.87
290.125	0.87
290.59	0.86
291.055	0.86
291.52	0.86
291.985	0.86
292.45	0.85
292.915	0.85
293.38	0.85
293.844	0.84
294.309	0.84
294.774	0.84
295.239	0.83
295.703	0.83
296.168	0.83
296.632	0.83
297.097	0.82
297.562	0.82
298.026	0.82
298.491	0.82
298.955	0.81
299.419	0.81
299.884	0.81
300.348	0.81
300.813	0.81
301.277	0.8
301.741	0.8
302.205	0.8
302.67	0.8
303.134	0.8
303.598	0.79
304.062	0.79
304.526	0.79
304.99	0.79
305.454	0.78
305.919	0.78
306.383	0.78
306.847	0.78
307.31	0.78
307.774	0.77
308.238	0.77
308.702	0.77
309.166	0.77
309.63	0.77
310.094	0.76
310.557	0.76
311.021	0.76
311.485	0.76
311.948	0.76
312.412	0.75
312.876	0.75
313.339	0.75
313.803	0.75
314.266	0.75
314.73	0.75
315.193	0.74
315.657	0.74
316.12	0.74
316.584	0.74
317.047	0.74
317.51	0.74
317.973	0.73
318.437	0.73
318.9	0.73
319.363	0.73
319.826	0.73
320.29	0.73
320.753	0.72
321.216	0.72
321.679	0.72
322.142	0.72
322.605	0.72
323.068	0.71
323.531	0.71
323.994	0.71
324.457	0.71
324.92	0.71
325.382	0.71
325.845	0.7
326.308	0.7
326.771	0.7
327.233	0.7
327.696	0.7
328.159	0.7
328.622	0.69
329.084	0.69
329.547	0.69
330.009	0.69
330.472	0.69
330.934	0.69
331.397	0.69
331.859	0.68
332.322	0.68
332.784	0.68
333.246	0.68
333.709	0.68
334.171	0.68
334.633	0.67
335.096	0.67
335.558	0.67
336.02	0.67
336.482	0.67
336.944	0.67
337.406	0.67
337.868	0.66
338.331	0.66
338.793	0.66
339.255	0.66
339.717	0.66
340.178	0.66
340.64	0.66
341.102	0.66
341.564	0.66
342.026	0.65
342.488	0.65
342.949	0.65
343.411	0.65
343.873	0.65
344.335	0.65
344.796	0.65
345.258	0.65
345.719	0.65
346.181	0.65
346.643	0.65
347.104	0.64
347.566	0.64
348.027	0.64
348.488	0.64
348.95	0.64
349.411	0.64
349.873	0.64
350.334	0.64
350.795	0.64
351.256	0.64
351.718	0.64
352.179	0.64
352.64	0.64
353.101	0.63
353.562	0.63
354.023	0.63
354.484	0.63
354.945	0.63
355.406	0.63
355.867	0.63
356.328	0.63
356.789	0.62
357.25	0.62
357.711	0.62
358.172	0.62
358.633	0.62
359.093	0.62
359.554	0.62
360.015	0.63
360.476	0.63
360.936	0.63
361.397	0.63
361.858	0.63
362.318	0.63
362.779	0.63
363.239	0.63
363.7	0.63
364.16	0.62
364.621	0.62
365.081	0.62
365.541	0.62
366.002	0.62
366.462	0.62
366.922	0.62
367.383	0.62
367.843	0.62
368.303	0.62
368.763	0.62
369.223	0.62
369.684	0.62
370.144	0.62
370.604	0.62
371.064	0.62
371.524	0.62
371.984	0.61
372.444	0.61
372.904	0.61
373.363	0.61
373.823	0.61
374.283	0.61
374.743	0.61
375.203	0.61
375.663	0.61
376.122	0.61
376.582	0.61
377.042	0.61
377.501	0.61
377.961	0.61
378.42	0.61
378.88	0.61
379.34	0.61
379.799	0.61
380.259	0.61
380.718	0.61
381.177	0.61
381.637	0.61
382.096	0.61
382.555	0.61
383.015	0.6
383.474	0.6
383.933	0.6
384.393	0.6
384.852	0.6
385.311	0.6
385.77	0.6
386.229	0.6
386.688	0.6
387.147	0.6
387.606	0.6
388.065	0.6
388.524	0.6
388.983	0.6
389.442	0.6
389.901	0.6
390.36	0.6
390.819	0.6
391.277	0.6
391.736	0.6
392.195	0.59
392.654	0.59
393.112	0.59
393.571	0.59
394.03	0.59
394.488	0.59
394.947	0.59
395.405	0.59
395.864	0.59
396.322	0.59
396.781	0.59
397.239	0.59
397.698	0.59
398.156	0.59
398.614	0.59
399.073	0.59
399.531	0.59
399.989	0.59
400.447	0.59
400.905	0.59
401.364	0.58
401.822	0.58
402.28	0.58
402.738	0.58
403.196	0.58
403.654	0.58
404.112	0.58
404.57	0.58
405.028	0.58
405.486	0.58
405.944	0.58
406.402	0.58
406.859	0.58
407.317	0.58
407.775	0.58
408.233	0.58
408.691	0.57
409.148	0.57
409.606	0.57
410.064	0.57
410.521	0.57
410.979	0.57
411.436	0.57
411.894	0.57
412.351	0.57
412.809	0.57
413.266	0.57
413.724	0.57
414.181	0.57
414.638	0.57
415.096	0.57
415.553	0.57
416.01	0.57
416.467	0.56
416.925	0.56
417.382	0.56
417.839	0.56
418.296	0.56
418.753	0.56
419.21	0.56
419.667	0.56
420.124	0.56
420.581	0.56
421.038	0.57
421.495	0.57
421.952	0.57
422.409	0.56
422.866	0.56
423.322	0.56
423.779	0.56
424.236	0.56
424.693	0.56
425.149	0.56
425.606	0.56
426.063	0.56
426.519	0.56
426.976	0.56
427.433	0.56
427.889	0.56
428.346	0.56
428.802	0.56
429.258	0.56
429.715	0.56
430.171	0.56
430.628	0.56
431.084	0.56
431.54	0.56
431.997	0.56
432.453	0.56
432.909	0.56
433.365	0.56
433.821	0.56
434.277	0.55
434.734	0.55
435.19	0.55
435.646	0.55
436.102	0.55
436.558	0.55
437.014	0.55
437.47	0.55
437.925	0.55
438.381	0.55
438.837	0.55
439.293	0.55
439.749	0.55
440.205	0.55
440.66	0.55
441.116	0.55
441.572	0.55
442.027	0.55
442.483	0.55
442.939	0.55
443.394	0.55
443.85	0.55
444.305	0.55
444.761	0.55
445.216	0.55
445.672	0.55
446.127	0.55
446.582	0.55
447.038	0.55
447.493	0.55
447.948	0.55
448.403	0.55
448.859	0.55
449.314	0.55
449.769	0.55
450.224	0.55
450.679	0.55
451.134	0.55
451.589	0.55
452.044	0.55
452.499	0.55
452.954	0.55
453.409	0.55
453.864	0.55
454.319	0.55
454.774	0.55
455.229	0.55
455.684	0.55
456.138	0.55
456.593	0.55
457.048	0.55
457.503	0.55
457.957	0.55
458.412	0.55
458.866	0.55
459.321	0.55
459.776	0.55
460.23	0.55
460.685	0.55
461.139	0.55
461.593	0.55
462.048	0.55
462.502	0.55
462.957	0.55
463.411	0.55
463.865	0.55
464.319	0.55
464.774	0.55
465.228	0.55
465.682	0.56
466.136	0.56
466.59	0.56
467.044	0.56
467.499	0.56
467.953	0.56
468.407	0.56
468.861	0.56
469.315	0.55
469.768	0.55
470.222	0.56
470.676	0.56
471.13	0.56
471.584	0.56
472.038	0.56
472.491	0.56
472.945	0.56
473.399	0.56
473.852	0.56
474.306	0.57
474.76	0.57
475.213	0.57
475.667	0.57
476.12	0.57
476.574	0.57
477.027	0.57
477.481	0.57
477.934	0.58
478.388	0.58
478.841	0.58
479.294	0.58
479.748	0.58
480.201	0.58
480.654	0.59
481.107	0.59
481.561	0.59
482.014	0.59
482.467	0.59
482.92	0.6
483.373	0.6
483.826	0.6
484.279	0.61
484.732	0.61
485.185	0.61
485.638	0.62
486.091	0.62
486.544	0.62
486.997	0.62
487.449	0.62
487.902	0.63
488.355	0.63
488.808	0.63
489.26	0.63
489.713	0.63
490.166	0.63
490.618	0.63
491.071	0.63
491.523	0.64
491.976	0.64
492.429	0.64
492.881	0.64
493.333	0.65
493.786	0.65
494.238	0.66
494.691	0.66
495.143	0.66
495.595	0.67
496.048	0.67
496.5	0.67
496.952	0.68
497.404	0.68
497.856	0.68
498.309	0.69
498.761	0.69
499.213	0.69
499.665	0.7
500.117	0.7
500.569	0.7
501.021	0.71
501.473	0.71
501.925	0.72
502.377	0.72
502.828	0.72
503.28	0.73
503.732	0.73
504.184	0.73
504.636	0.74
505.087	0.74
505.539	0.74
505.991	0.74
506.442	0.75
506.894	0.75
507.345	0.75
507.797	0.75
508.249	0.76
508.7	0.76
509.151	0.76
509.603	0.76
510.054	0.77
510.506	0.77
510.957	0.77
511.408	0.77
511.86	0.78
512.311	0.78
512.762	0.78
513.213	0.78
513.665	0.78
514.116	0.78
514.567	0.78
515.018	0.78
515.469	0.78
515.92	0.78
516.371	0.78
516.822	0.79
517.273	0.79
517.724	0.79
518.175	0.79
518.626	0.79
519.076	0.78
519.527	0.78
519.978	0.78
520.429	0.78
520.88	0.77
521.33	0.77
521.781	0.77
522.232	0.77
522.682	0.77
523.133	0.77
523.583	0.77
524.034	0.77
524.484	0.78
524.935	0.78
525.385	0.79
525.836	0.79
526.286	0.79
526.736	0.8
527.187	0.8
527.637	0.8
528.087	0.8
528.538	0.8
528.988	0.8
529.438	0.8
529.888	0.8
530.338	0.8
530.788	0.8
531.238	0.8
531.688	0.8
532.139	0.8
532.589	0.8
533.038	0.8
533.488	0.8
533.938	0.79
534.388	0.79
534.838	0.79
535.288	0.79
535.738	0.79
536.187	0.79
536.637	0.78
537.087	0.78
537.537	0.78
537.986	0.77
538.436	0.77
538.885	0.77
539.335	0.77
539.785	0.76
540.234	0.76
540.684	0.76
541.133	0.75
541.582	0.75
542.032	0.74
542.481	0.74
542.931	0.74
543.38	0.73
543.829	0.73
544.278	0.73
544.728	0.72
545.177	0.72
545.626	0.72
546.075	0.71
546.524	0.71
546.973	0.7
547.422	0.7
547.871	0.69
548.32	0.69
548.769	0.69
549.218	0.68
549.667	0.68
550.116	0.67
550.565	0.66
551.014	0.66
551.463	0.65
551.911	0.65
552.36	0.65
552.809	0.64
553.258	0.64
553.706	0.63
554.155	0.63
554.603	0.62
555.052	0.62
555.501	0.61
555.949	0.6
556.398	0.6
556.846	0.59
557.294	0.59
557.743	0.58
558.191	0.58
558.64	0.57
559.088	0.56
559.536	0.56
559.985	0.56
560.433	0.55
560.881	0.55
561.329	0.54
561.777	0.54
562.225	0.54
562.674	0.53
563.122	0.53
563.57	0.52
564.018	0.52
564.466	0.51
564.914	0.51
565.362	0.5
565.809	0.5
566.257	0.49
566.705	0.49
567.153	0.48
567.601	0.48
568.048	0.47
568.496	0.47
568.944	0.47
569.392	0.46
569.839	0.46
570.287	0.46
570.734	0.46
571.182	0.45
571.63	0.45
572.077	0.45
572.525	0.44
572.972	0.44
573.419	0.44
573.867	0.43
574.314	0.43
574.761	0.43
575.209	0.42
575.656	0.42
576.103	0.42
576.551	0.41
576.998	0.41
577.445	0.41
577.892	0.4
578.339	0.4
578.786	0.4
579.233	0.39
579.68	0.39
580.127	0.39
580.574	0.38
581.021	0.38
581.468	0.38
581.915	0.38
582.362	0.37
582.809	0.37
583.255	0.37
583.702	0.36
584.149	0.36
584.596	0.36
585.042	0.35
585.489	0.35
585.936	0.35
586.382	0.34
586.829	0.34
587.275	0.34
587.722	0.34
588.168	0.33
588.615	0.33
589.061	0.33
589.508	0.33
589.954	0.32
590.4	0.32
590.847	0.32
591.293	0.32
591.739	0.32
592.185	0.31
592.632	0.31
593.078	0.31
593.524	0.31
593.97	0.31
594.416	0.31
594.862	0.31
595.308	0.3
595.754	0.3
596.2	0.3
596.646	0.3
597.092	0.3
597.538	0.3
597.984	0.3
598.43	0.3
598.876	0.3
599.321	0.3
599.767	0.3
600.213	0.29
600.659	0.29
601.104	0.29
601.55	0.29
601.995	0.29
602.441	0.29
602.887	0.29
603.332	0.29
603.778	0.29
604.223	0.29
604.668	0.29
605.114	0.29
605.559	0.29
606.005	0.29
606.45	0.29
606.895	0.29
607.341	0.29
607.786	0.29
608.231	0.29
608.676	0.29
609.121	0.29
609.566	0.28
610.012	0.28
610.457	0.28
610.902	0.28
611.347	0.29
611.792	0.29
612.237	0.29
612.682	0.29
613.127	0.29
613.571	0.29
614.016	0.29
614.461	0.29
614.906	0.29
615.351	0.29
615.795	0.29
616.24	0.29
616.685	0.29
617.129	0.29
617.574	0.29
618.019	0.29
618.463	0.29
618.908	0.29
619.352	0.29
619.797	0.29
620.241	0.3
620.686	0.3
621.13	0.3
621.574	0.3
622.019	0.3
622.463	0.3
622.907	0.3
623.352	0.3
623.796	0.31
624.24	0.31
624.684	0.31
625.128	0.31
625.572	0.31
626.016	0.31
626.461	0.32
626.905	0.32
627.349	0.32
627.793	0.32
628.236	0.33
628.68	0.33
629.124	0.33
629.568	0.33
630.012	0.34
630.456	0.34
630.9	0.34
631.343	0.34
631.787	0.34
632.231	0.35
632.674	0.35
633.118	0.35
633.562	0.36
634.005	0.36
634.449	0.36
634.892	0.36
635.336	0.37
635.779	0.37
636.223	0.37
636.666	0.38
637.109	0.38
637.553	0.38
637.996	0.39
638.439	0.39
638.883	0.39
639.326	0.4
639.769	0.4
640.212	0.41
640.655	0.41
641.099	0.42
641.542	0.42
641.985	0.43
642.428	0.43
642.871	0.43
643.314	0.44
643.757	0.44
644.2	0.45
644.643	0.45
645.085	0.46
645.528	0.46
645.971	0.47
646.414	0.47
646.857	0.48
647.299	0.48
647.742	0.49
648.185	0.49
648.627	0.5
649.07	0.5
649.513	0.51
649.955	0.52
650.398	0.52
650.84	0.53
651.283	0.53
651.725	0.54
652.168	0.54
652.61	0.55
653.052	0.56
653.495	0.56
653.937	0.48
654.379	0.45
654.821	0.46
655.264	0.47
655.706	0.47
656.148	0.47
656.59	0.48
657.032	0.48
657.474	0.48
657.916	0.48
658.358	0.49
658.8	0.57
659.242	0.65
659.684	0.65
660.126	0.66
660.568	0.66
661.01	0.67
661.452	0.67
661.894	0.68
662.335	0.68
662.777	0.69
663.219	0.7
663.661	0.7
664.102	0.71
664.544	0.71
664.985	0.72
665.427	0.73
665.869	0.73
666.31	0.74
666.752	0.74
667.193	0.75
667.634	0.75
668.076	0.76
668.517	0.76
668.959	0.77
669.4	0.78
669.841	0.78
670.282	0.79
670.724	0.8
671.165	0.8
671.606	0.8
672.047	0.81
672.488	0.81
672.929	0.82
673.37	0.82
673.811	0.82
674.252	0.83
674.693	0.83
675.134	0.83
675.575	0.83
676.016	0.84
676.457	0.84
676.898	0.84
677.339	0.84
677.78	0.85
678.22	0.85
678.661	0.85
679.102	0.85
679.542	0.86
679.983	0.86
680.424	0.86
680.864	0.86
681.305	0.86
681.745	0.86
682.186	0.86
682.626	0.86
683.067	0.87
683.507	0.87
683.948	0.87
684.388	0.87
684.828	0.87
685.269	0.87
685.709	0.87
686.149	0.87
686.589	0.88
687.029	0.87
687.47	0.87
687.91	0.87
688.35	0.87
688.79	0.87
689.23	0.87
689.67	0.87
690.11	0.87
690.55	0.87
690.99	0.87
691.43	0.87
691.87	0.86
692.31	0.86
692.749	0.86
693.189	0.86
693.629	0.86
694.069	0.86
694.508	0.85
694.948	0.85
695.388	0.85
695.827	0.85
696.267	0.85
696.706	0.84
697.146	0.84
697.586	0.84
698.025	0.83
698.464	0.83
698.904	0.83
699.343	0.82
699.783	0.82
700.222	0.81
700.661	0.81
701.101	0.8
701.54	0.8
701.979	0.79
702.418	0.79
702.857	0.79
703.297	0.78
703.736	0.78
704.175	0.77
704.614	0.77
705.053	0.77
705.492	0.76
705.931	0.76
706.37	0.75
706.809	0.75
707.248	0.74
707.687	0.74
708.125	0.74
708.564	0.73
709.003	0.73
709.442	0.72
709.88	0.71
710.319	0.71
710.758	0.7
711.196	0.7
711.635	0.69
712.074	0.69
712.512	0.68
712.951	0.67
713.389	0.67
713.828	0.66
714.266	0.66
714.705	0.65
715.143	0.65
715.581	0.64
716.02	0.63
716.458	0.63
716.896	0.62
717.334	0.62
717.773	0.61
718.211	0.61
718.649	0.6
719.087	0.6
719.525	0.59
719.963	0.59
720.401	0.58
720.839	0.57
721.277	0.57
721.715	0.56
722.153	0.56
722.591	0.55
723.029	0.55
723.467	0.54
723.905	0.53
724.342	0.53
724.78	0.52
725.218	0.52
725.656	0.51
726.093	0.51
726.531	0.5
726.969	0.5
727.406	0.49
727.844	0.49
728.281	0.48
728.719	0.48
729.156	0.48
729.594	0.47
730.031	0.47
730.469	0.46
730.906	0.46
731.343	0.45
731.781	0.45
732.218	0.45
732.655	0.44
733.092	0.44
733.53	0.43
733.967	0.43
734.404	0.42
734.841	0.42
735.278	0.42
735.715	0.41
736.152	0.41
736.589	0.4
737.026	0.4
737.463	0.4
737.9	0.39
738.337	0.39
738.774	0.38
739.211	0.38
739.647	0.37
740.084	0.37
740.521	0.36
740.958	0.36
741.394	0.36
741.831	0.35
742.268	0.35
742.704	0.34
743.141	0.34
743.577	0.33
744.014	0.33
744.45	0.32
744.887	0.32
745.323	0.31
745.76	0.31
746.196	0.31
746.632	0.3
747.069	0.3
747.505	0.3
747.941	0.29
748.378	0.29
748.814	0.29
749.25	0.29
749.686	0.28
750.122	0.28
750.558	0.28
750.994	0.28
751.43	0.27
751.866	0.27
752.302	0.27
752.738	0.27
753.174	0.26
753.61	0.26
754.046	0.26
754.482	0.26
754.918	0.26
755.354	0.25
755.789	0.25
756.225	0.25
756.661	0.24
757.096	0.24
757.532	0.24
757.968	0.24
758.403	0.24
758.839	0.23
759.274	0.23
759.71	0.23
760.145	0.22
760.581	0.22
761.016	0.22
761.452	0.21
761.887	0.21
762.322	0.21
762.758	0.21
763.193	0.2
763.628	0.2
764.063	0.2
764.499	0.19
764.934	0.19
765.369	0.19
765.804	0.19
766.239	0.18
766.674	0.18
767.109	0.18
767.544	0.17
767.979	0.17
768.414	0.17
768.849	0.17
769.284	0.16
769.719	0.16
770.154	0.16
770.588	0.15
771.023	0.15
771.458	0.15
771.893	0.14
772.327	0.14
772.762	0.14
773.197	0.14
773.631	0.13
774.066	0.13
774.5	0.13
774.935	0.12
775.369	0.12
775.804	0.12
776.238	0.11
776.673	0.11
777.107	0.11
777.541	0.1
777.976	0.1
778.41	0.1
778.844	0.09
779.279	0.09
779.713	0.08
780.147	0.08
780.581	0.08
781.015	0.07
781.449	0.06
781.883	0.06
782.317	0.05
782.751	0.04
783.185	0.04
783.619	0.03
784.053	0.02
784.487	0.01
784.921	0.01
785.355	-0
785.789	-0.01
786.223	-0.02
786.656	-0.02
787.09	-0.02
787.524	-0.03
787.957	-0.04
788.391	-0.04
788.825	-0.05
789.258	-0.05
789.692	-0.05
790.125	-0.06
790.559	-0.06
790.992	-0.06
791.426	-0.06
791.859	-0.06
792.293	-0.05
792.726	-0.05
793.159	-0.04
793.593	-0.04
794.026	-0.04
794.459	-0.05
794.892	-0.05
795.326	-0.05
795.759	-0.05
796.192	-0.05
796.625	-0.06
797.058	-0.07
797.491	-0.07
797.924	-0.08
798.357	-0.08
798.79	-0.08
799.223	-0.08
799.656	-0.08
800.089	-0.09
800.522	-0.09
800.955	-0.09
801.387	-0.09
801.82	-0.09
802.253	-0.09
802.686	-0.09
803.118	-0.09
803.551	-0.09
803.984	-0.09
804.416	-0.08
804.849	-0.08
805.281	-0.07
805.714	-0.07
806.146	-0.07
806.579	-0.07
807.011	-0.07
807.444	-0.07
807.876	-0.07
808.308	-0.07
808.741	-0.07
809.173	-0.08
809.605	-0.08
810.037	-0.08
810.47	-0.09
810.902	-0.09
811.334	-0.09
811.766	-0.08
812.198	-0.08
812.63	-0.08
813.062	-0.08
813.494	-0.08
813.926	-0.08
814.358	-0.08
814.79	-0.08
815.222	-0.08
815.654	-0.07
816.086	-0.07
816.518	-0.08
816.949	-0.08
817.381	-0.08
817.813	-0.07
818.245	-0.06
818.676	-0.06
819.108	-0.05
819.54	-0.04
819.971	-0.04
820.403	-0.03
820.834	-0.02
821.266	-0.01
821.697	-0.01
822.129	-0
822.56	0.01
822.991	0.01
823.423	0.01
823.854	0.02
824.286	0.02
824.717	0.03
825.148	0.03
825.579	0.03
826.01	0.04
826.442	0.04
826.873	0.04
827.304	0.04
827.735	0.04
828.166	0.05
828.597	0.05
829.028	0.05
829.459	0.05
829.89	0.05
830.321	0.05
830.752	0.05
831.183	0.06
831.613	0.06
832.044	0.06
832.475	0.06
832.906	0.06
833.336	0.06
833.767	0.06
834.198	0.06
834.628	0.07
835.059	0.07
835.49	0.07
835.92	0.07
836.351	0.07
836.781	0.07
837.212	0.07
837.642	0.07
838.072	0.07
838.503	0.07
838.933	0.07
839.364	0.07
839.794	0.07
840.224	0.07
840.654	0.07
841.085	0.07
841.515	0.07
841.945	0.07
842.375	0.07
842.805	0.07
843.235	0.07
843.665	0.07
844.095	0.07
844.525	0.07
844.955	0.07
845.385	0.06
845.815	0.06
846.245	0.06
846.675	0.06
847.105	0.06
847.534	0.06
847.964	0.06
848.394	0.06
848.824	0.06
849.253	0.06
849.683	0.06
850.112	0.06
850.542	0.06
850.972	0.06
851.401	0.06
851.831	0.06
852.26	0.07
852.69	0.07
853.119	0.07
853.548	0.07
853.978	0.07
854.407	0.06
854.836	0.06
855.266	0.06
855.695	0.06
856.124	0.06
856.553	0.06
856.983	0.06
857.412	0.06
857.841	0.06
858.27	0.06
858.699	0.06
859.128	0.05
859.557	0.05
859.986	0.05
860.415	0.05
860.844	0.05
861.273	0.05
861.702	0.05
862.13	0.05
862.559	0.05
862.988	0.05
863.417	0.05
863.845	0.05
864.274	0.05
864.703	0.05
865.131	0.05
865.56	0.05
865.989	0.05
866.417	0.05
866.846	0.05
867.274	0.05
867.703	0.05
868.131	0.05
868.559	0.05
868.988	0.05
869.416	0.05
869.844	0.05
870.273	0.05
870.701	0.05
871.129	0.05
871.557	0.05
871.986	0.05
872.414	0.05
872.842	0.05
873.27	0.05
873.698	0.05
874.126	0.05
874.554	0.05
874.982	0.05
875.41	0.05
875.838	0.05
876.266	0.05
876.694	0.05
877.122	0.05
877.549	0.05
877.977	0.05
878.405	0.05
878.833	0.05
879.26	0.05
879.688	0.05
880.116	0.05
880.543	0.05
880.971	0.05
881.399	0.05
881.826	0.05
882.254	0.05
882.681	0.05
883.109	0.05
883.536	0.05
883.963	0.05
884.391	0.05
884.818	0.05
885.245	0.05
885.673	0.05
886.1	0.05
886.527	0.05
886.954	0.05
887.381	0.05
887.809	0.05
888.236	0.05
888.663	0.05
889.09	0.05
889.517	0.05
889.944	0.05
890.371	0.05
890.798	0.05
891.225	0.05
891.652	0.05
892.078	0.05
892.505	0.05
892.932	0.05
893.359	0.05
893.786	0.05
894.212	0.05
894.639	0.05
895.066	0.05
895.492	0.05
895.919	0.05
896.346	0.05
896.772	0.05
897.199	0.05
897.625	0.05
898.052	0.05
898.478	0.05
898.904	0.05
899.331	0.05
899.757	0.05
900.183	0.05
900.61	0.05
901.036	0.05
901.462	0.05
901.888	0.05
902.315	0.05
902.741	0.05
903.167	0.05
903.593	0.05
904.019	0.05
904.445	0.05
904.871	0.05
905.297	0.05
905.723	0.05
906.149	0.05
906.575	0.05
907.001	0.05
907.427	0.05
907.852	0.05
908.278	0.05
908.704	0.05
909.13	0.05
909.555	0.05
909.981	0.04
910.407	0.04
910.832	0.04
911.258	0.04
911.684	0.05
912.109	0.05
912.535	0.05
912.96	0.05
913.386	0.05
913.811	0.05
914.236	0.05
914.662	0.05
915.087	0.05
915.512	0.05
915.938	0.05
916.363	0.05
916.788	0.05
917.213	0.05
917.639	0.05
918.064	0.05
918.489	0.05
918.914	0.05
919.339	0.05
919.764	0.05
920.189	0.05
920.614	0.05
921.039	0.05
921.464	0.05
921.889	0.05
922.314	0.05
922.738	0.05
923.163	0.05
923.588	0.05
924.013	0.05
924.437	0.05
924.862	0.05
925.287	0.05
925.711	0.05
926.136	0.05
926.561	0.05
926.985	0.05
927.41	0.05
927.834	0.05
928.259	0.05
928.683	0.05
929.108	0.05
929.532	0.05
929.956	0.05
930.381	0.05
930.805	0.05
931.229	0.04
931.653	0.04
932.078	0.04
932.502	0.04
932.926	0.04
933.35	0.04
933.774	0.04
934.198	0.04
934.622	0.04
935.046	0.03
935.47	0.03
935.894	0.03
936.318	0.03
936.742	0.04
937.166	0.04
937.59	0.04
938.014	0.04
938.437	0.04
938.861	0.04
939.285	0.04
939.709	0.04
940.132	0.04
940.556	0.04
940.98	0.04
941.403	0.04
941.827	0.04
942.25	0.04
942.674	0.04
943.097	0.04
943.521	0.04
943.944	0.04
944.368	0.04
944.791	0.04
945.214	0.04
945.638	0.04
946.061	0.04
946.484	0.04
946.907	0.04
947.331	0.04
947.754	0.04
948.177	0.04
948.6	0.04
949.023	0.04
949.446	0.04
949.869	0.04
950.292	0.04
950.715	0.03
951.138	0.03
951.561	0.03
951.984	0.03
952.407	0.03
952.83	0.03
953.252	0.03
953.675	0.03
954.098	0.03
954.521	0.03
954.943	0.03
955.366	0.03
955.789	0.03
956.211	0.03
956.634	0.03
957.056	0.03
957.479	0.03
957.902	0.03
958.324	0.03
958.746	0.03
959.169	0.04
959.591	0.04
960.014	0.04
960.436	0.04
960.858	0.04
961.281	0.04
961.703	0.04
962.125	0.04
962.547	0.04
962.969	0.04
963.391	0.04
963.814	0.04
964.236	0.04
964.658	0.04
965.08	0.04
965.502	0.04
965.924	0.04
966.346	0.04
966.768	0.04
967.189	0.04
967.611	0.04
968.033	0.04
968.455	0.04
968.877	0.04
969.298	0.04
969.72	0.04
970.142	0.04
970.563	0.04
970.985	0.04
971.407	0.04
971.828	0.04
972.25	0.04
972.671	0.04
973.093	0.04
973.514	0.04
973.936	0.04
974.357	0.04
974.778	0.04
975.2	0.04
975.621	0.04
976.042	0.04
976.464	0.04
976.885	0.04
977.306	0.04
977.727	0.04
978.148	0.04
978.57	0.04
978.991	0.04
979.412	0.04
979.833	0.04
980.254	0.04
980.675	0.04
981.096	0.03
981.517	0.03
981.937	0.03
982.358	0.03
982.779	0.03
983.2	0.03
983.621	0.03
984.042	0.03
984.462	0.03
984.883	0.03
985.304	0.03
985.724	0.03
986.145	0.04
986.565	0.04
986.986	0.04
987.407	0.04
987.827	0.04
988.248	0.04
988.668	0.04
989.088	0.04
989.509	0.04
989.929	0.04
990.35	0.04
990.77	0.04
991.19	0.03
991.61	0.03
992.031	0.03
992.451	0.03
992.871	0.03
993.291	0.03
993.711	0.03
994.131	0.03
994.551	0.03
994.971	0.03
995.391	0.02
995.811	0.02
996.231	0.02
996.651	0.02
997.071	0.02
997.491	0.02
997.911	0.02
998.331	0.03
998.75	0.03
999.17	0.03
999.59	0.03
1000.009	0.03
1000.429	0.03
1000.849	0.03
1001.268	0.03
1001.688	0.03
1002.107	0.03
1002.527	0.03
1002.946	0.03
1003.366	0.03
1003.785	0.03
1004.205	0.03
1004.624	0.03
1005.044	0.03
1005.463	0.03
1005.882	0.03
1006.301	0.03
1006.721	0.03
1007.14	0.03
1007.559	0.03
1007.978	0.03
1008.397	0.02
1008.816	0.02
1009.235	0.02
1009.655	0.02
1010.074	0.02
1010.492	0.02
1010.911	0.02
1011.33	0.02
1011.749	0.02
1012.168	0.02
1012.587	0.02
1013.006	0.02
1013.425	0.02
1013.843	0.02
1014.262	0.02
1014.681	0.02
1015.099	0.02
1015.518	0.02
1015.937	0.02
1016.355	0.02
1016.774	0.02
1017.192	0.02
1017.611	0.02
1018.029	0.02
1018.448	0.02
1018.866	0.02
1019.285	0.02
1019.703	0.02
1020.121	0.02
1020.54	0.02
1020.958	0.02
1021.376	0.02
1021.794	0.02
1022.213	0.02
1022.631	0.03
1023.049	0.03
1023.467	0.03
1023.885	0.03
1024.303	0.03
1024.721	0.03
1025.139	0.03
1025.557	0.03
1025.975	0.03
1026.393	0.03
1026.811	0.03
1027.229	0.03
1027.647	0.03
1028.065	0.03
1028.482	0.03
1028.9	0.03
1029.318	0.03
1029.735	0.04
1030.153	0.04
1030.571	0.04
1030.988	0.04
1031.406	0.04
1031.823	0.04
1032.241	0.04
1032.659	0.04
1033.076	0.04
1033.493	0.04
1033.911	0.04
1034.328	0.04
1034.746	0.03
1035.163	0.03
1035.58	0.03
1035.997	0.03
1036.415	0.03
1036.832	0.03
1037.249	0.03
1037.666	0.03
1038.083	0.03
1038.501	0.03
1038.918	0.03
1039.335	0.03
1039.752	0.03
1040.169	0.03
1040.586	0.03
1041.003	0.03
1041.419	0.03
1041.836	0.03
1042.253	0.03
1042.67	0.03
1043.087	0.03
1043.504	0.03
1043.92	0.03
1044.337	0.03
1044.754	0.03
1045.17	0.03
1045.587	0.03
1046.004	0.03
1046.42	0.03
1046.837	0.03
1047.253	0.03
1047.67	0.03
1048.086	0.03
1048.503	0.03
1048.919	0.03
1049.335	0.03
1049.752	0.03
1050.168	0.03
1050.584	0.03
1051.001	0.03
1051.417	0.03
1051.833	0.03
1052.249	0.03
1052.665	0.03
1053.081	0.03
1053.497	0.03
1053.914	0.03
1054.33	0.03
1054.746	0.03
1055.162	0.03
1055.578	0.03
1055.993	0.03
1056.409	0.03
1056.825	0.03
1057.241	0.03
1057.657	0.03
1058.073	0.03
1058.488	0.03
1058.904	0.03
1059.32	0.03
1059.736	0.02
1060.151	0.02
1060.567	0.02
1060.982	0.02
1061.398	0.02
1061.813	0.02
1062.229	0.02
1062.644	0.02
1063.06	0.02
1063.475	0.02
1063.891	0.02
1064.306	0.02
1064.721	0.02
1065.137	0.02
1065.552	0.02
1065.967	0.02
1066.382	0.02
1066.798	0.02
1067.213	0.02
1067.628	0.02
1068.043	0.02
1068.458	0.02
1068.873	0.02
1069.288	0.02
1069.703	0.02
1070.118	0.02
1070.533	0.02
1070.948	0.02
1071.363	0.02
1071.778	0.02
1072.193	0.02
1072.607	0.02
1073.022	0.02
1073.437	0.02
1073.852	0.02
1074.266	0.02
1074.681	0.02
1075.096	0.02
1075.51	0.02
1075.925	0.02
1076.339	0.02
1076.754	0.02
1077.168	0.02
1077.583	0.02
1077.997	0.02
1078.412	0.02
1078.826	0.02
1079.24	0.02
1079.655	0.02
1080.069	0.02
1080.483	0.02
1080.897	0.02
1081.312	0.02
1081.726	0.02
1082.14	0.02
1082.554	0.02
1082.968	0.02
1083.382	0.02
1083.796	0.02
1084.21	0.02
1084.624	0.03
1085.038	0.03
1085.452	0.03
1085.866	0.03
1086.28	0.03
1086.694	0.03
1087.108	0.03
1087.521	0.03
1087.935	0.03
1088.349	0.03
1088.763	0.03
1089.176	0.03
1089.59	0.03
1090.004	0.03
1090.417	0.04
1090.831	0.04
1091.244	0.04
1091.658	0.04
1092.071	0.04
1092.485	0.04
1092.898	0.04
1093.312	0.05
1093.725	0.05
1094.138	0.05
1094.552	0.05
1094.965	0.05
1095.378	0.06
1095.791	0.06
1096.205	0.06
1096.618	0.06
1097.031	0.06
1097.444	0.07
1097.857	0.07
1098.27	0.07
1098.683	0.07
1099.096	0.08
1099.509	0.08
1099.922	0.08
1100.335	0.09
1100.748	0.09
1101.161	0.09
1101.574	0.09
1101.986	0.1
1102.399	0.1
1102.812	0.11
1103.225	0.11
1103.637	0.12
1104.05	0.13
1104.463	0.13
1104.875	0.14
1105.288	0.15
1105.7	0.16
1106.113	0.17
1106.525	0.17
1106.938	0.18
1107.35	0.2
1107.763	0.25
1108.175	0.32
1108.588	0.42
1109	0.61
1109.412	0.79
1109.824	1.42
1110.237	-0
1110.649	-0
1111.061	-0
