Data from unagg-15c-2a-1h_Absorbance__55__00482.txt Node

Date: Mon May 06 09:34:34 CEST 2024
User: Laser008
Spectrometer: MAYP115816
Trigger mode: 0
Integration Time (sec): 2.000000E-1
Scans to average: 10
Electric dark correction enabled: true
Nonlinearity correction enabled: true
Boxcar width: 5
XAxis mode: Wavelengths
Number of Pixels in Spectrum: 2068
>>>>>Begin Spectral Data<<<<<
198.914	-1.81
199.384	-1.67
199.855	-1.53
200.325	-1.4
200.796	-1.32
201.266	-1.27
201.737	-1.2
202.207	-1.14
202.677	-1.09
203.147	-1.04
203.618	-1.01
204.088	-0.99
204.558	-0.97
205.028	-0.96
205.498	-0.95
205.968	-0.95
206.439	-0.95
206.909	-0.95
207.379	-0.94
207.849	-0.94
208.319	-0.94
208.789	-0.94
209.258	-0.93
209.728	-0.93
210.198	-0.93
210.668	-0.93
211.138	-0.93
211.608	-0.93
212.077	-0.93
212.547	-0.93
213.017	-0.93
213.486	-0.93
213.956	-0.92
214.426	-0.93
214.895	-0.92
215.365	-0.92
215.834	-0.92
216.304	-0.92
216.773	-0.91
217.243	-0.91
217.712	-0.91
218.181	-0.91
218.651	-0.9
219.12	-0.9
219.589	-0.9
220.058	-0.9
220.528	-0.9
220.997	-0.89
221.466	-0.89
221.935	-0.89
222.404	-0.88
222.873	-0.88
223.342	-0.87
223.812	-0.86
224.281	-0.85
224.749	-0.85
225.218	-0.84
225.687	-0.82
226.156	-0.81
226.625	-0.8
227.094	-0.78
227.563	-0.76
228.031	-0.75
228.5	-0.72
228.969	-0.7
229.438	-0.67
229.906	-0.64
230.375	-0.6
230.844	-0.57
231.312	-0.52
231.781	-0.48
232.249	-0.43
232.718	-0.39
233.186	-0.34
233.655	-0.29
234.123	-0.24
234.591	-0.19
235.06	-0.14
235.528	-0.09
235.996	-0.04
236.465	0.01
236.933	0.05
237.401	0.1
237.869	0.14
238.337	0.18
238.805	0.22
239.274	0.26
239.742	0.29
240.21	0.33
240.678	0.36
241.146	0.39
241.614	0.42
242.081	0.44
242.549	0.47
243.017	0.49
243.485	0.51
243.953	0.53
244.421	0.55
244.888	0.57
245.356	0.59
245.824	0.6
246.291	0.62
246.759	0.63
247.227	0.64
247.694	0.66
248.162	0.67
248.629	0.68
249.097	0.69
249.564	0.7
250.032	0.71
250.499	0.72
250.967	0.73
251.434	0.73
251.901	0.74
252.369	0.75
252.836	0.76
253.303	0.76
253.77	0.77
254.237	0.77
254.705	0.78
255.172	0.78
255.639	0.79
256.106	0.79
256.573	0.8
257.04	0.8
257.507	0.8
257.974	0.81
258.441	0.81
258.908	0.81
259.375	0.81
259.841	0.82
260.308	0.82
260.775	0.82
261.242	0.82
261.709	0.82
262.175	0.82
262.642	0.82
263.109	0.83
263.575	0.83
264.042	0.83
264.508	0.83
264.975	0.83
265.441	0.83
265.908	0.83
266.374	0.83
266.841	0.83
267.307	0.83
267.773	0.83
268.24	0.83
268.706	0.82
269.172	0.82
269.639	0.82
270.105	0.82
270.571	0.82
271.037	0.82
271.503	0.82
271.969	0.81
272.435	0.81
272.902	0.81
273.368	0.81
273.834	0.81
274.3	0.81
274.765	0.81
275.231	0.8
275.697	0.8
276.163	0.8
276.629	0.8
277.095	0.79
277.56	0.79
278.026	0.79
278.492	0.78
278.958	0.78
279.423	0.78
279.889	0.77
280.354	0.77
280.82	0.77
281.286	0.77
281.751	0.77
282.217	0.77
282.682	0.77
283.147	0.76
283.613	0.76
284.078	0.76
284.544	0.76
285.009	0.76
285.474	0.75
285.939	0.75
286.405	0.75
286.87	0.75
287.335	0.75
287.8	0.74
288.265	0.74
288.73	0.74
289.195	0.74
289.66	0.73
290.125	0.73
290.59	0.73
291.055	0.73
291.52	0.73
291.985	0.72
292.45	0.72
292.915	0.72
293.38	0.72
293.844	0.72
294.309	0.72
294.774	0.71
295.239	0.71
295.703	0.71
296.168	0.71
296.632	0.71
297.097	0.7
297.562	0.7
298.026	0.7
298.491	0.7
298.955	0.7
299.419	0.7
299.884	0.7
300.348	0.69
300.813	0.69
301.277	0.69
301.741	0.69
302.205	0.69
302.67	0.69
303.134	0.69
303.598	0.69
304.062	0.68
304.526	0.68
304.99	0.68
305.454	0.68
305.919	0.68
306.383	0.68
306.847	0.68
307.31	0.68
307.774	0.67
308.238	0.67
308.702	0.67
309.166	0.67
309.63	0.67
310.094	0.67
310.557	0.67
311.021	0.67
311.485	0.66
311.948	0.66
312.412	0.66
312.876	0.66
313.339	0.66
313.803	0.66
314.266	0.66
314.73	0.66
315.193	0.65
315.657	0.65
316.12	0.65
316.584	0.65
317.047	0.65
317.51	0.65
317.973	0.65
318.437	0.64
318.9	0.64
319.363	0.64
319.826	0.64
320.29	0.64
320.753	0.64
321.216	0.64
321.679	0.64
322.142	0.63
322.605	0.63
323.068	0.63
323.531	0.63
323.994	0.63
324.457	0.63
324.92	0.63
325.382	0.62
325.845	0.62
326.308	0.62
326.771	0.62
327.233	0.62
327.696	0.62
328.159	0.62
328.622	0.62
329.084	0.62
329.547	0.61
330.009	0.61
330.472	0.61
330.934	0.61
331.397	0.61
331.859	0.61
332.322	0.61
332.784	0.61
333.246	0.6
333.709	0.6
334.171	0.6
334.633	0.6
335.096	0.6
335.558	0.6
336.02	0.6
336.482	0.6
336.944	0.59
337.406	0.59
337.868	0.59
338.331	0.59
338.793	0.59
339.255	0.59
339.717	0.59
340.178	0.59
340.64	0.59
341.102	0.59
341.564	0.58
342.026	0.58
342.488	0.58
342.949	0.58
343.411	0.58
343.873	0.58
344.335	0.58
344.796	0.58
345.258	0.58
345.719	0.58
346.181	0.58
346.643	0.57
347.104	0.57
347.566	0.57
348.027	0.57
348.488	0.57
348.95	0.57
349.411	0.57
349.873	0.57
350.334	0.57
350.795	0.57
351.256	0.57
351.718	0.56
352.179	0.56
352.64	0.56
353.101	0.56
353.562	0.56
354.023	0.56
354.484	0.56
354.945	0.56
355.406	0.55
355.867	0.55
356.328	0.55
356.789	0.55
357.25	0.55
357.711	0.55
358.172	0.55
358.633	0.55
359.093	0.55
359.554	0.55
360.015	0.55
360.476	0.55
360.936	0.55
361.397	0.55
361.858	0.56
362.318	0.56
362.779	0.56
363.239	0.56
363.7	0.55
364.16	0.55
364.621	0.55
365.081	0.55
365.541	0.55
366.002	0.55
366.462	0.55
366.922	0.55
367.383	0.55
367.843	0.55
368.303	0.55
368.763	0.55
369.223	0.55
369.684	0.55
370.144	0.55
370.604	0.55
371.064	0.55
371.524	0.55
371.984	0.55
372.444	0.55
372.904	0.54
373.363	0.54
373.823	0.54
374.283	0.54
374.743	0.54
375.203	0.54
375.663	0.54
376.122	0.54
376.582	0.54
377.042	0.54
377.501	0.54
377.961	0.54
378.42	0.54
378.88	0.54
379.34	0.54
379.799	0.54
380.259	0.54
380.718	0.54
381.177	0.54
381.637	0.54
382.096	0.54
382.555	0.54
383.015	0.54
383.474	0.54
383.933	0.54
384.393	0.54
384.852	0.54
385.311	0.54
385.77	0.54
386.229	0.54
386.688	0.54
387.147	0.54
387.606	0.54
388.065	0.54
388.524	0.54
388.983	0.54
389.442	0.54
389.901	0.54
390.36	0.54
390.819	0.54
391.277	0.54
391.736	0.54
392.195	0.54
392.654	0.54
393.112	0.54
393.571	0.54
394.03	0.54
394.488	0.54
394.947	0.53
395.405	0.53
395.864	0.53
396.322	0.53
396.781	0.53
397.239	0.53
397.698	0.53
398.156	0.53
398.614	0.53
399.073	0.53
399.531	0.53
399.989	0.53
400.447	0.53
400.905	0.53
401.364	0.53
401.822	0.53
402.28	0.53
402.738	0.53
403.196	0.53
403.654	0.53
404.112	0.53
404.57	0.53
405.028	0.52
405.486	0.52
405.944	0.52
406.402	0.52
406.859	0.52
407.317	0.52
407.775	0.52
408.233	0.52
408.691	0.52
409.148	0.52
409.606	0.52
410.064	0.52
410.521	0.52
410.979	0.52
411.436	0.52
411.894	0.52
412.351	0.52
412.809	0.52
413.266	0.51
413.724	0.51
414.181	0.51
414.638	0.51
415.096	0.51
415.553	0.51
416.01	0.51
416.467	0.51
416.925	0.51
417.382	0.51
417.839	0.51
418.296	0.51
418.753	0.51
419.21	0.51
419.667	0.51
420.124	0.51
420.581	0.51
421.038	0.51
421.495	0.51
421.952	0.51
422.409	0.51
422.866	0.51
423.322	0.51
423.779	0.51
424.236	0.51
424.693	0.51
425.149	0.51
425.606	0.51
426.063	0.51
426.519	0.51
426.976	0.51
427.433	0.51
427.889	0.51
428.346	0.51
428.802	0.51
429.258	0.51
429.715	0.51
430.171	0.51
430.628	0.51
431.084	0.51
431.54	0.51
431.997	0.51
432.453	0.51
432.909	0.5
433.365	0.5
433.821	0.5
434.277	0.5
434.734	0.5
435.19	0.5
435.646	0.5
436.102	0.5
436.558	0.5
437.014	0.5
437.47	0.5
437.925	0.5
438.381	0.5
438.837	0.5
439.293	0.5
439.749	0.5
440.205	0.5
440.66	0.5
441.116	0.5
441.572	0.5
442.027	0.5
442.483	0.5
442.939	0.5
443.394	0.5
443.85	0.5
444.305	0.5
444.761	0.5
445.216	0.5
445.672	0.5
446.127	0.5
446.582	0.5
447.038	0.5
447.493	0.5
447.948	0.5
448.403	0.5
448.859	0.5
449.314	0.5
449.769	0.5
450.224	0.5
450.679	0.5
451.134	0.49
451.589	0.49
452.044	0.49
452.499	0.49
452.954	0.49
453.409	0.49
453.864	0.49
454.319	0.49
454.774	0.49
455.229	0.49
455.684	0.49
456.138	0.49
456.593	0.49
457.048	0.49
457.503	0.49
457.957	0.49
458.412	0.49
458.866	0.49
459.321	0.49
459.776	0.49
460.23	0.49
460.685	0.49
461.139	0.49
461.593	0.49
462.048	0.49
462.502	0.49
462.957	0.49
463.411	0.49
463.865	0.49
464.319	0.49
464.774	0.49
465.228	0.49
465.682	0.49
466.136	0.49
466.59	0.49
467.044	0.49
467.499	0.49
467.953	0.49
468.407	0.48
468.861	0.48
469.315	0.48
469.768	0.48
470.222	0.48
470.676	0.48
471.13	0.48
471.584	0.48
472.038	0.48
472.491	0.48
472.945	0.48
473.399	0.48
473.852	0.49
474.306	0.49
474.76	0.49
475.213	0.49
475.667	0.49
476.12	0.49
476.574	0.49
477.027	0.49
477.481	0.49
477.934	0.49
478.388	0.49
478.841	0.49
479.294	0.5
479.748	0.5
480.201	0.5
480.654	0.5
481.107	0.5
481.561	0.5
482.014	0.5
482.467	0.5
482.92	0.51
483.373	0.51
483.826	0.51
484.279	0.52
484.732	0.52
485.185	0.52
485.638	0.52
486.091	0.53
486.544	0.53
486.997	0.53
487.449	0.53
487.902	0.53
488.355	0.53
488.808	0.53
489.26	0.53
489.713	0.53
490.166	0.53
490.618	0.53
491.071	0.53
491.523	0.53
491.976	0.53
492.429	0.53
492.881	0.53
493.333	0.53
493.786	0.54
494.238	0.54
494.691	0.54
495.143	0.55
495.595	0.55
496.048	0.55
496.5	0.55
496.952	0.56
497.404	0.56
497.856	0.56
498.309	0.56
498.761	0.56
499.213	0.56
499.665	0.57
500.117	0.57
500.569	0.57
501.021	0.57
501.473	0.58
501.925	0.58
502.377	0.58
502.828	0.59
503.28	0.59
503.732	0.59
504.184	0.59
504.636	0.59
505.087	0.6
505.539	0.6
505.991	0.6
506.442	0.6
506.894	0.6
507.345	0.6
507.797	0.6
508.249	0.6
508.7	0.61
509.151	0.61
509.603	0.61
510.054	0.61
510.506	0.61
510.957	0.61
511.408	0.61
511.86	0.62
512.311	0.62
512.762	0.62
513.213	0.62
513.665	0.62
514.116	0.62
514.567	0.62
515.018	0.62
515.469	0.62
515.92	0.62
516.371	0.62
516.822	0.62
517.273	0.62
517.724	0.62
518.175	0.62
518.626	0.62
519.076	0.62
519.527	0.62
519.978	0.61
520.429	0.61
520.88	0.61
521.33	0.6
521.781	0.6
522.232	0.6
522.682	0.6
523.133	0.6
523.583	0.6
524.034	0.61
524.484	0.61
524.935	0.62
525.385	0.62
525.836	0.63
526.286	0.63
526.736	0.64
527.187	0.64
527.637	0.65
528.087	0.65
528.538	0.65
528.988	0.65
529.438	0.65
529.888	0.66
530.338	0.66
530.788	0.66
531.238	0.66
531.688	0.66
532.139	0.66
532.589	0.66
533.038	0.66
533.488	0.66
533.938	0.66
534.388	0.66
534.838	0.66
535.288	0.66
535.738	0.66
536.187	0.67
536.637	0.67
537.087	0.67
537.537	0.67
537.986	0.66
538.436	0.66
538.885	0.66
539.335	0.66
539.785	0.66
540.234	0.66
540.684	0.66
541.133	0.66
541.582	0.66
542.032	0.66
542.481	0.66
542.931	0.66
543.38	0.66
543.829	0.66
544.278	0.66
544.728	0.66
545.177	0.66
545.626	0.66
546.075	0.66
546.524	0.66
546.973	0.66
547.422	0.65
547.871	0.65
548.32	0.65
548.769	0.65
549.218	0.65
549.667	0.64
550.116	0.64
550.565	0.64
551.014	0.64
551.463	0.64
551.911	0.64
552.36	0.64
552.809	0.63
553.258	0.63
553.706	0.63
554.155	0.63
554.603	0.63
555.052	0.63
555.501	0.63
555.949	0.62
556.398	0.62
556.846	0.61
557.294	0.61
557.743	0.61
558.191	0.61
558.64	0.61
559.088	0.6
559.536	0.6
559.985	0.6
560.433	0.6
560.881	0.6
561.329	0.6
561.777	0.6
562.225	0.6
562.674	0.6
563.122	0.6
563.57	0.6
564.018	0.59
564.466	0.59
564.914	0.59
565.362	0.59
565.809	0.58
566.257	0.58
566.705	0.58
567.153	0.58
567.601	0.58
568.048	0.58
568.496	0.58
568.944	0.59
569.392	0.59
569.839	0.59
570.287	0.59
570.734	0.59
571.182	0.59
571.63	0.59
572.077	0.59
572.525	0.59
572.972	0.59
573.419	0.59
573.867	0.59
574.314	0.59
574.761	0.59
575.209	0.59
575.656	0.59
576.103	0.58
576.551	0.58
576.998	0.58
577.445	0.58
577.892	0.58
578.339	0.57
578.786	0.57
579.233	0.57
579.68	0.57
580.127	0.57
580.574	0.57
581.021	0.56
581.468	0.56
581.915	0.56
582.362	0.56
582.809	0.55
583.255	0.55
583.702	0.55
584.149	0.54
584.596	0.54
585.042	0.53
585.489	0.53
585.936	0.53
586.382	0.53
586.829	0.53
587.275	0.52
587.722	0.52
588.168	0.52
588.615	0.51
589.061	0.51
589.508	0.5
589.954	0.5
590.4	0.5
590.847	0.5
591.293	0.49
591.739	0.49
592.185	0.49
592.632	0.49
593.078	0.49
593.524	0.48
593.97	0.48
594.416	0.48
594.862	0.48
595.308	0.48
595.754	0.47
596.2	0.47
596.646	0.47
597.092	0.47
597.538	0.47
597.984	0.47
598.43	0.47
598.876	0.47
599.321	0.46
599.767	0.46
600.213	0.46
600.659	0.46
601.104	0.46
601.55	0.45
601.995	0.45
602.441	0.45
602.887	0.44
603.332	0.44
603.778	0.44
604.223	0.44
604.668	0.44
605.114	0.44
605.559	0.44
606.005	0.44
606.45	0.44
606.895	0.44
607.341	0.44
607.786	0.43
608.231	0.43
608.676	0.43
609.121	0.43
609.566	0.43
610.012	0.42
610.457	0.42
610.902	0.42
611.347	0.42
611.792	0.42
612.237	0.42
612.682	0.42
613.127	0.42
613.571	0.42
614.016	0.42
614.461	0.42
614.906	0.41
615.351	0.41
615.795	0.41
616.24	0.41
616.685	0.41
617.129	0.41
617.574	0.4
618.019	0.4
618.463	0.4
618.908	0.4
619.352	0.4
619.797	0.4
620.241	0.4
620.686	0.4
621.13	0.4
621.574	0.4
622.019	0.4
622.463	0.4
622.907	0.4
623.352	0.4
623.796	0.4
624.24	0.4
624.684	0.4
625.128	0.4
625.572	0.4
626.016	0.4
626.461	0.4
626.905	0.4
627.349	0.4
627.793	0.4
628.236	0.4
628.68	0.4
629.124	0.41
629.568	0.41
630.012	0.41
630.456	0.41
630.9	0.41
631.343	0.41
631.787	0.41
632.231	0.41
632.674	0.41
633.118	0.41
633.562	0.41
634.005	0.41
634.449	0.41
634.892	0.41
635.336	0.42
635.779	0.42
636.223	0.42
636.666	0.42
637.109	0.42
637.553	0.42
637.996	0.43
638.439	0.43
638.883	0.43
639.326	0.43
639.769	0.43
640.212	0.44
640.655	0.44
641.099	0.44
641.542	0.44
641.985	0.45
642.428	0.45
642.871	0.45
643.314	0.46
643.757	0.46
644.2	0.46
644.643	0.46
645.085	0.47
645.528	0.47
645.971	0.47
646.414	0.48
646.857	0.48
647.299	0.49
647.742	0.49
648.185	0.49
648.627	0.5
649.07	0.5
649.513	0.51
649.955	0.51
650.398	0.51
650.84	0.52
651.283	0.52
651.725	0.53
652.168	0.53
652.61	0.53
653.052	0.54
653.495	0.54
653.937	0.47
654.379	0.44
654.821	0.45
655.264	0.45
655.706	0.46
656.148	0.46
656.59	0.46
657.032	0.47
657.474	0.47
657.916	0.47
658.358	0.47
658.8	0.54
659.242	0.6
659.684	0.6
660.126	0.61
660.568	0.61
661.01	0.61
661.452	0.62
661.894	0.62
662.335	0.62
662.777	0.63
663.219	0.63
663.661	0.64
664.102	0.64
664.544	0.64
664.985	0.65
665.427	0.65
665.869	0.66
666.31	0.66
666.752	0.67
667.193	0.67
667.634	0.67
668.076	0.68
668.517	0.68
668.959	0.69
669.4	0.69
669.841	0.7
670.282	0.7
670.724	0.71
671.165	0.71
671.606	0.71
672.047	0.72
672.488	0.72
672.929	0.72
673.37	0.72
673.811	0.73
674.252	0.73
674.693	0.73
675.134	0.73
675.575	0.73
676.016	0.73
676.457	0.74
676.898	0.74
677.339	0.74
677.78	0.74
678.22	0.75
678.661	0.75
679.102	0.75
679.542	0.75
679.983	0.75
680.424	0.75
680.864	0.76
681.305	0.76
681.745	0.76
682.186	0.76
682.626	0.76
683.067	0.76
683.507	0.77
683.948	0.77
684.388	0.77
684.828	0.77
685.269	0.77
685.709	0.77
686.149	0.77
686.589	0.78
687.029	0.78
687.47	0.78
687.91	0.77
688.35	0.77
688.79	0.77
689.23	0.77
689.67	0.78
690.11	0.78
690.55	0.78
690.99	0.78
691.43	0.78
691.87	0.78
692.31	0.77
692.749	0.77
693.189	0.77
693.629	0.77
694.069	0.77
694.508	0.77
694.948	0.77
695.388	0.77
695.827	0.77
696.267	0.77
696.706	0.77
697.146	0.77
697.586	0.77
698.025	0.76
698.464	0.76
698.904	0.76
699.343	0.76
699.783	0.75
700.222	0.75
700.661	0.75
701.101	0.75
701.54	0.74
701.979	0.74
702.418	0.74
702.857	0.74
703.297	0.74
703.736	0.73
704.175	0.73
704.614	0.73
705.053	0.73
705.492	0.73
705.931	0.73
706.37	0.72
706.809	0.72
707.248	0.72
707.687	0.72
708.125	0.71
708.564	0.71
709.003	0.71
709.442	0.71
709.88	0.7
710.319	0.7
710.758	0.69
711.196	0.69
711.635	0.69
712.074	0.68
712.512	0.68
712.951	0.68
713.389	0.67
713.828	0.67
714.266	0.67
714.705	0.66
715.143	0.66
715.581	0.65
716.02	0.65
716.458	0.65
716.896	0.64
717.334	0.64
717.773	0.64
718.211	0.63
718.649	0.63
719.087	0.63
719.525	0.62
719.963	0.62
720.401	0.62
720.839	0.61
721.277	0.61
721.715	0.6
722.153	0.6
722.591	0.59
723.029	0.59
723.467	0.59
723.905	0.58
724.342	0.58
724.78	0.58
725.218	0.57
725.656	0.57
726.093	0.57
726.531	0.56
726.969	0.56
727.406	0.56
727.844	0.55
728.281	0.55
728.719	0.55
729.156	0.55
729.594	0.54
730.031	0.54
730.469	0.54
730.906	0.53
731.343	0.53
731.781	0.53
732.218	0.53
732.655	0.52
733.092	0.52
733.53	0.52
733.967	0.51
734.404	0.51
734.841	0.51
735.278	0.5
735.715	0.5
736.152	0.5
736.589	0.49
737.026	0.49
737.463	0.49
737.9	0.48
738.337	0.48
738.774	0.48
739.211	0.47
739.647	0.47
740.084	0.46
740.521	0.46
740.958	0.46
741.394	0.45
741.831	0.45
742.268	0.44
742.704	0.44
743.141	0.43
743.577	0.43
744.014	0.42
744.45	0.42
744.887	0.42
745.323	0.41
745.76	0.41
746.196	0.4
746.632	0.4
747.069	0.4
747.505	0.4
747.941	0.4
748.378	0.39
748.814	0.39
749.25	0.39
749.686	0.39
750.122	0.39
750.558	0.39
750.994	0.38
751.43	0.38
751.866	0.38
752.302	0.38
752.738	0.38
753.174	0.37
753.61	0.37
754.046	0.37
754.482	0.37
754.918	0.37
755.354	0.37
755.789	0.37
756.225	0.36
756.661	0.36
757.096	0.36
757.532	0.36
757.968	0.35
758.403	0.35
758.839	0.35
759.274	0.35
759.71	0.34
760.145	0.34
760.581	0.33
761.016	0.33
761.452	0.33
761.887	0.32
762.322	0.32
762.758	0.32
763.193	0.31
763.628	0.31
764.063	0.3
764.499	0.3
764.934	0.3
765.369	0.29
765.804	0.29
766.239	0.29
766.674	0.28
767.109	0.28
767.544	0.27
767.979	0.27
768.414	0.26
768.849	0.26
769.284	0.26
769.719	0.25
770.154	0.25
770.588	0.24
771.023	0.24
771.458	0.23
771.893	0.23
772.327	0.23
772.762	0.22
773.197	0.22
773.631	0.21
774.066	0.2
774.5	0.2
774.935	0.19
775.369	0.19
775.804	0.18
776.238	0.18
776.673	0.17
777.107	0.16
777.541	0.16
777.976	0.15
778.41	0.14
778.844	0.14
779.279	0.13
779.713	0.13
780.147	0.12
780.581	0.11
781.015	0.1
781.449	0.09
781.883	0.08
782.317	0.07
782.751	0.06
783.185	0.05
783.619	0.03
784.053	0.02
784.487	0.01
784.921	-0.01
785.355	-0.02
785.789	-0.03
786.223	-0.04
786.656	-0.04
787.09	-0.04
787.524	-0.05
787.957	-0.05
788.391	-0.06
788.825	-0.06
789.258	-0.06
789.692	-0.06
790.125	-0.06
790.559	-0.06
790.992	-0.06
791.426	-0.06
791.859	-0.06
792.293	-0.05
792.726	-0.04
793.159	-0.04
793.593	-0.04
794.026	-0.04
794.459	-0.04
794.892	-0.05
795.326	-0.05
795.759	-0.05
796.192	-0.05
796.625	-0.06
797.058	-0.07
797.491	-0.07
797.924	-0.08
798.357	-0.08
798.79	-0.08
799.223	-0.08
799.656	-0.08
800.089	-0.08
800.522	-0.09
800.955	-0.09
801.387	-0.09
801.82	-0.09
802.253	-0.09
802.686	-0.09
803.118	-0.09
803.551	-0.09
803.984	-0.08
804.416	-0.08
804.849	-0.07
805.281	-0.07
805.714	-0.07
806.146	-0.07
806.579	-0.07
807.011	-0.07
807.444	-0.07
807.876	-0.07
808.308	-0.07
808.741	-0.07
809.173	-0.08
809.605	-0.08
810.037	-0.08
810.47	-0.08
810.902	-0.09
811.334	-0.09
811.766	-0.08
812.198	-0.08
812.63	-0.08
813.062	-0.08
813.494	-0.08
813.926	-0.08
814.358	-0.08
814.79	-0.08
815.222	-0.07
815.654	-0.07
816.086	-0.07
816.518	-0.08
816.949	-0.08
817.381	-0.08
817.813	-0.08
818.245	-0.08
818.676	-0.07
819.108	-0.06
819.54	-0.06
819.971	-0.05
820.403	-0.05
820.834	-0.04
821.266	-0.03
821.697	-0.01
822.129	-0
822.56	0.01
822.991	0.02
823.423	0.03
823.854	0.04
824.286	0.04
824.717	0.05
825.148	0.06
825.579	0.07
826.01	0.08
826.442	0.08
826.873	0.09
827.304	0.09
827.735	0.1
828.166	0.1
828.597	0.1
829.028	0.11
829.459	0.11
829.89	0.11
830.321	0.12
830.752	0.12
831.183	0.12
831.613	0.13
832.044	0.13
832.475	0.13
832.906	0.13
833.336	0.13
833.767	0.14
834.198	0.14
834.628	0.14
835.059	0.14
835.49	0.14
835.92	0.14
836.351	0.15
836.781	0.15
837.212	0.15
837.642	0.15
838.072	0.15
838.503	0.15
838.933	0.15
839.364	0.15
839.794	0.15
840.224	0.15
840.654	0.15
841.085	0.15
841.515	0.15
841.945	0.15
842.375	0.15
842.805	0.15
843.235	0.15
843.665	0.15
844.095	0.15
844.525	0.15
844.955	0.15
845.385	0.14
845.815	0.14
846.245	0.14
846.675	0.14
847.105	0.14
847.534	0.14
847.964	0.14
848.394	0.14
848.824	0.14
849.253	0.14
849.683	0.14
850.112	0.15
850.542	0.15
850.972	0.15
851.401	0.15
851.831	0.15
852.26	0.15
852.69	0.15
853.119	0.15
853.548	0.15
853.978	0.15
854.407	0.15
854.836	0.15
855.266	0.15
855.695	0.14
856.124	0.14
856.553	0.14
856.983	0.14
857.412	0.14
857.841	0.14
858.27	0.14
858.699	0.14
859.128	0.14
859.557	0.13
859.986	0.13
860.415	0.13
860.844	0.13
861.273	0.13
861.702	0.13
862.13	0.13
862.559	0.13
862.988	0.13
863.417	0.13
863.845	0.13
864.274	0.13
864.703	0.13
865.131	0.13
865.56	0.13
865.989	0.13
866.417	0.13
866.846	0.13
867.274	0.13
867.703	0.13
868.131	0.13
868.559	0.13
868.988	0.13
869.416	0.13
869.844	0.13
870.273	0.13
870.701	0.13
871.129	0.13
871.557	0.13
871.986	0.13
872.414	0.13
872.842	0.13
873.27	0.12
873.698	0.12
874.126	0.12
874.554	0.12
874.982	0.12
875.41	0.12
875.838	0.12
876.266	0.12
876.694	0.12
877.122	0.12
877.549	0.12
877.977	0.12
878.405	0.12
878.833	0.12
879.26	0.12
879.688	0.12
880.116	0.12
880.543	0.12
880.971	0.12
881.399	0.12
881.826	0.12
882.254	0.12
882.681	0.12
883.109	0.12
883.536	0.12
883.963	0.12
884.391	0.12
884.818	0.12
885.245	0.12
885.673	0.13
886.1	0.13
886.527	0.13
886.954	0.13
887.381	0.13
887.809	0.13
888.236	0.13
888.663	0.13
889.09	0.13
889.517	0.12
889.944	0.12
890.371	0.12
890.798	0.12
891.225	0.12
891.652	0.12
892.078	0.12
892.505	0.12
892.932	0.12
893.359	0.12
893.786	0.12
894.212	0.12
894.639	0.12
895.066	0.12
895.492	0.12
895.919	0.12
896.346	0.12
896.772	0.12
897.199	0.12
897.625	0.12
898.052	0.12
898.478	0.12
898.904	0.11
899.331	0.11
899.757	0.11
900.183	0.11
900.61	0.11
901.036	0.12
901.462	0.12
901.888	0.12
902.315	0.12
902.741	0.12
903.167	0.12
903.593	0.12
904.019	0.12
904.445	0.12
904.871	0.12
905.297	0.12
905.723	0.12
906.149	0.11
906.575	0.11
907.001	0.11
907.427	0.11
907.852	0.11
908.278	0.11
908.704	0.11
909.13	0.11
909.555	0.11
909.981	0.11
910.407	0.11
910.832	0.11
911.258	0.11
911.684	0.11
912.109	0.11
912.535	0.11
912.96	0.11
913.386	0.11
913.811	0.11
914.236	0.11
914.662	0.11
915.087	0.11
915.512	0.11
915.938	0.11
916.363	0.11
916.788	0.11
917.213	0.11
917.639	0.11
918.064	0.11
918.489	0.11
918.914	0.11
919.339	0.11
919.764	0.11
920.189	0.11
920.614	0.11
921.039	0.11
921.464	0.11
921.889	0.11
922.314	0.11
922.738	0.11
923.163	0.11
923.588	0.11
924.013	0.11
924.437	0.11
924.862	0.11
925.287	0.11
925.711	0.11
926.136	0.11
926.561	0.11
926.985	0.11
927.41	0.11
927.834	0.11
928.259	0.11
928.683	0.11
929.108	0.11
929.532	0.11
929.956	0.11
930.381	0.1
930.805	0.1
931.229	0.1
931.653	0.1
932.078	0.1
932.502	0.1
932.926	0.1
933.35	0.09
933.774	0.09
934.198	0.09
934.622	0.09
935.046	0.09
935.47	0.09
935.894	0.09
936.318	0.09
936.742	0.09
937.166	0.09
937.59	0.09
938.014	0.09
938.437	0.09
938.861	0.09
939.285	0.1
939.709	0.1
940.132	0.1
940.556	0.1
940.98	0.1
941.403	0.1
941.827	0.1
942.25	0.1
942.674	0.1
943.097	0.1
943.521	0.1
943.944	0.1
944.368	0.1
944.791	0.1
945.214	0.1
945.638	0.1
946.061	0.09
946.484	0.09
946.907	0.09
947.331	0.09
947.754	0.09
948.177	0.09
948.6	0.09
949.023	0.09
949.446	0.09
949.869	0.09
950.292	0.09
950.715	0.09
951.138	0.09
951.561	0.09
951.984	0.09
952.407	0.09
952.83	0.09
953.252	0.09
953.675	0.09
954.098	0.08
954.521	0.08
954.943	0.08
955.366	0.08
955.789	0.08
956.211	0.08
956.634	0.08
957.056	0.08
957.479	0.08
957.902	0.08
958.324	0.08
958.746	0.09
959.169	0.09
959.591	0.09
960.014	0.09
960.436	0.09
960.858	0.09
961.281	0.09
961.703	0.09
962.125	0.09
962.547	0.09
962.969	0.09
963.391	0.09
963.814	0.09
964.236	0.09
964.658	0.09
965.08	0.09
965.502	0.09
965.924	0.09
966.346	0.09
966.768	0.09
967.189	0.09
967.611	0.09
968.033	0.09
968.455	0.09
968.877	0.09
969.298	0.09
969.72	0.09
970.142	0.09
970.563	0.09
970.985	0.08
971.407	0.08
971.828	0.08
972.25	0.08
972.671	0.09
973.093	0.09
973.514	0.09
973.936	0.09
974.357	0.09
974.778	0.09
975.2	0.09
975.621	0.09
976.042	0.09
976.464	0.09
976.885	0.09
977.306	0.09
977.727	0.09
978.148	0.09
978.57	0.09
978.991	0.08
979.412	0.08
979.833	0.08
980.254	0.08
980.675	0.08
981.096	0.08
981.517	0.08
981.937	0.08
982.358	0.08
982.779	0.08
983.2	0.08
983.621	0.08
984.042	0.08
984.462	0.08
984.883	0.08
985.304	0.08
985.724	0.08
986.145	0.08
986.565	0.08
986.986	0.08
987.407	0.08
987.827	0.08
988.248	0.08
988.668	0.08
989.088	0.08
989.509	0.08
989.929	0.08
990.35	0.08
990.77	0.08
991.19	0.08
991.61	0.08
992.031	0.08
992.451	0.08
992.871	0.07
993.291	0.07
993.711	0.07
994.131	0.07
994.551	0.07
994.971	0.07
995.391	0.07
995.811	0.07
996.231	0.07
996.651	0.07
997.071	0.07
997.491	0.07
997.911	0.07
998.331	0.07
998.75	0.07
999.17	0.07
999.59	0.07
1000.009	0.07
1000.429	0.07
1000.849	0.07
1001.268	0.07
1001.688	0.07
1002.107	0.07
1002.527	0.07
1002.946	0.07
1003.366	0.07
1003.785	0.07
1004.205	0.07
1004.624	0.07
1005.044	0.07
1005.463	0.07
1005.882	0.07
1006.301	0.07
1006.721	0.07
1007.14	0.07
1007.559	0.07
1007.978	0.07
1008.397	0.07
1008.816	0.07
1009.235	0.07
1009.655	0.07
1010.074	0.07
1010.492	0.07
1010.911	0.07
1011.33	0.07
1011.749	0.07
1012.168	0.07
1012.587	0.07
1013.006	0.07
1013.425	0.07
1013.843	0.06
1014.262	0.06
1014.681	0.06
1015.099	0.06
1015.518	0.06
1015.937	0.06
1016.355	0.06
1016.774	0.06
1017.192	0.06
1017.611	0.06
1018.029	0.06
1018.448	0.06
1018.866	0.06
1019.285	0.06
1019.703	0.06
1020.121	0.06
1020.54	0.06
1020.958	0.06
1021.376	0.06
1021.794	0.07
1022.213	0.07
1022.631	0.07
1023.049	0.07
1023.467	0.07
1023.885	0.07
1024.303	0.07
1024.721	0.07
1025.139	0.07
1025.557	0.07
1025.975	0.07
1026.393	0.07
1026.811	0.07
1027.229	0.07
1027.647	0.07
1028.065	0.07
1028.482	0.07
1028.9	0.07
1029.318	0.08
1029.735	0.08
1030.153	0.08
1030.571	0.08
1030.988	0.08
1031.406	0.08
1031.823	0.08
1032.241	0.08
1032.659	0.08
1033.076	0.08
1033.493	0.08
1033.911	0.08
1034.328	0.08
1034.746	0.08
1035.163	0.08
1035.58	0.07
1035.997	0.07
1036.415	0.07
1036.832	0.07
1037.249	0.07
1037.666	0.07
1038.083	0.07
1038.501	0.07
1038.918	0.07
1039.335	0.07
1039.752	0.07
1040.169	0.07
1040.586	0.07
1041.003	0.07
1041.419	0.07
1041.836	0.07
1042.253	0.07
1042.67	0.07
1043.087	0.07
1043.504	0.07
1043.92	0.07
1044.337	0.07
1044.754	0.07
1045.17	0.07
1045.587	0.07
1046.004	0.07
1046.42	0.07
1046.837	0.07
1047.253	0.07
1047.67	0.07
1048.086	0.07
1048.503	0.07
1048.919	0.07
1049.335	0.07
1049.752	0.07
1050.168	0.07
1050.584	0.07
1051.001	0.07
1051.417	0.07
1051.833	0.07
1052.249	0.07
1052.665	0.07
1053.081	0.07
1053.497	0.07
1053.914	0.07
1054.33	0.07
1054.746	0.07
1055.162	0.07
1055.578	0.07
1055.993	0.07
1056.409	0.07
1056.825	0.07
1057.241	0.07
1057.657	0.07
1058.073	0.07
1058.488	0.07
1058.904	0.07
1059.32	0.07
1059.736	0.07
1060.151	0.07
1060.567	0.07
1060.982	0.07
1061.398	0.07
1061.813	0.07
1062.229	0.07
1062.644	0.07
1063.06	0.07
1063.475	0.07
1063.891	0.07
1064.306	0.07
1064.721	0.07
1065.137	0.07
1065.552	0.07
1065.967	0.07
1066.382	0.07
1066.798	0.07
1067.213	0.07
1067.628	0.07
1068.043	0.07
1068.458	0.07
1068.873	0.07
1069.288	0.07
1069.703	0.07
1070.118	0.07
1070.533	0.07
1070.948	0.07
1071.363	0.07
1071.778	0.07
1072.193	0.07
1072.607	0.07
1073.022	0.08
1073.437	0.08
1073.852	0.08
1074.266	0.08
1074.681	0.08
1075.096	0.08
1075.51	0.08
1075.925	0.08
1076.339	0.08
1076.754	0.08
1077.168	0.08
1077.583	0.08
1077.997	0.08
1078.412	0.08
1078.826	0.08
1079.24	0.08
1079.655	0.08
1080.069	0.08
1080.483	0.08
1080.897	0.08
1081.312	0.08
1081.726	0.08
1082.14	0.08
1082.554	0.08
1082.968	0.09
1083.382	0.09
1083.796	0.09
1084.21	0.09
1084.624	0.09
1085.038	0.09
1085.452	0.09
1085.866	0.1
1086.28	0.1
1086.694	0.1
1087.108	0.1
1087.521	0.1
1087.935	0.1
1088.349	0.1
1088.763	0.1
1089.176	0.11
1089.59	0.11
1090.004	0.11
1090.417	0.11
1090.831	0.12
1091.244	0.12
1091.658	0.12
1092.071	0.13
1092.485	0.13
1092.898	0.14
1093.312	0.14
1093.725	0.14
1094.138	0.15
1094.552	0.15
1094.965	0.16
1095.378	0.17
1095.791	0.17
1096.205	0.18
1096.618	0.18
1097.031	0.19
1097.444	0.2
1097.857	0.2
1098.27	0.21
1098.683	0.22
1099.096	0.23
1099.509	0.24
1099.922	0.25
1100.335	0.26
1100.748	0.27
1101.161	0.28
1101.574	0.3
1101.986	0.31
1102.399	0.33
1102.812	0.35
1103.225	0.38
1103.637	0.4
1104.05	0.42
1104.463	0.46
1104.875	0.49
1105.288	0.53
1105.7	0.57
1106.113	0.62
1106.525	0.68
1106.938	0.79
1107.35	0.94
1107.763	-0
1108.175	-0
1108.588	-0
1109	-0
1109.412	-0
1109.824	-0
1110.237	-0
1110.649	-0
1111.061	-0
