Data from unagg-15c-2a-1h_Absorbance__57__00484.txt Node

Date: Mon May 06 09:34:38 CEST 2024
User: Laser008
Spectrometer: MAYP115816
Trigger mode: 0
Integration Time (sec): 2.000000E-1
Scans to average: 10
Electric dark correction enabled: true
Nonlinearity correction enabled: true
Boxcar width: 5
XAxis mode: Wavelengths
Number of Pixels in Spectrum: 2068
>>>>>Begin Spectral Data<<<<<
198.914	-1.86
199.384	-1.72
199.855	-1.58
200.325	-1.45
200.796	-1.37
201.266	-1.32
201.737	-1.25
202.207	-1.19
202.677	-1.14
203.147	-1.09
203.618	-1.06
204.088	-1.04
204.558	-1.02
205.028	-1
205.498	-1
205.968	-1
206.439	-1
206.909	-0.99
207.379	-0.99
207.849	-0.99
208.319	-0.99
208.789	-0.98
209.258	-0.98
209.728	-0.98
210.198	-0.98
210.668	-0.98
211.138	-0.98
211.608	-0.97
212.077	-0.97
212.547	-0.97
213.017	-0.97
213.486	-0.97
213.956	-0.97
214.426	-0.97
214.895	-0.97
215.365	-0.97
215.834	-0.96
216.304	-0.96
216.773	-0.96
217.243	-0.96
217.712	-0.96
218.181	-0.95
218.651	-0.95
219.12	-0.95
219.589	-0.95
220.058	-0.95
220.528	-0.94
220.997	-0.94
221.466	-0.94
221.935	-0.93
222.404	-0.93
222.873	-0.92
223.342	-0.92
223.812	-0.91
224.281	-0.9
224.749	-0.89
225.218	-0.88
225.687	-0.87
226.156	-0.86
226.625	-0.85
227.094	-0.83
227.563	-0.81
228.031	-0.79
228.5	-0.77
228.969	-0.75
229.438	-0.72
229.906	-0.69
230.375	-0.65
230.844	-0.61
231.312	-0.57
231.781	-0.53
232.249	-0.48
232.718	-0.44
233.186	-0.39
233.655	-0.34
234.123	-0.29
234.591	-0.24
235.06	-0.19
235.528	-0.14
235.996	-0.09
236.465	-0.04
236.933	0
237.401	0.05
237.869	0.09
238.337	0.13
238.805	0.17
239.274	0.21
239.742	0.24
240.21	0.28
240.678	0.31
241.146	0.34
241.614	0.37
242.081	0.39
242.549	0.42
243.017	0.44
243.485	0.46
243.953	0.48
244.421	0.5
244.888	0.52
245.356	0.53
245.824	0.55
246.291	0.56
246.759	0.58
247.227	0.59
247.694	0.6
248.162	0.61
248.629	0.62
249.097	0.63
249.564	0.64
250.032	0.65
250.499	0.66
250.967	0.67
251.434	0.68
251.901	0.69
252.369	0.69
252.836	0.7
253.303	0.71
253.77	0.71
254.237	0.72
254.705	0.72
255.172	0.73
255.639	0.73
256.106	0.74
256.573	0.74
257.04	0.74
257.507	0.75
257.974	0.75
258.441	0.75
258.908	0.76
259.375	0.76
259.841	0.76
260.308	0.76
260.775	0.76
261.242	0.77
261.709	0.77
262.175	0.77
262.642	0.77
263.109	0.77
263.575	0.77
264.042	0.77
264.508	0.77
264.975	0.77
265.441	0.77
265.908	0.77
266.374	0.77
266.841	0.77
267.307	0.77
267.773	0.77
268.24	0.77
268.706	0.77
269.172	0.77
269.639	0.77
270.105	0.77
270.571	0.77
271.037	0.76
271.503	0.76
271.969	0.76
272.435	0.76
272.902	0.76
273.368	0.76
273.834	0.76
274.3	0.75
274.765	0.75
275.231	0.75
275.697	0.75
276.163	0.75
276.629	0.74
277.095	0.74
277.56	0.74
278.026	0.73
278.492	0.73
278.958	0.73
279.423	0.73
279.889	0.72
280.354	0.72
280.82	0.72
281.286	0.72
281.751	0.72
282.217	0.72
282.682	0.72
283.147	0.72
283.613	0.71
284.078	0.71
284.544	0.71
285.009	0.71
285.474	0.71
285.939	0.7
286.405	0.7
286.87	0.7
287.335	0.7
287.8	0.7
288.265	0.69
288.73	0.69
289.195	0.69
289.66	0.69
290.125	0.69
290.59	0.69
291.055	0.68
291.52	0.68
291.985	0.68
292.45	0.68
292.915	0.68
293.38	0.68
293.844	0.67
294.309	0.67
294.774	0.67
295.239	0.67
295.703	0.67
296.168	0.67
296.632	0.66
297.097	0.66
297.562	0.66
298.026	0.66
298.491	0.66
298.955	0.66
299.419	0.66
299.884	0.66
300.348	0.65
300.813	0.65
301.277	0.65
301.741	0.65
302.205	0.65
302.67	0.65
303.134	0.65
303.598	0.65
304.062	0.65
304.526	0.65
304.99	0.64
305.454	0.64
305.919	0.64
306.383	0.64
306.847	0.64
307.31	0.64
307.774	0.64
308.238	0.64
308.702	0.64
309.166	0.63
309.63	0.63
310.094	0.63
310.557	0.63
311.021	0.63
311.485	0.63
311.948	0.63
312.412	0.63
312.876	0.63
313.339	0.63
313.803	0.62
314.266	0.62
314.73	0.62
315.193	0.62
315.657	0.62
316.12	0.62
316.584	0.62
317.047	0.62
317.51	0.62
317.973	0.61
318.437	0.61
318.9	0.61
319.363	0.61
319.826	0.61
320.29	0.61
320.753	0.61
321.216	0.61
321.679	0.6
322.142	0.6
322.605	0.6
323.068	0.6
323.531	0.6
323.994	0.6
324.457	0.6
324.92	0.6
325.382	0.6
325.845	0.59
326.308	0.59
326.771	0.59
327.233	0.59
327.696	0.59
328.159	0.59
328.622	0.59
329.084	0.59
329.547	0.59
330.009	0.58
330.472	0.58
330.934	0.58
331.397	0.58
331.859	0.58
332.322	0.58
332.784	0.58
333.246	0.58
333.709	0.58
334.171	0.57
334.633	0.57
335.096	0.57
335.558	0.57
336.02	0.57
336.482	0.57
336.944	0.57
337.406	0.57
337.868	0.57
338.331	0.56
338.793	0.56
339.255	0.56
339.717	0.56
340.178	0.56
340.64	0.56
341.102	0.56
341.564	0.56
342.026	0.56
342.488	0.56
342.949	0.56
343.411	0.55
343.873	0.55
344.335	0.55
344.796	0.55
345.258	0.55
345.719	0.55
346.181	0.55
346.643	0.55
347.104	0.55
347.566	0.55
348.027	0.55
348.488	0.54
348.95	0.54
349.411	0.54
349.873	0.54
350.334	0.54
350.795	0.54
351.256	0.54
351.718	0.54
352.179	0.54
352.64	0.54
353.101	0.54
353.562	0.53
354.023	0.53
354.484	0.53
354.945	0.53
355.406	0.53
355.867	0.53
356.328	0.53
356.789	0.52
357.25	0.52
357.711	0.52
358.172	0.52
358.633	0.52
359.093	0.53
359.554	0.53
360.015	0.53
360.476	0.53
360.936	0.53
361.397	0.53
361.858	0.53
362.318	0.53
362.779	0.53
363.239	0.53
363.7	0.53
364.16	0.53
364.621	0.53
365.081	0.53
365.541	0.53
366.002	0.53
366.462	0.53
366.922	0.53
367.383	0.53
367.843	0.53
368.303	0.53
368.763	0.53
369.223	0.52
369.684	0.52
370.144	0.52
370.604	0.52
371.064	0.52
371.524	0.52
371.984	0.52
372.444	0.52
372.904	0.52
373.363	0.52
373.823	0.52
374.283	0.52
374.743	0.52
375.203	0.52
375.663	0.52
376.122	0.52
376.582	0.52
377.042	0.52
377.501	0.52
377.961	0.52
378.42	0.52
378.88	0.52
379.34	0.52
379.799	0.52
380.259	0.52
380.718	0.52
381.177	0.52
381.637	0.52
382.096	0.52
382.555	0.52
383.015	0.52
383.474	0.52
383.933	0.52
384.393	0.52
384.852	0.52
385.311	0.52
385.77	0.52
386.229	0.52
386.688	0.52
387.147	0.52
387.606	0.52
388.065	0.52
388.524	0.52
388.983	0.51
389.442	0.51
389.901	0.51
390.36	0.51
390.819	0.51
391.277	0.51
391.736	0.51
392.195	0.51
392.654	0.51
393.112	0.51
393.571	0.51
394.03	0.51
394.488	0.51
394.947	0.51
395.405	0.51
395.864	0.51
396.322	0.51
396.781	0.51
397.239	0.51
397.698	0.51
398.156	0.51
398.614	0.51
399.073	0.51
399.531	0.51
399.989	0.51
400.447	0.51
400.905	0.51
401.364	0.51
401.822	0.51
402.28	0.51
402.738	0.51
403.196	0.51
403.654	0.51
404.112	0.51
404.57	0.51
405.028	0.5
405.486	0.5
405.944	0.5
406.402	0.5
406.859	0.5
407.317	0.5
407.775	0.5
408.233	0.5
408.691	0.5
409.148	0.5
409.606	0.5
410.064	0.5
410.521	0.5
410.979	0.5
411.436	0.5
411.894	0.5
412.351	0.5
412.809	0.5
413.266	0.5
413.724	0.5
414.181	0.5
414.638	0.49
415.096	0.49
415.553	0.49
416.01	0.49
416.467	0.49
416.925	0.49
417.382	0.49
417.839	0.49
418.296	0.49
418.753	0.49
419.21	0.49
419.667	0.49
420.124	0.49
420.581	0.49
421.038	0.49
421.495	0.49
421.952	0.49
422.409	0.49
422.866	0.49
423.322	0.49
423.779	0.49
424.236	0.49
424.693	0.49
425.149	0.49
425.606	0.49
426.063	0.49
426.519	0.49
426.976	0.49
427.433	0.49
427.889	0.49
428.346	0.49
428.802	0.49
429.258	0.49
429.715	0.49
430.171	0.49
430.628	0.49
431.084	0.49
431.54	0.49
431.997	0.49
432.453	0.49
432.909	0.49
433.365	0.48
433.821	0.48
434.277	0.48
434.734	0.48
435.19	0.48
435.646	0.48
436.102	0.48
436.558	0.48
437.014	0.48
437.47	0.48
437.925	0.48
438.381	0.48
438.837	0.48
439.293	0.48
439.749	0.48
440.205	0.48
440.66	0.48
441.116	0.48
441.572	0.48
442.027	0.48
442.483	0.48
442.939	0.48
443.394	0.48
443.85	0.48
444.305	0.48
444.761	0.48
445.216	0.48
445.672	0.48
446.127	0.48
446.582	0.48
447.038	0.48
447.493	0.48
447.948	0.48
448.403	0.48
448.859	0.48
449.314	0.48
449.769	0.48
450.224	0.48
450.679	0.48
451.134	0.47
451.589	0.47
452.044	0.47
452.499	0.47
452.954	0.47
453.409	0.47
453.864	0.47
454.319	0.47
454.774	0.47
455.229	0.47
455.684	0.47
456.138	0.47
456.593	0.47
457.048	0.47
457.503	0.47
457.957	0.47
458.412	0.47
458.866	0.47
459.321	0.47
459.776	0.47
460.23	0.47
460.685	0.47
461.139	0.46
461.593	0.46
462.048	0.46
462.502	0.46
462.957	0.46
463.411	0.46
463.865	0.46
464.319	0.46
464.774	0.46
465.228	0.46
465.682	0.47
466.136	0.47
466.59	0.47
467.044	0.47
467.499	0.46
467.953	0.46
468.407	0.46
468.861	0.46
469.315	0.46
469.768	0.46
470.222	0.45
470.676	0.45
471.13	0.45
471.584	0.45
472.038	0.45
472.491	0.45
472.945	0.46
473.399	0.46
473.852	0.46
474.306	0.46
474.76	0.46
475.213	0.46
475.667	0.46
476.12	0.46
476.574	0.46
477.027	0.46
477.481	0.47
477.934	0.47
478.388	0.47
478.841	0.47
479.294	0.47
479.748	0.47
480.201	0.47
480.654	0.47
481.107	0.47
481.561	0.47
482.014	0.47
482.467	0.47
482.92	0.48
483.373	0.48
483.826	0.48
484.279	0.49
484.732	0.49
485.185	0.49
485.638	0.49
486.091	0.5
486.544	0.5
486.997	0.5
487.449	0.5
487.902	0.5
488.355	0.5
488.808	0.5
489.26	0.49
489.713	0.49
490.166	0.49
490.618	0.49
491.071	0.49
491.523	0.49
491.976	0.49
492.429	0.5
492.881	0.5
493.333	0.5
493.786	0.5
494.238	0.5
494.691	0.51
495.143	0.51
495.595	0.51
496.048	0.51
496.5	0.51
496.952	0.52
497.404	0.52
497.856	0.52
498.309	0.52
498.761	0.52
499.213	0.52
499.665	0.52
500.117	0.53
500.569	0.53
501.021	0.53
501.473	0.53
501.925	0.54
502.377	0.54
502.828	0.54
503.28	0.54
503.732	0.55
504.184	0.55
504.636	0.55
505.087	0.55
505.539	0.55
505.991	0.55
506.442	0.55
506.894	0.55
507.345	0.56
507.797	0.56
508.249	0.56
508.7	0.56
509.151	0.56
509.603	0.56
510.054	0.56
510.506	0.56
510.957	0.57
511.408	0.57
511.86	0.57
512.311	0.57
512.762	0.57
513.213	0.57
513.665	0.57
514.116	0.57
514.567	0.57
515.018	0.57
515.469	0.57
515.92	0.57
516.371	0.57
516.822	0.57
517.273	0.57
517.724	0.57
518.175	0.57
518.626	0.57
519.076	0.57
519.527	0.57
519.978	0.56
520.429	0.56
520.88	0.56
521.33	0.55
521.781	0.55
522.232	0.55
522.682	0.55
523.133	0.55
523.583	0.55
524.034	0.56
524.484	0.56
524.935	0.57
525.385	0.58
525.836	0.58
526.286	0.59
526.736	0.59
527.187	0.6
527.637	0.6
528.087	0.6
528.538	0.6
528.988	0.61
529.438	0.61
529.888	0.61
530.338	0.61
530.788	0.61
531.238	0.61
531.688	0.61
532.139	0.61
532.589	0.62
533.038	0.62
533.488	0.62
533.938	0.62
534.388	0.62
534.838	0.62
535.288	0.62
535.738	0.62
536.187	0.63
536.637	0.63
537.087	0.63
537.537	0.63
537.986	0.63
538.436	0.63
538.885	0.63
539.335	0.63
539.785	0.63
540.234	0.63
540.684	0.63
541.133	0.63
541.582	0.63
542.032	0.63
542.481	0.63
542.931	0.63
543.38	0.63
543.829	0.63
544.278	0.63
544.728	0.63
545.177	0.63
545.626	0.63
546.075	0.63
546.524	0.63
546.973	0.63
547.422	0.63
547.871	0.63
548.32	0.63
548.769	0.63
549.218	0.63
549.667	0.63
550.116	0.63
550.565	0.62
551.014	0.62
551.463	0.62
551.911	0.62
552.36	0.62
552.809	0.62
553.258	0.62
553.706	0.63
554.155	0.63
554.603	0.62
555.052	0.62
555.501	0.62
555.949	0.62
556.398	0.61
556.846	0.61
557.294	0.61
557.743	0.61
558.191	0.61
558.64	0.61
559.088	0.61
559.536	0.61
559.985	0.61
560.433	0.61
560.881	0.61
561.329	0.61
561.777	0.61
562.225	0.61
562.674	0.61
563.122	0.61
563.57	0.61
564.018	0.61
564.466	0.6
564.914	0.6
565.362	0.6
565.809	0.6
566.257	0.6
566.705	0.6
567.153	0.6
567.601	0.6
568.048	0.61
568.496	0.61
568.944	0.61
569.392	0.62
569.839	0.62
570.287	0.62
570.734	0.63
571.182	0.63
571.63	0.63
572.077	0.63
572.525	0.63
572.972	0.63
573.419	0.63
573.867	0.63
574.314	0.63
574.761	0.63
575.209	0.63
575.656	0.63
576.103	0.63
576.551	0.63
576.998	0.63
577.445	0.63
577.892	0.62
578.339	0.62
578.786	0.62
579.233	0.62
579.68	0.62
580.127	0.62
580.574	0.62
581.021	0.62
581.468	0.61
581.915	0.61
582.362	0.61
582.809	0.61
583.255	0.61
583.702	0.6
584.149	0.6
584.596	0.59
585.042	0.59
585.489	0.59
585.936	0.59
586.382	0.58
586.829	0.58
587.275	0.58
587.722	0.58
588.168	0.57
588.615	0.57
589.061	0.56
589.508	0.56
589.954	0.56
590.4	0.55
590.847	0.55
591.293	0.55
591.739	0.55
592.185	0.55
592.632	0.54
593.078	0.54
593.524	0.54
593.97	0.54
594.416	0.54
594.862	0.54
595.308	0.53
595.754	0.53
596.2	0.53
596.646	0.53
597.092	0.52
597.538	0.52
597.984	0.52
598.43	0.52
598.876	0.52
599.321	0.52
599.767	0.52
600.213	0.52
600.659	0.51
601.104	0.51
601.55	0.51
601.995	0.51
602.441	0.5
602.887	0.5
603.332	0.5
603.778	0.5
604.223	0.5
604.668	0.5
605.114	0.5
605.559	0.5
606.005	0.5
606.45	0.49
606.895	0.49
607.341	0.49
607.786	0.49
608.231	0.48
608.676	0.48
609.121	0.48
609.566	0.48
610.012	0.47
610.457	0.47
610.902	0.47
611.347	0.47
611.792	0.47
612.237	0.46
612.682	0.46
613.127	0.46
613.571	0.46
614.016	0.46
614.461	0.46
614.906	0.46
615.351	0.46
615.795	0.46
616.24	0.45
616.685	0.45
617.129	0.45
617.574	0.45
618.019	0.44
618.463	0.44
618.908	0.44
619.352	0.44
619.797	0.44
620.241	0.44
620.686	0.44
621.13	0.44
621.574	0.44
622.019	0.43
622.463	0.43
622.907	0.43
623.352	0.43
623.796	0.43
624.24	0.43
624.684	0.43
625.128	0.43
625.572	0.43
626.016	0.43
626.461	0.43
626.905	0.43
627.349	0.43
627.793	0.43
628.236	0.43
628.68	0.43
629.124	0.43
629.568	0.43
630.012	0.43
630.456	0.43
630.9	0.43
631.343	0.43
631.787	0.43
632.231	0.43
632.674	0.43
633.118	0.43
633.562	0.43
634.005	0.43
634.449	0.43
634.892	0.43
635.336	0.43
635.779	0.43
636.223	0.44
636.666	0.44
637.109	0.44
637.553	0.44
637.996	0.44
638.439	0.44
638.883	0.44
639.326	0.44
639.769	0.45
640.212	0.45
640.655	0.45
641.099	0.45
641.542	0.45
641.985	0.46
642.428	0.46
642.871	0.46
643.314	0.46
643.757	0.46
644.2	0.47
644.643	0.47
645.085	0.47
645.528	0.47
645.971	0.48
646.414	0.48
646.857	0.48
647.299	0.49
647.742	0.49
648.185	0.49
648.627	0.5
649.07	0.5
649.513	0.51
649.955	0.51
650.398	0.51
650.84	0.52
651.283	0.52
651.725	0.52
652.168	0.53
652.61	0.53
653.052	0.54
653.495	0.53
653.937	0.47
654.379	0.44
654.821	0.45
655.264	0.45
655.706	0.45
656.148	0.46
656.59	0.46
657.032	0.46
657.474	0.46
657.916	0.46
658.358	0.46
658.8	0.53
659.242	0.59
659.684	0.59
660.126	0.59
660.568	0.59
661.01	0.6
661.452	0.6
661.894	0.6
662.335	0.61
662.777	0.61
663.219	0.62
663.661	0.62
664.102	0.62
664.544	0.63
664.985	0.63
665.427	0.63
665.869	0.64
666.31	0.64
666.752	0.65
667.193	0.65
667.634	0.65
668.076	0.66
668.517	0.66
668.959	0.66
669.4	0.67
669.841	0.68
670.282	0.68
670.724	0.68
671.165	0.69
671.606	0.69
672.047	0.69
672.488	0.7
672.929	0.7
673.37	0.7
673.811	0.7
674.252	0.7
674.693	0.71
675.134	0.71
675.575	0.71
676.016	0.71
676.457	0.71
676.898	0.71
677.339	0.72
677.78	0.72
678.22	0.72
678.661	0.72
679.102	0.73
679.542	0.73
679.983	0.73
680.424	0.73
680.864	0.73
681.305	0.73
681.745	0.73
682.186	0.74
682.626	0.74
683.067	0.74
683.507	0.74
683.948	0.75
684.388	0.75
684.828	0.75
685.269	0.75
685.709	0.75
686.149	0.75
686.589	0.75
687.029	0.75
687.47	0.75
687.91	0.75
688.35	0.75
688.79	0.75
689.23	0.75
689.67	0.76
690.11	0.76
690.55	0.76
690.99	0.76
691.43	0.76
691.87	0.76
692.31	0.76
692.749	0.76
693.189	0.76
693.629	0.76
694.069	0.76
694.508	0.76
694.948	0.76
695.388	0.76
695.827	0.76
696.267	0.76
696.706	0.76
697.146	0.76
697.586	0.76
698.025	0.75
698.464	0.75
698.904	0.75
699.343	0.75
699.783	0.75
700.222	0.74
700.661	0.74
701.101	0.74
701.54	0.74
701.979	0.74
702.418	0.74
702.857	0.74
703.297	0.73
703.736	0.73
704.175	0.73
704.614	0.73
705.053	0.73
705.492	0.73
705.931	0.73
706.37	0.73
706.809	0.73
707.248	0.72
707.687	0.72
708.125	0.72
708.564	0.72
709.003	0.72
709.442	0.71
709.88	0.71
710.319	0.7
710.758	0.7
711.196	0.7
711.635	0.7
712.074	0.69
712.512	0.69
712.951	0.69
713.389	0.69
713.828	0.68
714.266	0.68
714.705	0.68
715.143	0.67
715.581	0.67
716.02	0.67
716.458	0.66
716.896	0.66
717.334	0.66
717.773	0.65
718.211	0.65
718.649	0.65
719.087	0.65
719.525	0.64
719.963	0.64
720.401	0.64
720.839	0.63
721.277	0.63
721.715	0.63
722.153	0.62
722.591	0.62
723.029	0.62
723.467	0.61
723.905	0.61
724.342	0.61
724.78	0.6
725.218	0.6
725.656	0.6
726.093	0.6
726.531	0.59
726.969	0.59
727.406	0.59
727.844	0.59
728.281	0.58
728.719	0.58
729.156	0.58
729.594	0.58
730.031	0.57
730.469	0.57
730.906	0.57
731.343	0.57
731.781	0.57
732.218	0.56
732.655	0.56
733.092	0.56
733.53	0.56
733.967	0.55
734.404	0.55
734.841	0.55
735.278	0.54
735.715	0.54
736.152	0.54
736.589	0.53
737.026	0.53
737.463	0.53
737.9	0.52
738.337	0.52
738.774	0.52
739.211	0.51
739.647	0.51
740.084	0.51
740.521	0.5
740.958	0.5
741.394	0.5
741.831	0.49
742.268	0.48
742.704	0.48
743.141	0.47
743.577	0.47
744.014	0.47
744.45	0.46
744.887	0.46
745.323	0.45
745.76	0.45
746.196	0.45
746.632	0.44
747.069	0.44
747.505	0.44
747.941	0.44
748.378	0.44
748.814	0.44
749.25	0.43
749.686	0.43
750.122	0.43
750.558	0.43
750.994	0.43
751.43	0.43
751.866	0.43
752.302	0.43
752.738	0.42
753.174	0.42
753.61	0.42
754.046	0.42
754.482	0.42
754.918	0.42
755.354	0.42
755.789	0.41
756.225	0.41
756.661	0.41
757.096	0.41
757.532	0.41
757.968	0.4
758.403	0.4
758.839	0.4
759.274	0.39
759.71	0.39
760.145	0.39
760.581	0.38
761.016	0.38
761.452	0.37
761.887	0.37
762.322	0.37
762.758	0.36
763.193	0.36
763.628	0.35
764.063	0.35
764.499	0.35
764.934	0.34
765.369	0.34
765.804	0.33
766.239	0.33
766.674	0.33
767.109	0.32
767.544	0.32
767.979	0.31
768.414	0.31
768.849	0.3
769.284	0.3
769.719	0.29
770.154	0.29
770.588	0.28
771.023	0.28
771.458	0.27
771.893	0.27
772.327	0.26
772.762	0.26
773.197	0.25
773.631	0.25
774.066	0.24
774.5	0.23
774.935	0.23
775.369	0.22
775.804	0.21
776.238	0.21
776.673	0.2
777.107	0.19
777.541	0.19
777.976	0.18
778.41	0.17
778.844	0.16
779.279	0.16
779.713	0.15
780.147	0.14
780.581	0.13
781.015	0.12
781.449	0.11
781.883	0.1
782.317	0.08
782.751	0.07
783.185	0.06
783.619	0.04
784.053	0.03
784.487	0.01
784.921	-0
785.355	-0.02
785.789	-0.03
786.223	-0.03
786.656	-0.04
787.09	-0.04
787.524	-0.05
787.957	-0.05
788.391	-0.06
788.825	-0.06
789.258	-0.06
789.692	-0.06
790.125	-0.06
790.559	-0.06
790.992	-0.06
791.426	-0.06
791.859	-0.06
792.293	-0.05
792.726	-0.04
793.159	-0.04
793.593	-0.04
794.026	-0.04
794.459	-0.04
794.892	-0.05
795.326	-0.05
795.759	-0.05
796.192	-0.05
796.625	-0.06
797.058	-0.06
797.491	-0.07
797.924	-0.08
798.357	-0.08
798.79	-0.08
799.223	-0.08
799.656	-0.08
800.089	-0.08
800.522	-0.09
800.955	-0.09
801.387	-0.09
801.82	-0.09
802.253	-0.09
802.686	-0.09
803.118	-0.09
803.551	-0.09
803.984	-0.08
804.416	-0.08
804.849	-0.07
805.281	-0.07
805.714	-0.07
806.146	-0.07
806.579	-0.07
807.011	-0.07
807.444	-0.07
807.876	-0.07
808.308	-0.07
808.741	-0.07
809.173	-0.08
809.605	-0.08
810.037	-0.08
810.47	-0.08
810.902	-0.09
811.334	-0.09
811.766	-0.08
812.198	-0.08
812.63	-0.08
813.062	-0.08
813.494	-0.08
813.926	-0.08
814.358	-0.08
814.79	-0.08
815.222	-0.07
815.654	-0.07
816.086	-0.07
816.518	-0.08
816.949	-0.08
817.381	-0.08
817.813	-0.08
818.245	-0.08
818.676	-0.07
819.108	-0.06
819.54	-0.06
819.971	-0.05
820.403	-0.04
820.834	-0.03
821.266	-0.02
821.697	-0.01
822.129	0.01
822.56	0.02
822.991	0.03
823.423	0.04
823.854	0.05
824.286	0.06
824.717	0.07
825.148	0.08
825.579	0.09
826.01	0.1
826.442	0.11
826.873	0.11
827.304	0.12
827.735	0.12
828.166	0.13
828.597	0.13
829.028	0.14
829.459	0.14
829.89	0.14
830.321	0.15
830.752	0.15
831.183	0.15
831.613	0.16
832.044	0.16
832.475	0.16
832.906	0.17
833.336	0.17
833.767	0.17
834.198	0.17
834.628	0.17
835.059	0.18
835.49	0.18
835.92	0.18
836.351	0.18
836.781	0.18
837.212	0.18
837.642	0.19
838.072	0.19
838.503	0.19
838.933	0.19
839.364	0.19
839.794	0.19
840.224	0.19
840.654	0.19
841.085	0.19
841.515	0.19
841.945	0.19
842.375	0.19
842.805	0.19
843.235	0.18
843.665	0.18
844.095	0.18
844.525	0.18
844.955	0.18
845.385	0.18
845.815	0.18
846.245	0.18
846.675	0.18
847.105	0.18
847.534	0.18
847.964	0.18
848.394	0.18
848.824	0.18
849.253	0.18
849.683	0.18
850.112	0.18
850.542	0.18
850.972	0.19
851.401	0.19
851.831	0.19
852.26	0.19
852.69	0.19
853.119	0.19
853.548	0.19
853.978	0.19
854.407	0.19
854.836	0.18
855.266	0.18
855.695	0.18
856.124	0.18
856.553	0.18
856.983	0.18
857.412	0.18
857.841	0.18
858.27	0.18
858.699	0.17
859.128	0.17
859.557	0.17
859.986	0.17
860.415	0.17
860.844	0.17
861.273	0.17
861.702	0.17
862.13	0.17
862.559	0.17
862.988	0.17
863.417	0.17
863.845	0.17
864.274	0.17
864.703	0.17
865.131	0.17
865.56	0.17
865.989	0.17
866.417	0.17
866.846	0.17
867.274	0.17
867.703	0.17
868.131	0.17
868.559	0.17
868.988	0.17
869.416	0.17
869.844	0.17
870.273	0.16
870.701	0.16
871.129	0.16
871.557	0.16
871.986	0.16
872.414	0.16
872.842	0.16
873.27	0.16
873.698	0.16
874.126	0.16
874.554	0.16
874.982	0.16
875.41	0.16
875.838	0.16
876.266	0.16
876.694	0.16
877.122	0.16
877.549	0.16
877.977	0.16
878.405	0.16
878.833	0.16
879.26	0.16
879.688	0.16
880.116	0.16
880.543	0.16
880.971	0.16
881.399	0.16
881.826	0.16
882.254	0.16
882.681	0.16
883.109	0.16
883.536	0.16
883.963	0.16
884.391	0.16
884.818	0.16
885.245	0.16
885.673	0.16
886.1	0.16
886.527	0.16
886.954	0.16
887.381	0.16
887.809	0.16
888.236	0.16
888.663	0.16
889.09	0.16
889.517	0.16
889.944	0.16
890.371	0.16
890.798	0.16
891.225	0.15
891.652	0.15
892.078	0.15
892.505	0.15
892.932	0.15
893.359	0.15
893.786	0.15
894.212	0.15
894.639	0.15
895.066	0.15
895.492	0.15
895.919	0.15
896.346	0.15
896.772	0.15
897.199	0.15
897.625	0.15
898.052	0.15
898.478	0.15
898.904	0.15
899.331	0.15
899.757	0.15
900.183	0.15
900.61	0.15
901.036	0.15
901.462	0.15
901.888	0.15
902.315	0.15
902.741	0.15
903.167	0.15
903.593	0.15
904.019	0.15
904.445	0.15
904.871	0.15
905.297	0.15
905.723	0.15
906.149	0.15
906.575	0.15
907.001	0.14
907.427	0.14
907.852	0.14
908.278	0.14
908.704	0.14
909.13	0.14
909.555	0.14
909.981	0.14
910.407	0.14
910.832	0.14
911.258	0.14
911.684	0.14
912.109	0.14
912.535	0.14
912.96	0.14
913.386	0.14
913.811	0.14
914.236	0.14
914.662	0.14
915.087	0.14
915.512	0.14
915.938	0.14
916.363	0.14
916.788	0.14
917.213	0.14
917.639	0.14
918.064	0.14
918.489	0.14
918.914	0.14
919.339	0.14
919.764	0.14
920.189	0.14
920.614	0.14
921.039	0.14
921.464	0.14
921.889	0.14
922.314	0.14
922.738	0.14
923.163	0.14
923.588	0.14
924.013	0.14
924.437	0.14
924.862	0.14
925.287	0.14
925.711	0.14
926.136	0.14
926.561	0.14
926.985	0.14
927.41	0.14
927.834	0.14
928.259	0.14
928.683	0.14
929.108	0.13
929.532	0.13
929.956	0.13
930.381	0.13
930.805	0.13
931.229	0.13
931.653	0.13
932.078	0.13
932.502	0.12
932.926	0.12
933.35	0.12
933.774	0.12
934.198	0.12
934.622	0.12
935.046	0.12
935.47	0.12
935.894	0.12
936.318	0.12
936.742	0.12
937.166	0.12
937.59	0.12
938.014	0.12
938.437	0.12
938.861	0.12
939.285	0.12
939.709	0.12
940.132	0.12
940.556	0.12
940.98	0.12
941.403	0.12
941.827	0.12
942.25	0.12
942.674	0.12
943.097	0.12
943.521	0.12
943.944	0.12
944.368	0.12
944.791	0.12
945.214	0.12
945.638	0.12
946.061	0.12
946.484	0.12
946.907	0.12
947.331	0.12
947.754	0.12
948.177	0.12
948.6	0.12
949.023	0.12
949.446	0.12
949.869	0.11
950.292	0.11
950.715	0.11
951.138	0.11
951.561	0.11
951.984	0.11
952.407	0.11
952.83	0.11
953.252	0.11
953.675	0.11
954.098	0.11
954.521	0.11
954.943	0.11
955.366	0.11
955.789	0.11
956.211	0.11
956.634	0.11
957.056	0.11
957.479	0.11
957.902	0.11
958.324	0.11
958.746	0.11
959.169	0.11
959.591	0.11
960.014	0.11
960.436	0.11
960.858	0.11
961.281	0.11
961.703	0.11
962.125	0.11
962.547	0.11
962.969	0.11
963.391	0.11
963.814	0.11
964.236	0.11
964.658	0.12
965.08	0.12
965.502	0.12
965.924	0.12
966.346	0.12
966.768	0.12
967.189	0.12
967.611	0.12
968.033	0.11
968.455	0.11
968.877	0.11
969.298	0.11
969.72	0.11
970.142	0.11
970.563	0.11
970.985	0.11
971.407	0.11
971.828	0.11
972.25	0.11
972.671	0.11
973.093	0.11
973.514	0.11
973.936	0.11
974.357	0.11
974.778	0.11
975.2	0.11
975.621	0.11
976.042	0.11
976.464	0.11
976.885	0.11
977.306	0.11
977.727	0.11
978.148	0.11
978.57	0.11
978.991	0.11
979.412	0.11
979.833	0.11
980.254	0.1
980.675	0.1
981.096	0.1
981.517	0.1
981.937	0.1
982.358	0.1
982.779	0.1
983.2	0.1
983.621	0.1
984.042	0.1
984.462	0.1
984.883	0.1
985.304	0.1
985.724	0.1
986.145	0.1
986.565	0.1
986.986	0.1
987.407	0.1
987.827	0.1
988.248	0.1
988.668	0.1
989.088	0.1
989.509	0.1
989.929	0.1
990.35	0.1
990.77	0.1
991.19	0.1
991.61	0.1
992.031	0.1
992.451	0.1
992.871	0.1
993.291	0.09
993.711	0.09
994.131	0.09
994.551	0.09
994.971	0.09
995.391	0.09
995.811	0.09
996.231	0.09
996.651	0.09
997.071	0.09
997.491	0.09
997.911	0.09
998.331	0.09
998.75	0.09
999.17	0.09
999.59	0.09
1000.009	0.09
1000.429	0.09
1000.849	0.09
1001.268	0.09
1001.688	0.09
1002.107	0.09
1002.527	0.09
1002.946	0.09
1003.366	0.09
1003.785	0.09
1004.205	0.09
1004.624	0.09
1005.044	0.09
1005.463	0.09
1005.882	0.09
1006.301	0.09
1006.721	0.09
1007.14	0.09
1007.559	0.09
1007.978	0.09
1008.397	0.09
1008.816	0.09
1009.235	0.09
1009.655	0.09
1010.074	0.09
1010.492	0.09
1010.911	0.09
1011.33	0.09
1011.749	0.09
1012.168	0.09
1012.587	0.09
1013.006	0.09
1013.425	0.09
1013.843	0.09
1014.262	0.09
1014.681	0.08
1015.099	0.08
1015.518	0.08
1015.937	0.08
1016.355	0.08
1016.774	0.08
1017.192	0.08
1017.611	0.08
1018.029	0.08
1018.448	0.08
1018.866	0.08
1019.285	0.08
1019.703	0.08
1020.121	0.08
1020.54	0.08
1020.958	0.08
1021.376	0.09
1021.794	0.09
1022.213	0.09
1022.631	0.09
1023.049	0.09
1023.467	0.09
1023.885	0.09
1024.303	0.09
1024.721	0.09
1025.139	0.09
1025.557	0.09
1025.975	0.09
1026.393	0.09
1026.811	0.09
1027.229	0.09
1027.647	0.09
1028.065	0.09
1028.482	0.09
1028.9	0.09
1029.318	0.1
1029.735	0.1
1030.153	0.1
1030.571	0.1
1030.988	0.1
1031.406	0.1
1031.823	0.1
1032.241	0.1
1032.659	0.1
1033.076	0.1
1033.493	0.1
1033.911	0.1
1034.328	0.1
1034.746	0.1
1035.163	0.1
1035.58	0.09
1035.997	0.09
1036.415	0.09
1036.832	0.09
1037.249	0.09
1037.666	0.09
1038.083	0.09
1038.501	0.09
1038.918	0.09
1039.335	0.09
1039.752	0.09
1040.169	0.09
1040.586	0.09
1041.003	0.09
1041.419	0.09
1041.836	0.09
1042.253	0.09
1042.67	0.09
1043.087	0.09
1043.504	0.09
1043.92	0.09
1044.337	0.09
1044.754	0.09
1045.17	0.09
1045.587	0.09
1046.004	0.09
1046.42	0.09
1046.837	0.09
1047.253	0.09
1047.67	0.09
1048.086	0.09
1048.503	0.09
1048.919	0.09
1049.335	0.09
1049.752	0.09
1050.168	0.09
1050.584	0.09
1051.001	0.09
1051.417	0.09
1051.833	0.09
1052.249	0.09
1052.665	0.09
1053.081	0.09
1053.497	0.09
1053.914	0.09
1054.33	0.09
1054.746	0.09
1055.162	0.09
1055.578	0.09
1055.993	0.09
1056.409	0.09
1056.825	0.09
1057.241	0.09
1057.657	0.09
1058.073	0.09
1058.488	0.09
1058.904	0.09
1059.32	0.09
1059.736	0.09
1060.151	0.09
1060.567	0.09
1060.982	0.09
1061.398	0.09
1061.813	0.09
1062.229	0.09
1062.644	0.09
1063.06	0.09
1063.475	0.09
1063.891	0.09
1064.306	0.09
1064.721	0.09
1065.137	0.09
1065.552	0.09
1065.967	0.09
1066.382	0.09
1066.798	0.09
1067.213	0.09
1067.628	0.09
1068.043	0.09
1068.458	0.09
1068.873	0.09
1069.288	0.09
1069.703	0.09
1070.118	0.09
1070.533	0.09
1070.948	0.1
1071.363	0.1
1071.778	0.1
1072.193	0.1
1072.607	0.1
1073.022	0.1
1073.437	0.1
1073.852	0.1
1074.266	0.1
1074.681	0.1
1075.096	0.1
1075.51	0.1
1075.925	0.1
1076.339	0.1
1076.754	0.1
1077.168	0.1
1077.583	0.1
1077.997	0.1
1078.412	0.1
1078.826	0.1
1079.24	0.1
1079.655	0.1
1080.069	0.11
1080.483	0.11
1080.897	0.11
1081.312	0.11
1081.726	0.11
1082.14	0.11
1082.554	0.11
1082.968	0.11
1083.382	0.11
1083.796	0.12
1084.21	0.12
1084.624	0.12
1085.038	0.12
1085.452	0.12
1085.866	0.13
1086.28	0.13
1086.694	0.13
1087.108	0.13
1087.521	0.13
1087.935	0.13
1088.349	0.13
1088.763	0.14
1089.176	0.14
1089.59	0.14
1090.004	0.15
1090.417	0.15
1090.831	0.15
1091.244	0.16
1091.658	0.16
1092.071	0.17
1092.485	0.17
1092.898	0.17
1093.312	0.18
1093.725	0.19
1094.138	0.19
1094.552	0.2
1094.965	0.2
1095.378	0.21
1095.791	0.22
1096.205	0.23
1096.618	0.23
1097.031	0.24
1097.444	0.25
1097.857	0.26
1098.27	0.27
1098.683	0.28
1099.096	0.29
1099.509	0.31
1099.922	0.32
1100.335	0.34
1100.748	0.35
1101.161	0.37
1101.574	0.39
1101.986	0.42
1102.399	0.44
1102.812	0.47
1103.225	0.5
1103.637	0.54
1104.05	0.59
1104.463	0.64
1104.875	0.7
1105.288	0.77
1105.7	0.87
1106.113	1
1106.525	1.21
1106.938	1.95
1107.35	-0
1107.763	-0
1108.175	-0
1108.588	-0
1109	-0
1109.412	-0
1109.824	-0
1110.237	-0
1110.649	-0
1111.061	-0
