Data from unagg-15c-2a-1h_Absorbance__1197__01624.txt Node

Date: Mon May 06 10:12:38 CEST 2024
User: Laser008
Spectrometer: MAYP115816
Trigger mode: 0
Integration Time (sec): 2.000000E-1
Scans to average: 10
Electric dark correction enabled: true
Nonlinearity correction enabled: true
Boxcar width: 5
XAxis mode: Wavelengths
Number of Pixels in Spectrum: 2068
>>>>>Begin Spectral Data<<<<<
198.914	-1.81
199.384	-1.67
199.855	-1.53
200.325	-1.4
200.796	-1.32
201.266	-1.27
201.737	-1.2
202.207	-1.14
202.677	-1.09
203.147	-1.05
203.618	-1.02
204.088	-1
204.558	-0.98
205.028	-0.97
205.498	-0.96
205.968	-0.96
206.439	-0.96
206.909	-0.95
207.379	-0.95
207.849	-0.95
208.319	-0.95
208.789	-0.95
209.258	-0.94
209.728	-0.94
210.198	-0.94
210.668	-0.94
211.138	-0.94
211.608	-0.94
212.077	-0.94
212.547	-0.94
213.017	-0.94
213.486	-0.94
213.956	-0.94
214.426	-0.94
214.895	-0.94
215.365	-0.93
215.834	-0.93
216.304	-0.93
216.773	-0.93
217.243	-0.93
217.712	-0.92
218.181	-0.92
218.651	-0.92
219.12	-0.92
219.589	-0.91
220.058	-0.91
220.528	-0.91
220.997	-0.91
221.466	-0.91
221.935	-0.9
222.404	-0.9
222.873	-0.89
223.342	-0.89
223.812	-0.88
224.281	-0.87
224.749	-0.86
225.218	-0.86
225.687	-0.84
226.156	-0.83
226.625	-0.82
227.094	-0.81
227.563	-0.79
228.031	-0.77
228.5	-0.75
228.969	-0.72
229.438	-0.7
229.906	-0.67
230.375	-0.64
230.844	-0.6
231.312	-0.56
231.781	-0.52
232.249	-0.48
232.718	-0.44
233.186	-0.39
233.655	-0.35
234.123	-0.31
234.591	-0.26
235.06	-0.22
235.528	-0.18
235.996	-0.15
236.465	-0.11
236.933	-0.07
237.401	-0.04
237.869	-0.01
238.337	0.02
238.805	0.04
239.274	0.07
239.742	0.09
240.21	0.11
240.678	0.13
241.146	0.15
241.614	0.17
242.081	0.18
242.549	0.2
243.017	0.21
243.485	0.23
243.953	0.24
244.421	0.25
244.888	0.26
245.356	0.27
245.824	0.28
246.291	0.29
246.759	0.29
247.227	0.3
247.694	0.31
248.162	0.32
248.629	0.32
249.097	0.33
249.564	0.34
250.032	0.34
250.499	0.35
250.967	0.36
251.434	0.36
251.901	0.37
252.369	0.37
252.836	0.38
253.303	0.38
253.77	0.38
254.237	0.39
254.705	0.39
255.172	0.4
255.639	0.4
256.106	0.4
256.573	0.41
257.04	0.41
257.507	0.41
257.974	0.41
258.441	0.41
258.908	0.42
259.375	0.42
259.841	0.42
260.308	0.42
260.775	0.42
261.242	0.42
261.709	0.42
262.175	0.42
262.642	0.42
263.109	0.42
263.575	0.42
264.042	0.42
264.508	0.42
264.975	0.42
265.441	0.42
265.908	0.42
266.374	0.41
266.841	0.41
267.307	0.41
267.773	0.41
268.24	0.41
268.706	0.4
269.172	0.4
269.639	0.4
270.105	0.4
270.571	0.39
271.037	0.39
271.503	0.39
271.969	0.39
272.435	0.38
272.902	0.38
273.368	0.38
273.834	0.38
274.3	0.37
274.765	0.37
275.231	0.37
275.697	0.36
276.163	0.36
276.629	0.36
277.095	0.35
277.56	0.35
278.026	0.35
278.492	0.34
278.958	0.34
279.423	0.34
279.889	0.33
280.354	0.33
280.82	0.32
281.286	0.32
281.751	0.32
282.217	0.32
282.682	0.31
283.147	0.31
283.613	0.31
284.078	0.3
284.544	0.3
285.009	0.3
285.474	0.3
285.939	0.29
286.405	0.29
286.87	0.29
287.335	0.29
287.8	0.28
288.265	0.28
288.73	0.28
289.195	0.28
289.66	0.27
290.125	0.27
290.59	0.27
291.055	0.27
291.52	0.27
291.985	0.26
292.45	0.26
292.915	0.26
293.38	0.26
293.844	0.26
294.309	0.26
294.774	0.26
295.239	0.25
295.703	0.25
296.168	0.25
296.632	0.25
297.097	0.25
297.562	0.25
298.026	0.25
298.491	0.25
298.955	0.25
299.419	0.25
299.884	0.25
300.348	0.24
300.813	0.24
301.277	0.24
301.741	0.24
302.205	0.24
302.67	0.24
303.134	0.24
303.598	0.24
304.062	0.24
304.526	0.24
304.99	0.24
305.454	0.24
305.919	0.24
306.383	0.24
306.847	0.24
307.31	0.24
307.774	0.24
308.238	0.24
308.702	0.24
309.166	0.24
309.63	0.24
310.094	0.24
310.557	0.24
311.021	0.24
311.485	0.24
311.948	0.24
312.412	0.24
312.876	0.24
313.339	0.24
313.803	0.24
314.266	0.24
314.73	0.24
315.193	0.24
315.657	0.24
316.12	0.23
316.584	0.23
317.047	0.23
317.51	0.23
317.973	0.23
318.437	0.23
318.9	0.23
319.363	0.23
319.826	0.23
320.29	0.23
320.753	0.23
321.216	0.23
321.679	0.23
322.142	0.23
322.605	0.23
323.068	0.23
323.531	0.23
323.994	0.23
324.457	0.23
324.92	0.23
325.382	0.23
325.845	0.23
326.308	0.23
326.771	0.23
327.233	0.23
327.696	0.23
328.159	0.23
328.622	0.23
329.084	0.23
329.547	0.23
330.009	0.23
330.472	0.23
330.934	0.23
331.397	0.23
331.859	0.23
332.322	0.22
332.784	0.22
333.246	0.22
333.709	0.22
334.171	0.22
334.633	0.22
335.096	0.22
335.558	0.22
336.02	0.22
336.482	0.22
336.944	0.22
337.406	0.22
337.868	0.22
338.331	0.22
338.793	0.22
339.255	0.22
339.717	0.22
340.178	0.22
340.64	0.22
341.102	0.22
341.564	0.22
342.026	0.22
342.488	0.22
342.949	0.22
343.411	0.22
343.873	0.22
344.335	0.22
344.796	0.22
345.258	0.22
345.719	0.22
346.181	0.22
346.643	0.22
347.104	0.21
347.566	0.21
348.027	0.21
348.488	0.21
348.95	0.21
349.411	0.21
349.873	0.21
350.334	0.21
350.795	0.21
351.256	0.21
351.718	0.21
352.179	0.21
352.64	0.21
353.101	0.21
353.562	0.21
354.023	0.21
354.484	0.21
354.945	0.21
355.406	0.21
355.867	0.21
356.328	0.21
356.789	0.21
357.25	0.21
357.711	0.21
358.172	0.21
358.633	0.21
359.093	0.21
359.554	0.21
360.015	0.21
360.476	0.21
360.936	0.21
361.397	0.21
361.858	0.21
362.318	0.21
362.779	0.21
363.239	0.21
363.7	0.21
364.16	0.21
364.621	0.21
365.081	0.21
365.541	0.21
366.002	0.21
366.462	0.21
366.922	0.21
367.383	0.21
367.843	0.21
368.303	0.21
368.763	0.21
369.223	0.21
369.684	0.21
370.144	0.21
370.604	0.21
371.064	0.21
371.524	0.21
371.984	0.21
372.444	0.21
372.904	0.21
373.363	0.21
373.823	0.21
374.283	0.21
374.743	0.21
375.203	0.21
375.663	0.21
376.122	0.21
376.582	0.21
377.042	0.21
377.501	0.21
377.961	0.21
378.42	0.21
378.88	0.21
379.34	0.21
379.799	0.21
380.259	0.21
380.718	0.21
381.177	0.21
381.637	0.21
382.096	0.21
382.555	0.21
383.015	0.21
383.474	0.21
383.933	0.21
384.393	0.21
384.852	0.21
385.311	0.21
385.77	0.21
386.229	0.21
386.688	0.21
387.147	0.21
387.606	0.21
388.065	0.21
388.524	0.21
388.983	0.21
389.442	0.21
389.901	0.21
390.36	0.21
390.819	0.21
391.277	0.21
391.736	0.21
392.195	0.21
392.654	0.21
393.112	0.21
393.571	0.21
394.03	0.21
394.488	0.21
394.947	0.21
395.405	0.21
395.864	0.21
396.322	0.21
396.781	0.21
397.239	0.21
397.698	0.21
398.156	0.21
398.614	0.21
399.073	0.21
399.531	0.21
399.989	0.21
400.447	0.21
400.905	0.21
401.364	0.21
401.822	0.21
402.28	0.21
402.738	0.21
403.196	0.21
403.654	0.21
404.112	0.21
404.57	0.21
405.028	0.21
405.486	0.21
405.944	0.21
406.402	0.21
406.859	0.21
407.317	0.21
407.775	0.21
408.233	0.21
408.691	0.21
409.148	0.21
409.606	0.21
410.064	0.21
410.521	0.21
410.979	0.21
411.436	0.21
411.894	0.21
412.351	0.21
412.809	0.21
413.266	0.21
413.724	0.21
414.181	0.21
414.638	0.21
415.096	0.21
415.553	0.21
416.01	0.21
416.467	0.21
416.925	0.21
417.382	0.21
417.839	0.21
418.296	0.21
418.753	0.21
419.21	0.21
419.667	0.21
420.124	0.21
420.581	0.21
421.038	0.21
421.495	0.21
421.952	0.21
422.409	0.21
422.866	0.21
423.322	0.21
423.779	0.21
424.236	0.21
424.693	0.21
425.149	0.21
425.606	0.21
426.063	0.21
426.519	0.21
426.976	0.21
427.433	0.21
427.889	0.21
428.346	0.21
428.802	0.21
429.258	0.21
429.715	0.21
430.171	0.21
430.628	0.21
431.084	0.21
431.54	0.21
431.997	0.21
432.453	0.21
432.909	0.21
433.365	0.21
433.821	0.21
434.277	0.21
434.734	0.21
435.19	0.21
435.646	0.21
436.102	0.21
436.558	0.21
437.014	0.21
437.47	0.21
437.925	0.21
438.381	0.21
438.837	0.21
439.293	0.21
439.749	0.21
440.205	0.2
440.66	0.2
441.116	0.21
441.572	0.21
442.027	0.21
442.483	0.21
442.939	0.21
443.394	0.21
443.85	0.21
444.305	0.21
444.761	0.21
445.216	0.21
445.672	0.21
446.127	0.21
446.582	0.21
447.038	0.21
447.493	0.21
447.948	0.21
448.403	0.21
448.859	0.2
449.314	0.2
449.769	0.2
450.224	0.2
450.679	0.2
451.134	0.2
451.589	0.2
452.044	0.2
452.499	0.2
452.954	0.2
453.409	0.2
453.864	0.2
454.319	0.2
454.774	0.2
455.229	0.2
455.684	0.2
456.138	0.2
456.593	0.2
457.048	0.2
457.503	0.2
457.957	0.2
458.412	0.2
458.866	0.2
459.321	0.2
459.776	0.2
460.23	0.2
460.685	0.2
461.139	0.2
461.593	0.2
462.048	0.2
462.502	0.2
462.957	0.2
463.411	0.2
463.865	0.2
464.319	0.2
464.774	0.2
465.228	0.2
465.682	0.2
466.136	0.2
466.59	0.2
467.044	0.2
467.499	0.2
467.953	0.2
468.407	0.2
468.861	0.19
469.315	0.19
469.768	0.19
470.222	0.19
470.676	0.19
471.13	0.19
471.584	0.19
472.038	0.19
472.491	0.19
472.945	0.19
473.399	0.19
473.852	0.19
474.306	0.19
474.76	0.19
475.213	0.19
475.667	0.19
476.12	0.2
476.574	0.19
477.027	0.2
477.481	0.2
477.934	0.19
478.388	0.19
478.841	0.19
479.294	0.19
479.748	0.19
480.201	0.19
480.654	0.2
481.107	0.2
481.561	0.2
482.014	0.2
482.467	0.2
482.92	0.2
483.373	0.2
483.826	0.2
484.279	0.2
484.732	0.2
485.185	0.2
485.638	0.2
486.091	0.2
486.544	0.2
486.997	0.2
487.449	0.2
487.902	0.2
488.355	0.2
488.808	0.2
489.26	0.2
489.713	0.2
490.166	0.2
490.618	0.2
491.071	0.2
491.523	0.2
491.976	0.2
492.429	0.2
492.881	0.2
493.333	0.2
493.786	0.2
494.238	0.2
494.691	0.2
495.143	0.2
495.595	0.2
496.048	0.21
496.5	0.21
496.952	0.21
497.404	0.21
497.856	0.21
498.309	0.21
498.761	0.21
499.213	0.21
499.665	0.21
500.117	0.21
500.569	0.21
501.021	0.21
501.473	0.21
501.925	0.21
502.377	0.21
502.828	0.21
503.28	0.21
503.732	0.22
504.184	0.22
504.636	0.22
505.087	0.22
505.539	0.22
505.991	0.22
506.442	0.22
506.894	0.22
507.345	0.22
507.797	0.22
508.249	0.22
508.7	0.22
509.151	0.22
509.603	0.22
510.054	0.22
510.506	0.22
510.957	0.22
511.408	0.22
511.86	0.22
512.311	0.22
512.762	0.22
513.213	0.22
513.665	0.22
514.116	0.22
514.567	0.22
515.018	0.22
515.469	0.22
515.92	0.22
516.371	0.22
516.822	0.22
517.273	0.22
517.724	0.22
518.175	0.22
518.626	0.22
519.076	0.22
519.527	0.22
519.978	0.22
520.429	0.22
520.88	0.22
521.33	0.22
521.781	0.22
522.232	0.22
522.682	0.22
523.133	0.22
523.583	0.22
524.034	0.22
524.484	0.22
524.935	0.23
525.385	0.23
525.836	0.23
526.286	0.23
526.736	0.24
527.187	0.24
527.637	0.24
528.087	0.24
528.538	0.24
528.988	0.24
529.438	0.25
529.888	0.25
530.338	0.25
530.788	0.25
531.238	0.25
531.688	0.25
532.139	0.25
532.589	0.25
533.038	0.25
533.488	0.25
533.938	0.25
534.388	0.25
534.838	0.25
535.288	0.26
535.738	0.26
536.187	0.26
536.637	0.26
537.087	0.26
537.537	0.26
537.986	0.26
538.436	0.26
538.885	0.26
539.335	0.26
539.785	0.26
540.234	0.26
540.684	0.26
541.133	0.26
541.582	0.26
542.032	0.26
542.481	0.26
542.931	0.27
543.38	0.27
543.829	0.27
544.278	0.27
544.728	0.27
545.177	0.27
545.626	0.27
546.075	0.27
546.524	0.27
546.973	0.27
547.422	0.27
547.871	0.27
548.32	0.27
548.769	0.27
549.218	0.27
549.667	0.28
550.116	0.28
550.565	0.28
551.014	0.28
551.463	0.28
551.911	0.28
552.36	0.28
552.809	0.28
553.258	0.28
553.706	0.28
554.155	0.28
554.603	0.28
555.052	0.28
555.501	0.28
555.949	0.28
556.398	0.28
556.846	0.28
557.294	0.28
557.743	0.28
558.191	0.28
558.64	0.28
559.088	0.28
559.536	0.28
559.985	0.28
560.433	0.29
560.881	0.29
561.329	0.29
561.777	0.29
562.225	0.29
562.674	0.29
563.122	0.29
563.57	0.29
564.018	0.29
564.466	0.29
564.914	0.29
565.362	0.29
565.809	0.29
566.257	0.29
566.705	0.29
567.153	0.29
567.601	0.3
568.048	0.3
568.496	0.3
568.944	0.3
569.392	0.3
569.839	0.31
570.287	0.31
570.734	0.31
571.182	0.31
571.63	0.31
572.077	0.31
572.525	0.31
572.972	0.31
573.419	0.32
573.867	0.32
574.314	0.32
574.761	0.32
575.209	0.32
575.656	0.32
576.103	0.32
576.551	0.32
576.998	0.32
577.445	0.32
577.892	0.32
578.339	0.32
578.786	0.32
579.233	0.33
579.68	0.33
580.127	0.33
580.574	0.33
581.021	0.32
581.468	0.32
581.915	0.32
582.362	0.32
582.809	0.32
583.255	0.32
583.702	0.32
584.149	0.32
584.596	0.32
585.042	0.32
585.489	0.32
585.936	0.32
586.382	0.32
586.829	0.32
587.275	0.32
587.722	0.32
588.168	0.31
588.615	0.31
589.061	0.31
589.508	0.31
589.954	0.31
590.4	0.31
590.847	0.31
591.293	0.31
591.739	0.31
592.185	0.31
592.632	0.31
593.078	0.31
593.524	0.31
593.97	0.31
594.416	0.31
594.862	0.31
595.308	0.31
595.754	0.31
596.2	0.31
596.646	0.31
597.092	0.31
597.538	0.31
597.984	0.31
598.43	0.31
598.876	0.31
599.321	0.31
599.767	0.31
600.213	0.31
600.659	0.31
601.104	0.3
601.55	0.3
601.995	0.3
602.441	0.3
602.887	0.3
603.332	0.3
603.778	0.3
604.223	0.3
604.668	0.3
605.114	0.3
605.559	0.3
606.005	0.3
606.45	0.3
606.895	0.3
607.341	0.3
607.786	0.3
608.231	0.3
608.676	0.3
609.121	0.29
609.566	0.29
610.012	0.29
610.457	0.29
610.902	0.29
611.347	0.29
611.792	0.29
612.237	0.29
612.682	0.29
613.127	0.29
613.571	0.29
614.016	0.29
614.461	0.28
614.906	0.28
615.351	0.28
615.795	0.28
616.24	0.28
616.685	0.28
617.129	0.28
617.574	0.27
618.019	0.27
618.463	0.27
618.908	0.27
619.352	0.27
619.797	0.27
620.241	0.27
620.686	0.27
621.13	0.27
621.574	0.27
622.019	0.27
622.463	0.27
622.907	0.26
623.352	0.26
623.796	0.26
624.24	0.26
624.684	0.26
625.128	0.26
625.572	0.26
626.016	0.26
626.461	0.26
626.905	0.26
627.349	0.26
627.793	0.26
628.236	0.26
628.68	0.26
629.124	0.26
629.568	0.26
630.012	0.25
630.456	0.25
630.9	0.25
631.343	0.25
631.787	0.25
632.231	0.25
632.674	0.25
633.118	0.25
633.562	0.24
634.005	0.24
634.449	0.24
634.892	0.24
635.336	0.24
635.779	0.24
636.223	0.24
636.666	0.24
637.109	0.24
637.553	0.24
637.996	0.24
638.439	0.24
638.883	0.24
639.326	0.24
639.769	0.24
640.212	0.24
640.655	0.24
641.099	0.24
641.542	0.24
641.985	0.24
642.428	0.24
642.871	0.24
643.314	0.24
643.757	0.24
644.2	0.24
644.643	0.24
645.085	0.24
645.528	0.24
645.971	0.24
646.414	0.24
646.857	0.24
647.299	0.24
647.742	0.24
648.185	0.24
648.627	0.24
649.07	0.24
649.513	0.24
649.955	0.24
650.398	0.24
650.84	0.24
651.283	0.24
651.725	0.24
652.168	0.24
652.61	0.24
653.052	0.25
653.495	0.24
653.937	0.19
654.379	0.15
654.821	0.16
655.264	0.16
655.706	0.16
656.148	0.16
656.59	0.16
657.032	0.16
657.474	0.16
657.916	0.16
658.358	0.16
658.8	0.2
659.242	0.25
659.684	0.25
660.126	0.25
660.568	0.25
661.01	0.25
661.452	0.25
661.894	0.25
662.335	0.26
662.777	0.26
663.219	0.26
663.661	0.26
664.102	0.26
664.544	0.26
664.985	0.26
665.427	0.26
665.869	0.26
666.31	0.26
666.752	0.26
667.193	0.26
667.634	0.26
668.076	0.26
668.517	0.26
668.959	0.27
669.4	0.27
669.841	0.27
670.282	0.27
670.724	0.27
671.165	0.27
671.606	0.27
672.047	0.28
672.488	0.28
672.929	0.28
673.37	0.28
673.811	0.28
674.252	0.28
674.693	0.28
675.134	0.28
675.575	0.28
676.016	0.28
676.457	0.28
676.898	0.28
677.339	0.28
677.78	0.28
678.22	0.28
678.661	0.28
679.102	0.28
679.542	0.28
679.983	0.28
680.424	0.28
680.864	0.28
681.305	0.28
681.745	0.29
682.186	0.29
682.626	0.29
683.067	0.29
683.507	0.29
683.948	0.29
684.388	0.29
684.828	0.29
685.269	0.29
685.709	0.29
686.149	0.29
686.589	0.29
687.029	0.29
687.47	0.29
687.91	0.29
688.35	0.29
688.79	0.3
689.23	0.3
689.67	0.3
690.11	0.3
690.55	0.3
690.99	0.3
691.43	0.3
691.87	0.3
692.31	0.3
692.749	0.3
693.189	0.31
693.629	0.31
694.069	0.31
694.508	0.31
694.948	0.31
695.388	0.31
695.827	0.31
696.267	0.31
696.706	0.31
697.146	0.31
697.586	0.32
698.025	0.32
698.464	0.32
698.904	0.32
699.343	0.32
699.783	0.31
700.222	0.32
700.661	0.32
701.101	0.32
701.54	0.32
701.979	0.32
702.418	0.32
702.857	0.32
703.297	0.32
703.736	0.32
704.175	0.32
704.614	0.32
705.053	0.32
705.492	0.32
705.931	0.32
706.37	0.33
706.809	0.33
707.248	0.33
707.687	0.33
708.125	0.33
708.564	0.33
709.003	0.33
709.442	0.33
709.88	0.33
710.319	0.33
710.758	0.33
711.196	0.33
711.635	0.33
712.074	0.33
712.512	0.33
712.951	0.33
713.389	0.33
713.828	0.33
714.266	0.33
714.705	0.33
715.143	0.33
715.581	0.32
716.02	0.33
716.458	0.32
716.896	0.32
717.334	0.32
717.773	0.32
718.211	0.32
718.649	0.33
719.087	0.33
719.525	0.33
719.963	0.33
720.401	0.33
720.839	0.33
721.277	0.33
721.715	0.33
722.153	0.33
722.591	0.33
723.029	0.33
723.467	0.33
723.905	0.33
724.342	0.33
724.78	0.32
725.218	0.32
725.656	0.32
726.093	0.32
726.531	0.32
726.969	0.32
727.406	0.33
727.844	0.33
728.281	0.33
728.719	0.33
729.156	0.33
729.594	0.33
730.031	0.33
730.469	0.33
730.906	0.33
731.343	0.33
731.781	0.33
732.218	0.33
732.655	0.33
733.092	0.33
733.53	0.33
733.967	0.33
734.404	0.33
734.841	0.33
735.278	0.33
735.715	0.33
736.152	0.33
736.589	0.33
737.026	0.33
737.463	0.33
737.9	0.33
738.337	0.33
738.774	0.33
739.211	0.33
739.647	0.33
740.084	0.32
740.521	0.32
740.958	0.32
741.394	0.32
741.831	0.32
742.268	0.32
742.704	0.32
743.141	0.32
743.577	0.32
744.014	0.32
744.45	0.31
744.887	0.31
745.323	0.31
745.76	0.31
746.196	0.31
746.632	0.31
747.069	0.31
747.505	0.31
747.941	0.31
748.378	0.31
748.814	0.31
749.25	0.31
749.686	0.31
750.122	0.31
750.558	0.31
750.994	0.31
751.43	0.31
751.866	0.31
752.302	0.31
752.738	0.31
753.174	0.31
753.61	0.31
754.046	0.31
754.482	0.31
754.918	0.31
755.354	0.31
755.789	0.31
756.225	0.31
756.661	0.31
757.096	0.31
757.532	0.31
757.968	0.31
758.403	0.31
758.839	0.31
759.274	0.31
759.71	0.31
760.145	0.31
760.581	0.3
761.016	0.3
761.452	0.3
761.887	0.3
762.322	0.3
762.758	0.3
763.193	0.29
763.628	0.29
764.063	0.29
764.499	0.29
764.934	0.29
765.369	0.28
765.804	0.28
766.239	0.28
766.674	0.28
767.109	0.27
767.544	0.27
767.979	0.27
768.414	0.26
768.849	0.26
769.284	0.26
769.719	0.26
770.154	0.26
770.588	0.25
771.023	0.25
771.458	0.24
771.893	0.24
772.327	0.24
772.762	0.23
773.197	0.23
773.631	0.23
774.066	0.22
774.5	0.22
774.935	0.21
775.369	0.21
775.804	0.21
776.238	0.2
776.673	0.2
777.107	0.19
777.541	0.19
777.976	0.18
778.41	0.18
778.844	0.17
779.279	0.17
779.713	0.16
780.147	0.15
780.581	0.15
781.015	0.14
781.449	0.13
781.883	0.12
782.317	0.11
782.751	0.1
783.185	0.09
783.619	0.07
784.053	0.06
784.487	0.05
784.921	0.03
785.355	0.02
785.789	0
786.223	-0.01
786.656	-0.01
787.09	-0.02
787.524	-0.03
787.957	-0.04
788.391	-0.04
788.825	-0.05
789.258	-0.05
789.692	-0.05
790.125	-0.06
790.559	-0.06
790.992	-0.06
791.426	-0.06
791.859	-0.06
792.293	-0.05
792.726	-0.04
793.159	-0.04
793.593	-0.04
794.026	-0.04
794.459	-0.04
794.892	-0.05
795.326	-0.05
795.759	-0.05
796.192	-0.05
796.625	-0.06
797.058	-0.07
797.491	-0.07
797.924	-0.08
798.357	-0.08
798.79	-0.08
799.223	-0.08
799.656	-0.08
800.089	-0.08
800.522	-0.09
800.955	-0.09
801.387	-0.09
801.82	-0.09
802.253	-0.09
802.686	-0.09
803.118	-0.09
803.551	-0.09
803.984	-0.08
804.416	-0.08
804.849	-0.07
805.281	-0.07
805.714	-0.07
806.146	-0.07
806.579	-0.07
807.011	-0.07
807.444	-0.07
807.876	-0.07
808.308	-0.07
808.741	-0.07
809.173	-0.08
809.605	-0.08
810.037	-0.08
810.47	-0.08
810.902	-0.09
811.334	-0.09
811.766	-0.08
812.198	-0.08
812.63	-0.08
813.062	-0.08
813.494	-0.08
813.926	-0.08
814.358	-0.08
814.79	-0.08
815.222	-0.07
815.654	-0.07
816.086	-0.07
816.518	-0.08
816.949	-0.08
817.381	-0.08
817.813	-0.07
818.245	-0.06
818.676	-0.05
819.108	-0.04
819.54	-0.03
819.971	-0.02
820.403	-0.01
820.834	0.01
821.266	0.02
821.697	0.04
822.129	0.06
822.56	0.07
822.991	0.08
823.423	0.09
823.854	0.1
824.286	0.11
824.717	0.13
825.148	0.14
825.579	0.15
826.01	0.16
826.442	0.17
826.873	0.17
827.304	0.18
827.735	0.19
828.166	0.19
828.597	0.2
829.028	0.2
829.459	0.21
829.89	0.21
830.321	0.22
830.752	0.22
831.183	0.23
831.613	0.23
832.044	0.23
832.475	0.24
832.906	0.24
833.336	0.24
833.767	0.25
834.198	0.25
834.628	0.25
835.059	0.25
835.49	0.25
835.92	0.25
836.351	0.26
836.781	0.26
837.212	0.26
837.642	0.26
838.072	0.26
838.503	0.26
838.933	0.26
839.364	0.26
839.794	0.27
840.224	0.27
840.654	0.27
841.085	0.27
841.515	0.27
841.945	0.27
842.375	0.27
842.805	0.27
843.235	0.27
843.665	0.27
844.095	0.27
844.525	0.27
844.955	0.27
845.385	0.27
845.815	0.27
846.245	0.27
846.675	0.27
847.105	0.27
847.534	0.27
847.964	0.27
848.394	0.27
848.824	0.27
849.253	0.27
849.683	0.27
850.112	0.27
850.542	0.27
850.972	0.28
851.401	0.28
851.831	0.28
852.26	0.28
852.69	0.28
853.119	0.28
853.548	0.28
853.978	0.28
854.407	0.28
854.836	0.28
855.266	0.28
855.695	0.28
856.124	0.28
856.553	0.28
856.983	0.28
857.412	0.27
857.841	0.27
858.27	0.27
858.699	0.27
859.128	0.27
859.557	0.27
859.986	0.27
860.415	0.27
860.844	0.27
861.273	0.27
861.702	0.27
862.13	0.27
862.559	0.27
862.988	0.27
863.417	0.27
863.845	0.27
864.274	0.27
864.703	0.27
865.131	0.27
865.56	0.27
865.989	0.27
866.417	0.27
866.846	0.27
867.274	0.26
867.703	0.26
868.131	0.26
868.559	0.26
868.988	0.26
869.416	0.26
869.844	0.26
870.273	0.26
870.701	0.26
871.129	0.26
871.557	0.26
871.986	0.26
872.414	0.26
872.842	0.26
873.27	0.26
873.698	0.26
874.126	0.26
874.554	0.26
874.982	0.26
875.41	0.26
875.838	0.26
876.266	0.26
876.694	0.26
877.122	0.26
877.549	0.26
877.977	0.26
878.405	0.26
878.833	0.26
879.26	0.26
879.688	0.26
880.116	0.26
880.543	0.26
880.971	0.26
881.399	0.26
881.826	0.26
882.254	0.26
882.681	0.26
883.109	0.26
883.536	0.26
883.963	0.26
884.391	0.26
884.818	0.26
885.245	0.26
885.673	0.26
886.1	0.26
886.527	0.26
886.954	0.26
887.381	0.26
887.809	0.26
888.236	0.26
888.663	0.26
889.09	0.26
889.517	0.26
889.944	0.26
890.371	0.26
890.798	0.26
891.225	0.26
891.652	0.26
892.078	0.26
892.505	0.26
892.932	0.26
893.359	0.26
893.786	0.26
894.212	0.26
894.639	0.26
895.066	0.26
895.492	0.26
895.919	0.26
896.346	0.26
896.772	0.26
897.199	0.26
897.625	0.25
898.052	0.25
898.478	0.25
898.904	0.25
899.331	0.25
899.757	0.25
900.183	0.25
900.61	0.25
901.036	0.25
901.462	0.25
901.888	0.25
902.315	0.25
902.741	0.25
903.167	0.25
903.593	0.25
904.019	0.25
904.445	0.25
904.871	0.25
905.297	0.25
905.723	0.25
906.149	0.25
906.575	0.25
907.001	0.25
907.427	0.25
907.852	0.24
908.278	0.24
908.704	0.24
909.13	0.24
909.555	0.24
909.981	0.24
910.407	0.24
910.832	0.24
911.258	0.24
911.684	0.24
912.109	0.24
912.535	0.24
912.96	0.25
913.386	0.25
913.811	0.25
914.236	0.25
914.662	0.25
915.087	0.25
915.512	0.25
915.938	0.25
916.363	0.25
916.788	0.25
917.213	0.25
917.639	0.25
918.064	0.25
918.489	0.25
918.914	0.25
919.339	0.24
919.764	0.24
920.189	0.24
920.614	0.24
921.039	0.24
921.464	0.24
921.889	0.24
922.314	0.24
922.738	0.24
923.163	0.24
923.588	0.24
924.013	0.24
924.437	0.24
924.862	0.24
925.287	0.24
925.711	0.24
926.136	0.24
926.561	0.24
926.985	0.24
927.41	0.24
927.834	0.24
928.259	0.23
928.683	0.23
929.108	0.23
929.532	0.23
929.956	0.23
930.381	0.23
930.805	0.23
931.229	0.23
931.653	0.23
932.078	0.23
932.502	0.22
932.926	0.22
933.35	0.22
933.774	0.22
934.198	0.22
934.622	0.22
935.046	0.22
935.47	0.22
935.894	0.22
936.318	0.22
936.742	0.22
937.166	0.22
937.59	0.22
938.014	0.22
938.437	0.22
938.861	0.22
939.285	0.22
939.709	0.22
940.132	0.22
940.556	0.22
940.98	0.22
941.403	0.22
941.827	0.22
942.25	0.22
942.674	0.22
943.097	0.22
943.521	0.22
943.944	0.22
944.368	0.22
944.791	0.22
945.214	0.22
945.638	0.22
946.061	0.22
946.484	0.22
946.907	0.22
947.331	0.22
947.754	0.22
948.177	0.22
948.6	0.21
949.023	0.21
949.446	0.21
949.869	0.21
950.292	0.21
950.715	0.21
951.138	0.21
951.561	0.21
951.984	0.21
952.407	0.21
952.83	0.21
953.252	0.21
953.675	0.21
954.098	0.21
954.521	0.21
954.943	0.21
955.366	0.21
955.789	0.21
956.211	0.21
956.634	0.21
957.056	0.21
957.479	0.21
957.902	0.21
958.324	0.21
958.746	0.21
959.169	0.21
959.591	0.21
960.014	0.21
960.436	0.21
960.858	0.2
961.281	0.2
961.703	0.2
962.125	0.2
962.547	0.21
962.969	0.21
963.391	0.21
963.814	0.21
964.236	0.21
964.658	0.21
965.08	0.21
965.502	0.21
965.924	0.21
966.346	0.21
966.768	0.21
967.189	0.21
967.611	0.21
968.033	0.21
968.455	0.21
968.877	0.21
969.298	0.21
969.72	0.21
970.142	0.21
970.563	0.2
970.985	0.2
971.407	0.2
971.828	0.2
972.25	0.2
972.671	0.2
973.093	0.2
973.514	0.2
973.936	0.2
974.357	0.2
974.778	0.2
975.2	0.2
975.621	0.2
976.042	0.2
976.464	0.2
976.885	0.2
977.306	0.2
977.727	0.2
978.148	0.2
978.57	0.2
978.991	0.2
979.412	0.2
979.833	0.2
980.254	0.2
980.675	0.2
981.096	0.2
981.517	0.2
981.937	0.2
982.358	0.19
982.779	0.19
983.2	0.19
983.621	0.19
984.042	0.19
984.462	0.19
984.883	0.19
985.304	0.19
985.724	0.19
986.145	0.19
986.565	0.19
986.986	0.19
987.407	0.19
987.827	0.19
988.248	0.19
988.668	0.19
989.088	0.19
989.509	0.19
989.929	0.19
990.35	0.19
990.77	0.19
991.19	0.19
991.61	0.19
992.031	0.19
992.451	0.19
992.871	0.19
993.291	0.19
993.711	0.19
994.131	0.18
994.551	0.18
994.971	0.18
995.391	0.18
995.811	0.18
996.231	0.18
996.651	0.18
997.071	0.18
997.491	0.18
997.911	0.18
998.331	0.18
998.75	0.18
999.17	0.18
999.59	0.18
1000.009	0.18
1000.429	0.18
1000.849	0.18
1001.268	0.18
1001.688	0.18
1002.107	0.18
1002.527	0.19
1002.946	0.19
1003.366	0.19
1003.785	0.19
1004.205	0.19
1004.624	0.19
1005.044	0.18
1005.463	0.18
1005.882	0.18
1006.301	0.18
1006.721	0.18
1007.14	0.18
1007.559	0.18
1007.978	0.18
1008.397	0.18
1008.816	0.18
1009.235	0.18
1009.655	0.18
1010.074	0.18
1010.492	0.18
1010.911	0.18
1011.33	0.18
1011.749	0.18
1012.168	0.18
1012.587	0.18
1013.006	0.18
1013.425	0.18
1013.843	0.17
1014.262	0.17
1014.681	0.17
1015.099	0.17
1015.518	0.17
1015.937	0.17
1016.355	0.17
1016.774	0.17
1017.192	0.17
1017.611	0.17
1018.029	0.17
1018.448	0.17
1018.866	0.17
1019.285	0.17
1019.703	0.17
1020.121	0.17
1020.54	0.17
1020.958	0.17
1021.376	0.18
1021.794	0.18
1022.213	0.18
1022.631	0.18
1023.049	0.18
1023.467	0.18
1023.885	0.18
1024.303	0.18
1024.721	0.18
1025.139	0.18
1025.557	0.18
1025.975	0.18
1026.393	0.18
1026.811	0.18
1027.229	0.18
1027.647	0.18
1028.065	0.18
1028.482	0.18
1028.9	0.19
1029.318	0.19
1029.735	0.19
1030.153	0.19
1030.571	0.19
1030.988	0.19
1031.406	0.19
1031.823	0.19
1032.241	0.19
1032.659	0.19
1033.076	0.19
1033.493	0.19
1033.911	0.19
1034.328	0.19
1034.746	0.19
1035.163	0.18
1035.58	0.18
1035.997	0.18
1036.415	0.18
1036.832	0.18
1037.249	0.18
1037.666	0.18
1038.083	0.18
1038.501	0.18
1038.918	0.18
1039.335	0.18
1039.752	0.18
1040.169	0.18
1040.586	0.18
1041.003	0.18
1041.419	0.17
1041.836	0.17
1042.253	0.17
1042.67	0.17
1043.087	0.17
1043.504	0.17
1043.92	0.17
1044.337	0.17
1044.754	0.17
1045.17	0.17
1045.587	0.17
1046.004	0.17
1046.42	0.17
1046.837	0.17
1047.253	0.17
1047.67	0.17
1048.086	0.17
1048.503	0.17
1048.919	0.17
1049.335	0.17
1049.752	0.17
1050.168	0.17
1050.584	0.17
1051.001	0.17
1051.417	0.17
1051.833	0.17
1052.249	0.17
1052.665	0.17
1053.081	0.17
1053.497	0.17
1053.914	0.17
1054.33	0.17
1054.746	0.17
1055.162	0.17
1055.578	0.17
1055.993	0.17
1056.409	0.17
1056.825	0.17
1057.241	0.17
1057.657	0.17
1058.073	0.17
1058.488	0.17
1058.904	0.17
1059.32	0.17
1059.736	0.17
1060.151	0.17
1060.567	0.17
1060.982	0.17
1061.398	0.17
1061.813	0.17
1062.229	0.17
1062.644	0.17
1063.06	0.17
1063.475	0.17
1063.891	0.17
1064.306	0.17
1064.721	0.17
1065.137	0.17
1065.552	0.17
1065.967	0.17
1066.382	0.17
1066.798	0.17
1067.213	0.17
1067.628	0.17
1068.043	0.17
1068.458	0.17
1068.873	0.17
1069.288	0.17
1069.703	0.17
1070.118	0.17
1070.533	0.17
1070.948	0.17
1071.363	0.17
1071.778	0.17
1072.193	0.17
1072.607	0.17
1073.022	0.17
1073.437	0.17
1073.852	0.17
1074.266	0.17
1074.681	0.17
1075.096	0.17
1075.51	0.17
1075.925	0.17
1076.339	0.17
1076.754	0.17
1077.168	0.17
1077.583	0.17
1077.997	0.17
1078.412	0.17
1078.826	0.17
1079.24	0.17
1079.655	0.17
1080.069	0.17
1080.483	0.17
1080.897	0.17
1081.312	0.17
1081.726	0.18
1082.14	0.18
1082.554	0.18
1082.968	0.18
1083.382	0.18
1083.796	0.18
1084.21	0.19
1084.624	0.19
1085.038	0.19
1085.452	0.19
1085.866	0.19
1086.28	0.19
1086.694	0.19
1087.108	0.2
1087.521	0.2
1087.935	0.2
1088.349	0.2
1088.763	0.2
1089.176	0.2
1089.59	0.21
1090.004	0.21
1090.417	0.21
1090.831	0.21
1091.244	0.22
1091.658	0.22
1092.071	0.22
1092.485	0.23
1092.898	0.23
1093.312	0.24
1093.725	0.24
1094.138	0.25
1094.552	0.25
1094.965	0.26
1095.378	0.26
1095.791	0.27
1096.205	0.28
1096.618	0.28
1097.031	0.29
1097.444	0.3
1097.857	0.3
1098.27	0.31
1098.683	0.32
1099.096	0.33
1099.509	0.34
1099.922	0.35
1100.335	0.36
1100.748	0.37
1101.161	0.39
1101.574	0.41
1101.986	0.43
1102.399	0.45
1102.812	0.47
1103.225	0.5
1103.637	0.53
1104.05	0.56
1104.463	0.61
1104.875	0.65
1105.288	0.71
1105.7	0.77
1106.113	0.85
1106.525	0.95
1106.938	1.14
1107.35	1.64
1107.763	-0
1108.175	-0
1108.588	-0
1109	-0
1109.412	-0
1109.824	-0
1110.237	-0
1110.649	-0
1111.061	-0
