Data from unagg-15c-2a-1h_Absorbance__858__01285.txt Node

Date: Mon May 06 10:01:20 CEST 2024
User: Laser008
Spectrometer: MAYP115816
Trigger mode: 0
Integration Time (sec): 2.000000E-1
Scans to average: 10
Electric dark correction enabled: true
Nonlinearity correction enabled: true
Boxcar width: 5
XAxis mode: Wavelengths
Number of Pixels in Spectrum: 2068
>>>>>Begin Spectral Data<<<<<
198.914	-1.83
199.384	-1.69
199.855	-1.54
200.325	-1.42
200.796	-1.34
201.266	-1.29
201.737	-1.22
202.207	-1.16
202.677	-1.11
203.147	-1.06
203.618	-1.03
204.088	-1.01
204.558	-0.99
205.028	-0.98
205.498	-0.97
205.968	-0.97
206.439	-0.97
206.909	-0.96
207.379	-0.96
207.849	-0.96
208.319	-0.96
208.789	-0.96
209.258	-0.95
209.728	-0.95
210.198	-0.95
210.668	-0.95
211.138	-0.95
211.608	-0.95
212.077	-0.95
212.547	-0.95
213.017	-0.95
213.486	-0.95
213.956	-0.95
214.426	-0.95
214.895	-0.95
215.365	-0.95
215.834	-0.94
216.304	-0.94
216.773	-0.94
217.243	-0.94
217.712	-0.93
218.181	-0.93
218.651	-0.93
219.12	-0.93
219.589	-0.93
220.058	-0.93
220.528	-0.92
220.997	-0.92
221.466	-0.92
221.935	-0.91
222.404	-0.91
222.873	-0.9
223.342	-0.9
223.812	-0.89
224.281	-0.88
224.749	-0.87
225.218	-0.86
225.687	-0.85
226.156	-0.84
226.625	-0.83
227.094	-0.82
227.563	-0.8
228.031	-0.78
228.5	-0.76
228.969	-0.73
229.438	-0.71
229.906	-0.68
230.375	-0.64
230.844	-0.61
231.312	-0.57
231.781	-0.53
232.249	-0.49
232.718	-0.44
233.186	-0.4
233.655	-0.35
234.123	-0.31
234.591	-0.26
235.06	-0.22
235.528	-0.18
235.996	-0.14
236.465	-0.1
236.933	-0.07
237.401	-0.03
237.869	0
238.337	0.03
238.805	0.06
239.274	0.09
239.742	0.11
240.21	0.14
240.678	0.16
241.146	0.18
241.614	0.2
242.081	0.22
242.549	0.23
243.017	0.25
243.485	0.26
243.953	0.27
244.421	0.29
244.888	0.3
245.356	0.31
245.824	0.32
246.291	0.33
246.759	0.34
247.227	0.34
247.694	0.35
248.162	0.36
248.629	0.37
249.097	0.38
249.564	0.38
250.032	0.39
250.499	0.4
250.967	0.4
251.434	0.41
251.901	0.41
252.369	0.42
252.836	0.42
253.303	0.43
253.77	0.43
254.237	0.44
254.705	0.44
255.172	0.45
255.639	0.45
256.106	0.45
256.573	0.46
257.04	0.46
257.507	0.46
257.974	0.46
258.441	0.46
258.908	0.47
259.375	0.47
259.841	0.47
260.308	0.47
260.775	0.47
261.242	0.47
261.709	0.47
262.175	0.47
262.642	0.47
263.109	0.47
263.575	0.47
264.042	0.47
264.508	0.47
264.975	0.47
265.441	0.47
265.908	0.47
266.374	0.47
266.841	0.47
267.307	0.46
267.773	0.46
268.24	0.46
268.706	0.46
269.172	0.46
269.639	0.45
270.105	0.45
270.571	0.45
271.037	0.45
271.503	0.45
271.969	0.44
272.435	0.44
272.902	0.44
273.368	0.43
273.834	0.43
274.3	0.43
274.765	0.43
275.231	0.42
275.697	0.42
276.163	0.42
276.629	0.41
277.095	0.41
277.56	0.41
278.026	0.4
278.492	0.4
278.958	0.4
279.423	0.39
279.889	0.39
280.354	0.39
280.82	0.39
281.286	0.38
281.751	0.38
282.217	0.38
282.682	0.37
283.147	0.37
283.613	0.37
284.078	0.37
284.544	0.36
285.009	0.36
285.474	0.36
285.939	0.36
286.405	0.35
286.87	0.35
287.335	0.35
287.8	0.35
288.265	0.34
288.73	0.34
289.195	0.34
289.66	0.34
290.125	0.34
290.59	0.33
291.055	0.33
291.52	0.33
291.985	0.33
292.45	0.33
292.915	0.33
293.38	0.32
293.844	0.32
294.309	0.32
294.774	0.32
295.239	0.32
295.703	0.32
296.168	0.32
296.632	0.32
297.097	0.32
297.562	0.32
298.026	0.31
298.491	0.31
298.955	0.31
299.419	0.31
299.884	0.31
300.348	0.31
300.813	0.31
301.277	0.31
301.741	0.31
302.205	0.31
302.67	0.31
303.134	0.31
303.598	0.31
304.062	0.31
304.526	0.31
304.99	0.31
305.454	0.31
305.919	0.31
306.383	0.31
306.847	0.31
307.31	0.31
307.774	0.3
308.238	0.3
308.702	0.3
309.166	0.3
309.63	0.3
310.094	0.3
310.557	0.3
311.021	0.3
311.485	0.3
311.948	0.3
312.412	0.3
312.876	0.3
313.339	0.3
313.803	0.3
314.266	0.3
314.73	0.3
315.193	0.3
315.657	0.3
316.12	0.3
316.584	0.3
317.047	0.3
317.51	0.3
317.973	0.3
318.437	0.3
318.9	0.3
319.363	0.3
319.826	0.3
320.29	0.3
320.753	0.3
321.216	0.3
321.679	0.3
322.142	0.3
322.605	0.3
323.068	0.29
323.531	0.29
323.994	0.29
324.457	0.29
324.92	0.29
325.382	0.29
325.845	0.29
326.308	0.29
326.771	0.29
327.233	0.29
327.696	0.29
328.159	0.29
328.622	0.29
329.084	0.29
329.547	0.29
330.009	0.29
330.472	0.29
330.934	0.29
331.397	0.29
331.859	0.29
332.322	0.29
332.784	0.29
333.246	0.29
333.709	0.29
334.171	0.29
334.633	0.29
335.096	0.29
335.558	0.29
336.02	0.28
336.482	0.28
336.944	0.28
337.406	0.28
337.868	0.28
338.331	0.28
338.793	0.28
339.255	0.28
339.717	0.28
340.178	0.28
340.64	0.28
341.102	0.28
341.564	0.28
342.026	0.28
342.488	0.28
342.949	0.28
343.411	0.28
343.873	0.28
344.335	0.28
344.796	0.28
345.258	0.28
345.719	0.28
346.181	0.28
346.643	0.28
347.104	0.28
347.566	0.28
348.027	0.28
348.488	0.28
348.95	0.27
349.411	0.27
349.873	0.27
350.334	0.27
350.795	0.27
351.256	0.27
351.718	0.27
352.179	0.27
352.64	0.27
353.101	0.27
353.562	0.27
354.023	0.27
354.484	0.27
354.945	0.27
355.406	0.27
355.867	0.27
356.328	0.27
356.789	0.26
357.25	0.26
357.711	0.26
358.172	0.26
358.633	0.27
359.093	0.27
359.554	0.27
360.015	0.27
360.476	0.27
360.936	0.27
361.397	0.27
361.858	0.27
362.318	0.27
362.779	0.27
363.239	0.27
363.7	0.27
364.16	0.27
364.621	0.27
365.081	0.27
365.541	0.27
366.002	0.27
366.462	0.27
366.922	0.27
367.383	0.27
367.843	0.27
368.303	0.27
368.763	0.27
369.223	0.27
369.684	0.27
370.144	0.27
370.604	0.27
371.064	0.27
371.524	0.27
371.984	0.27
372.444	0.27
372.904	0.27
373.363	0.27
373.823	0.27
374.283	0.27
374.743	0.27
375.203	0.27
375.663	0.27
376.122	0.27
376.582	0.27
377.042	0.27
377.501	0.27
377.961	0.27
378.42	0.27
378.88	0.27
379.34	0.27
379.799	0.27
380.259	0.27
380.718	0.27
381.177	0.27
381.637	0.27
382.096	0.27
382.555	0.27
383.015	0.27
383.474	0.27
383.933	0.27
384.393	0.27
384.852	0.27
385.311	0.27
385.77	0.27
386.229	0.27
386.688	0.27
387.147	0.27
387.606	0.27
388.065	0.27
388.524	0.27
388.983	0.27
389.442	0.27
389.901	0.27
390.36	0.27
390.819	0.27
391.277	0.27
391.736	0.27
392.195	0.27
392.654	0.27
393.112	0.27
393.571	0.27
394.03	0.27
394.488	0.27
394.947	0.27
395.405	0.27
395.864	0.27
396.322	0.27
396.781	0.27
397.239	0.27
397.698	0.27
398.156	0.27
398.614	0.27
399.073	0.27
399.531	0.27
399.989	0.27
400.447	0.27
400.905	0.27
401.364	0.27
401.822	0.27
402.28	0.27
402.738	0.27
403.196	0.27
403.654	0.27
404.112	0.27
404.57	0.27
405.028	0.27
405.486	0.27
405.944	0.27
406.402	0.27
406.859	0.27
407.317	0.27
407.775	0.27
408.233	0.27
408.691	0.27
409.148	0.27
409.606	0.27
410.064	0.27
410.521	0.27
410.979	0.27
411.436	0.27
411.894	0.27
412.351	0.27
412.809	0.27
413.266	0.27
413.724	0.27
414.181	0.27
414.638	0.27
415.096	0.26
415.553	0.26
416.01	0.26
416.467	0.26
416.925	0.26
417.382	0.26
417.839	0.26
418.296	0.26
418.753	0.26
419.21	0.27
419.667	0.27
420.124	0.27
420.581	0.27
421.038	0.27
421.495	0.27
421.952	0.27
422.409	0.27
422.866	0.27
423.322	0.27
423.779	0.27
424.236	0.27
424.693	0.27
425.149	0.27
425.606	0.26
426.063	0.26
426.519	0.26
426.976	0.26
427.433	0.26
427.889	0.26
428.346	0.27
428.802	0.27
429.258	0.27
429.715	0.27
430.171	0.27
430.628	0.27
431.084	0.27
431.54	0.27
431.997	0.27
432.453	0.27
432.909	0.26
433.365	0.26
433.821	0.26
434.277	0.26
434.734	0.26
435.19	0.26
435.646	0.26
436.102	0.26
436.558	0.26
437.014	0.26
437.47	0.26
437.925	0.26
438.381	0.26
438.837	0.26
439.293	0.26
439.749	0.26
440.205	0.26
440.66	0.26
441.116	0.26
441.572	0.26
442.027	0.26
442.483	0.26
442.939	0.26
443.394	0.26
443.85	0.26
444.305	0.26
444.761	0.26
445.216	0.26
445.672	0.26
446.127	0.26
446.582	0.26
447.038	0.26
447.493	0.26
447.948	0.26
448.403	0.26
448.859	0.26
449.314	0.26
449.769	0.26
450.224	0.26
450.679	0.26
451.134	0.26
451.589	0.26
452.044	0.26
452.499	0.26
452.954	0.26
453.409	0.26
453.864	0.26
454.319	0.26
454.774	0.26
455.229	0.26
455.684	0.26
456.138	0.25
456.593	0.25
457.048	0.25
457.503	0.25
457.957	0.25
458.412	0.25
458.866	0.25
459.321	0.25
459.776	0.25
460.23	0.25
460.685	0.25
461.139	0.25
461.593	0.25
462.048	0.25
462.502	0.25
462.957	0.25
463.411	0.25
463.865	0.25
464.319	0.25
464.774	0.25
465.228	0.25
465.682	0.25
466.136	0.25
466.59	0.25
467.044	0.25
467.499	0.25
467.953	0.25
468.407	0.25
468.861	0.25
469.315	0.25
469.768	0.25
470.222	0.24
470.676	0.24
471.13	0.24
471.584	0.24
472.038	0.24
472.491	0.24
472.945	0.24
473.399	0.25
473.852	0.25
474.306	0.25
474.76	0.25
475.213	0.25
475.667	0.25
476.12	0.25
476.574	0.25
477.027	0.25
477.481	0.25
477.934	0.25
478.388	0.25
478.841	0.25
479.294	0.25
479.748	0.25
480.201	0.25
480.654	0.25
481.107	0.25
481.561	0.25
482.014	0.25
482.467	0.25
482.92	0.25
483.373	0.25
483.826	0.25
484.279	0.25
484.732	0.26
485.185	0.26
485.638	0.26
486.091	0.26
486.544	0.26
486.997	0.26
487.449	0.26
487.902	0.26
488.355	0.26
488.808	0.26
489.26	0.25
489.713	0.25
490.166	0.25
490.618	0.25
491.071	0.25
491.523	0.25
491.976	0.25
492.429	0.25
492.881	0.25
493.333	0.25
493.786	0.26
494.238	0.26
494.691	0.26
495.143	0.26
495.595	0.26
496.048	0.26
496.5	0.26
496.952	0.26
497.404	0.26
497.856	0.26
498.309	0.26
498.761	0.26
499.213	0.26
499.665	0.26
500.117	0.26
500.569	0.27
501.021	0.27
501.473	0.27
501.925	0.27
502.377	0.27
502.828	0.27
503.28	0.27
503.732	0.27
504.184	0.27
504.636	0.27
505.087	0.27
505.539	0.27
505.991	0.27
506.442	0.27
506.894	0.27
507.345	0.27
507.797	0.28
508.249	0.28
508.7	0.28
509.151	0.28
509.603	0.28
510.054	0.28
510.506	0.28
510.957	0.28
511.408	0.28
511.86	0.28
512.311	0.28
512.762	0.28
513.213	0.28
513.665	0.28
514.116	0.28
514.567	0.28
515.018	0.28
515.469	0.28
515.92	0.28
516.371	0.28
516.822	0.28
517.273	0.28
517.724	0.28
518.175	0.28
518.626	0.28
519.076	0.28
519.527	0.28
519.978	0.28
520.429	0.28
520.88	0.28
521.33	0.28
521.781	0.27
522.232	0.27
522.682	0.27
523.133	0.28
523.583	0.28
524.034	0.28
524.484	0.28
524.935	0.29
525.385	0.29
525.836	0.29
526.286	0.3
526.736	0.3
527.187	0.3
527.637	0.3
528.087	0.31
528.538	0.31
528.988	0.31
529.438	0.31
529.888	0.31
530.338	0.31
530.788	0.31
531.238	0.31
531.688	0.31
532.139	0.32
532.589	0.32
533.038	0.32
533.488	0.32
533.938	0.32
534.388	0.32
534.838	0.32
535.288	0.32
535.738	0.32
536.187	0.32
536.637	0.33
537.087	0.33
537.537	0.33
537.986	0.33
538.436	0.33
538.885	0.33
539.335	0.33
539.785	0.33
540.234	0.33
540.684	0.33
541.133	0.33
541.582	0.33
542.032	0.33
542.481	0.33
542.931	0.34
543.38	0.34
543.829	0.34
544.278	0.34
544.728	0.34
545.177	0.34
545.626	0.34
546.075	0.34
546.524	0.35
546.973	0.35
547.422	0.35
547.871	0.35
548.32	0.35
548.769	0.35
549.218	0.35
549.667	0.35
550.116	0.35
550.565	0.35
551.014	0.35
551.463	0.35
551.911	0.35
552.36	0.35
552.809	0.35
553.258	0.35
553.706	0.36
554.155	0.36
554.603	0.36
555.052	0.36
555.501	0.36
555.949	0.35
556.398	0.35
556.846	0.35
557.294	0.35
557.743	0.35
558.191	0.35
558.64	0.35
559.088	0.36
559.536	0.36
559.985	0.36
560.433	0.36
560.881	0.36
561.329	0.36
561.777	0.37
562.225	0.37
562.674	0.37
563.122	0.37
563.57	0.37
564.018	0.37
564.466	0.37
564.914	0.37
565.362	0.37
565.809	0.37
566.257	0.37
566.705	0.37
567.153	0.37
567.601	0.37
568.048	0.38
568.496	0.38
568.944	0.38
569.392	0.38
569.839	0.39
570.287	0.39
570.734	0.39
571.182	0.39
571.63	0.39
572.077	0.4
572.525	0.4
572.972	0.4
573.419	0.4
573.867	0.4
574.314	0.4
574.761	0.4
575.209	0.4
575.656	0.4
576.103	0.41
576.551	0.41
576.998	0.41
577.445	0.41
577.892	0.41
578.339	0.41
578.786	0.41
579.233	0.41
579.68	0.41
580.127	0.41
580.574	0.41
581.021	0.41
581.468	0.41
581.915	0.41
582.362	0.41
582.809	0.41
583.255	0.41
583.702	0.41
584.149	0.4
584.596	0.4
585.042	0.4
585.489	0.4
585.936	0.4
586.382	0.4
586.829	0.4
587.275	0.4
587.722	0.4
588.168	0.4
588.615	0.4
589.061	0.39
589.508	0.39
589.954	0.39
590.4	0.39
590.847	0.39
591.293	0.39
591.739	0.39
592.185	0.39
592.632	0.39
593.078	0.39
593.524	0.39
593.97	0.39
594.416	0.39
594.862	0.39
595.308	0.39
595.754	0.39
596.2	0.39
596.646	0.39
597.092	0.39
597.538	0.39
597.984	0.39
598.43	0.39
598.876	0.39
599.321	0.39
599.767	0.39
600.213	0.39
600.659	0.39
601.104	0.38
601.55	0.38
601.995	0.38
602.441	0.38
602.887	0.38
603.332	0.38
603.778	0.38
604.223	0.38
604.668	0.38
605.114	0.38
605.559	0.38
606.005	0.38
606.45	0.38
606.895	0.38
607.341	0.38
607.786	0.37
608.231	0.37
608.676	0.37
609.121	0.37
609.566	0.37
610.012	0.36
610.457	0.36
610.902	0.36
611.347	0.36
611.792	0.36
612.237	0.36
612.682	0.36
613.127	0.36
613.571	0.36
614.016	0.36
614.461	0.36
614.906	0.36
615.351	0.35
615.795	0.35
616.24	0.35
616.685	0.35
617.129	0.34
617.574	0.34
618.019	0.34
618.463	0.34
618.908	0.34
619.352	0.34
619.797	0.34
620.241	0.34
620.686	0.33
621.13	0.33
621.574	0.33
622.019	0.33
622.463	0.33
622.907	0.33
623.352	0.33
623.796	0.33
624.24	0.33
624.684	0.33
625.128	0.32
625.572	0.32
626.016	0.32
626.461	0.32
626.905	0.32
627.349	0.32
627.793	0.32
628.236	0.32
628.68	0.32
629.124	0.32
629.568	0.32
630.012	0.31
630.456	0.31
630.9	0.31
631.343	0.31
631.787	0.31
632.231	0.31
632.674	0.31
633.118	0.3
633.562	0.3
634.005	0.3
634.449	0.3
634.892	0.3
635.336	0.3
635.779	0.3
636.223	0.3
636.666	0.3
637.109	0.3
637.553	0.3
637.996	0.3
638.439	0.3
638.883	0.3
639.326	0.3
639.769	0.3
640.212	0.3
640.655	0.3
641.099	0.3
641.542	0.3
641.985	0.3
642.428	0.3
642.871	0.3
643.314	0.3
643.757	0.3
644.2	0.3
644.643	0.3
645.085	0.3
645.528	0.3
645.971	0.3
646.414	0.3
646.857	0.3
647.299	0.3
647.742	0.3
648.185	0.3
648.627	0.3
649.07	0.3
649.513	0.3
649.955	0.3
650.398	0.3
650.84	0.3
651.283	0.3
651.725	0.3
652.168	0.3
652.61	0.3
653.052	0.31
653.495	0.3
653.937	0.23
654.379	0.19
654.821	0.19
655.264	0.19
655.706	0.2
656.148	0.2
656.59	0.2
657.032	0.2
657.474	0.2
657.916	0.2
658.358	0.19
658.8	0.24
659.242	0.31
659.684	0.31
660.126	0.31
660.568	0.31
661.01	0.31
661.452	0.31
661.894	0.32
662.335	0.32
662.777	0.32
663.219	0.32
663.661	0.32
664.102	0.32
664.544	0.32
664.985	0.32
665.427	0.32
665.869	0.32
666.31	0.32
666.752	0.32
667.193	0.32
667.634	0.33
668.076	0.33
668.517	0.33
668.959	0.33
669.4	0.33
669.841	0.33
670.282	0.33
670.724	0.34
671.165	0.34
671.606	0.34
672.047	0.34
672.488	0.34
672.929	0.34
673.37	0.34
673.811	0.34
674.252	0.34
674.693	0.34
675.134	0.34
675.575	0.35
676.016	0.35
676.457	0.35
676.898	0.35
677.339	0.35
677.78	0.35
678.22	0.35
678.661	0.35
679.102	0.35
679.542	0.35
679.983	0.35
680.424	0.35
680.864	0.35
681.305	0.35
681.745	0.35
682.186	0.35
682.626	0.36
683.067	0.36
683.507	0.36
683.948	0.36
684.388	0.36
684.828	0.36
685.269	0.36
685.709	0.36
686.149	0.36
686.589	0.37
687.029	0.37
687.47	0.37
687.91	0.37
688.35	0.37
688.79	0.37
689.23	0.37
689.67	0.37
690.11	0.37
690.55	0.37
690.99	0.38
691.43	0.38
691.87	0.38
692.31	0.38
692.749	0.38
693.189	0.38
693.629	0.38
694.069	0.38
694.508	0.38
694.948	0.38
695.388	0.39
695.827	0.39
696.267	0.39
696.706	0.39
697.146	0.39
697.586	0.39
698.025	0.39
698.464	0.39
698.904	0.39
699.343	0.39
699.783	0.39
700.222	0.39
700.661	0.39
701.101	0.39
701.54	0.39
701.979	0.39
702.418	0.39
702.857	0.39
703.297	0.39
703.736	0.39
704.175	0.4
704.614	0.4
705.053	0.4
705.492	0.4
705.931	0.4
706.37	0.4
706.809	0.4
707.248	0.4
707.687	0.4
708.125	0.4
708.564	0.4
709.003	0.4
709.442	0.4
709.88	0.4
710.319	0.4
710.758	0.4
711.196	0.4
711.635	0.41
712.074	0.41
712.512	0.41
712.951	0.41
713.389	0.41
713.828	0.41
714.266	0.41
714.705	0.41
715.143	0.41
715.581	0.4
716.02	0.41
716.458	0.4
716.896	0.4
717.334	0.4
717.773	0.4
718.211	0.4
718.649	0.41
719.087	0.41
719.525	0.41
719.963	0.41
720.401	0.41
720.839	0.41
721.277	0.41
721.715	0.41
722.153	0.41
722.591	0.41
723.029	0.41
723.467	0.41
723.905	0.4
724.342	0.4
724.78	0.4
725.218	0.4
725.656	0.4
726.093	0.4
726.531	0.4
726.969	0.41
727.406	0.41
727.844	0.41
728.281	0.41
728.719	0.41
729.156	0.41
729.594	0.41
730.031	0.41
730.469	0.41
730.906	0.41
731.343	0.41
731.781	0.41
732.218	0.41
732.655	0.41
733.092	0.41
733.53	0.41
733.967	0.41
734.404	0.41
734.841	0.41
735.278	0.41
735.715	0.41
736.152	0.41
736.589	0.41
737.026	0.41
737.463	0.41
737.9	0.41
738.337	0.41
738.774	0.41
739.211	0.4
739.647	0.4
740.084	0.4
740.521	0.4
740.958	0.4
741.394	0.4
741.831	0.4
742.268	0.4
742.704	0.4
743.141	0.4
743.577	0.39
744.014	0.39
744.45	0.39
744.887	0.39
745.323	0.39
745.76	0.39
746.196	0.39
746.632	0.38
747.069	0.38
747.505	0.38
747.941	0.38
748.378	0.38
748.814	0.38
749.25	0.38
749.686	0.38
750.122	0.38
750.558	0.39
750.994	0.39
751.43	0.39
751.866	0.39
752.302	0.39
752.738	0.39
753.174	0.39
753.61	0.39
754.046	0.39
754.482	0.39
754.918	0.39
755.354	0.39
755.789	0.39
756.225	0.39
756.661	0.39
757.096	0.39
757.532	0.39
757.968	0.39
758.403	0.39
758.839	0.39
759.274	0.39
759.71	0.39
760.145	0.38
760.581	0.38
761.016	0.38
761.452	0.38
761.887	0.38
762.322	0.37
762.758	0.37
763.193	0.37
763.628	0.37
764.063	0.36
764.499	0.36
764.934	0.36
765.369	0.36
765.804	0.35
766.239	0.35
766.674	0.35
767.109	0.35
767.544	0.34
767.979	0.34
768.414	0.34
768.849	0.33
769.284	0.33
769.719	0.33
770.154	0.32
770.588	0.32
771.023	0.32
771.458	0.31
771.893	0.31
772.327	0.3
772.762	0.3
773.197	0.3
773.631	0.29
774.066	0.29
774.5	0.28
774.935	0.28
775.369	0.27
775.804	0.27
776.238	0.26
776.673	0.25
777.107	0.25
777.541	0.24
777.976	0.24
778.41	0.23
778.844	0.22
779.279	0.22
779.713	0.21
780.147	0.2
780.581	0.2
781.015	0.19
781.449	0.18
781.883	0.16
782.317	0.15
782.751	0.14
783.185	0.13
783.619	0.11
784.053	0.09
784.487	0.08
784.921	0.06
785.355	0.05
785.789	0.03
786.223	0.02
786.656	0.01
787.09	-0
787.524	-0.01
787.957	-0.02
788.391	-0.03
788.825	-0.04
789.258	-0.05
789.692	-0.05
790.125	-0.05
790.559	-0.06
790.992	-0.06
791.426	-0.06
791.859	-0.06
792.293	-0.05
792.726	-0.04
793.159	-0.04
793.593	-0.04
794.026	-0.04
794.459	-0.04
794.892	-0.05
795.326	-0.05
795.759	-0.05
796.192	-0.05
796.625	-0.06
797.058	-0.07
797.491	-0.07
797.924	-0.08
798.357	-0.08
798.79	-0.08
799.223	-0.08
799.656	-0.08
800.089	-0.08
800.522	-0.09
800.955	-0.09
801.387	-0.09
801.82	-0.09
802.253	-0.09
802.686	-0.09
803.118	-0.09
803.551	-0.09
803.984	-0.08
804.416	-0.08
804.849	-0.07
805.281	-0.07
805.714	-0.07
806.146	-0.07
806.579	-0.07
807.011	-0.07
807.444	-0.07
807.876	-0.07
808.308	-0.07
808.741	-0.07
809.173	-0.08
809.605	-0.08
810.037	-0.08
810.47	-0.08
810.902	-0.09
811.334	-0.09
811.766	-0.08
812.198	-0.08
812.63	-0.08
813.062	-0.08
813.494	-0.08
813.926	-0.08
814.358	-0.08
814.79	-0.08
815.222	-0.07
815.654	-0.07
816.086	-0.07
816.518	-0.08
816.949	-0.08
817.381	-0.07
817.813	-0.06
818.245	-0.05
818.676	-0.04
819.108	-0.03
819.54	-0.01
819.971	-0
820.403	0.01
820.834	0.03
821.266	0.05
821.697	0.07
822.129	0.09
822.56	0.1
822.991	0.12
823.423	0.13
823.854	0.14
824.286	0.16
824.717	0.17
825.148	0.18
825.579	0.2
826.01	0.21
826.442	0.21
826.873	0.22
827.304	0.23
827.735	0.24
828.166	0.25
828.597	0.25
829.028	0.26
829.459	0.26
829.89	0.27
830.321	0.27
830.752	0.28
831.183	0.28
831.613	0.28
832.044	0.29
832.475	0.29
832.906	0.3
833.336	0.3
833.767	0.3
834.198	0.3
834.628	0.31
835.059	0.31
835.49	0.31
835.92	0.31
836.351	0.32
836.781	0.32
837.212	0.32
837.642	0.32
838.072	0.32
838.503	0.32
838.933	0.32
839.364	0.32
839.794	0.33
840.224	0.33
840.654	0.33
841.085	0.33
841.515	0.33
841.945	0.33
842.375	0.33
842.805	0.33
843.235	0.33
843.665	0.33
844.095	0.33
844.525	0.33
844.955	0.33
845.385	0.33
845.815	0.33
846.245	0.33
846.675	0.33
847.105	0.33
847.534	0.34
847.964	0.34
848.394	0.34
848.824	0.34
849.253	0.34
849.683	0.34
850.112	0.34
850.542	0.34
850.972	0.34
851.401	0.34
851.831	0.34
852.26	0.34
852.69	0.34
853.119	0.34
853.548	0.34
853.978	0.34
854.407	0.35
854.836	0.34
855.266	0.34
855.695	0.34
856.124	0.34
856.553	0.34
856.983	0.34
857.412	0.34
857.841	0.34
858.27	0.34
858.699	0.33
859.128	0.33
859.557	0.33
859.986	0.33
860.415	0.33
860.844	0.33
861.273	0.33
861.702	0.33
862.13	0.33
862.559	0.33
862.988	0.33
863.417	0.33
863.845	0.33
864.274	0.33
864.703	0.33
865.131	0.33
865.56	0.33
865.989	0.33
866.417	0.33
866.846	0.33
867.274	0.33
867.703	0.33
868.131	0.33
868.559	0.33
868.988	0.33
869.416	0.33
869.844	0.33
870.273	0.33
870.701	0.33
871.129	0.33
871.557	0.33
871.986	0.33
872.414	0.33
872.842	0.32
873.27	0.32
873.698	0.32
874.126	0.32
874.554	0.32
874.982	0.32
875.41	0.32
875.838	0.32
876.266	0.32
876.694	0.32
877.122	0.32
877.549	0.32
877.977	0.32
878.405	0.32
878.833	0.32
879.26	0.32
879.688	0.32
880.116	0.32
880.543	0.32
880.971	0.32
881.399	0.32
881.826	0.32
882.254	0.32
882.681	0.32
883.109	0.32
883.536	0.32
883.963	0.32
884.391	0.32
884.818	0.32
885.245	0.32
885.673	0.32
886.1	0.32
886.527	0.32
886.954	0.32
887.381	0.32
887.809	0.32
888.236	0.32
888.663	0.32
889.09	0.32
889.517	0.32
889.944	0.32
890.371	0.32
890.798	0.32
891.225	0.32
891.652	0.32
892.078	0.32
892.505	0.32
892.932	0.32
893.359	0.32
893.786	0.32
894.212	0.32
894.639	0.32
895.066	0.32
895.492	0.32
895.919	0.31
896.346	0.31
896.772	0.31
897.199	0.31
897.625	0.31
898.052	0.31
898.478	0.31
898.904	0.31
899.331	0.31
899.757	0.31
900.183	0.31
900.61	0.31
901.036	0.31
901.462	0.31
901.888	0.31
902.315	0.31
902.741	0.31
903.167	0.31
903.593	0.31
904.019	0.31
904.445	0.31
904.871	0.3
905.297	0.3
905.723	0.3
906.149	0.3
906.575	0.3
907.001	0.3
907.427	0.3
907.852	0.3
908.278	0.3
908.704	0.3
909.13	0.3
909.555	0.3
909.981	0.3
910.407	0.3
910.832	0.3
911.258	0.3
911.684	0.3
912.109	0.3
912.535	0.3
912.96	0.3
913.386	0.3
913.811	0.3
914.236	0.3
914.662	0.3
915.087	0.3
915.512	0.3
915.938	0.3
916.363	0.3
916.788	0.3
917.213	0.3
917.639	0.29
918.064	0.29
918.489	0.29
918.914	0.29
919.339	0.29
919.764	0.29
920.189	0.29
920.614	0.29
921.039	0.29
921.464	0.29
921.889	0.29
922.314	0.29
922.738	0.29
923.163	0.29
923.588	0.29
924.013	0.29
924.437	0.29
924.862	0.29
925.287	0.29
925.711	0.29
926.136	0.29
926.561	0.29
926.985	0.29
927.41	0.29
927.834	0.29
928.259	0.29
928.683	0.29
929.108	0.29
929.532	0.29
929.956	0.29
930.381	0.29
930.805	0.28
931.229	0.28
931.653	0.28
932.078	0.28
932.502	0.28
932.926	0.28
933.35	0.27
933.774	0.27
934.198	0.27
934.622	0.27
935.046	0.27
935.47	0.27
935.894	0.27
936.318	0.27
936.742	0.27
937.166	0.27
937.59	0.27
938.014	0.27
938.437	0.27
938.861	0.27
939.285	0.27
939.709	0.27
940.132	0.27
940.556	0.27
940.98	0.27
941.403	0.27
941.827	0.27
942.25	0.27
942.674	0.27
943.097	0.27
943.521	0.27
943.944	0.27
944.368	0.27
944.791	0.27
945.214	0.27
945.638	0.27
946.061	0.27
946.484	0.27
946.907	0.27
947.331	0.27
947.754	0.27
948.177	0.27
948.6	0.26
949.023	0.26
949.446	0.26
949.869	0.26
950.292	0.26
950.715	0.26
951.138	0.26
951.561	0.26
951.984	0.26
952.407	0.25
952.83	0.25
953.252	0.25
953.675	0.25
954.098	0.25
954.521	0.25
954.943	0.25
955.366	0.25
955.789	0.25
956.211	0.25
956.634	0.25
957.056	0.25
957.479	0.25
957.902	0.25
958.324	0.25
958.746	0.25
959.169	0.25
959.591	0.25
960.014	0.25
960.436	0.25
960.858	0.25
961.281	0.25
961.703	0.25
962.125	0.25
962.547	0.25
962.969	0.25
963.391	0.25
963.814	0.25
964.236	0.25
964.658	0.25
965.08	0.25
965.502	0.25
965.924	0.25
966.346	0.25
966.768	0.25
967.189	0.25
967.611	0.25
968.033	0.25
968.455	0.25
968.877	0.25
969.298	0.25
969.72	0.24
970.142	0.24
970.563	0.24
970.985	0.24
971.407	0.24
971.828	0.24
972.25	0.24
972.671	0.24
973.093	0.24
973.514	0.24
973.936	0.24
974.357	0.24
974.778	0.24
975.2	0.24
975.621	0.24
976.042	0.24
976.464	0.24
976.885	0.24
977.306	0.24
977.727	0.24
978.148	0.24
978.57	0.24
978.991	0.24
979.412	0.24
979.833	0.24
980.254	0.24
980.675	0.24
981.096	0.24
981.517	0.24
981.937	0.24
982.358	0.24
982.779	0.23
983.2	0.23
983.621	0.23
984.042	0.23
984.462	0.23
984.883	0.23
985.304	0.23
985.724	0.23
986.145	0.23
986.565	0.23
986.986	0.23
987.407	0.23
987.827	0.23
988.248	0.23
988.668	0.23
989.088	0.23
989.509	0.23
989.929	0.23
990.35	0.23
990.77	0.23
991.19	0.23
991.61	0.23
992.031	0.23
992.451	0.23
992.871	0.23
993.291	0.23
993.711	0.22
994.131	0.22
994.551	0.22
994.971	0.22
995.391	0.22
995.811	0.22
996.231	0.22
996.651	0.22
997.071	0.22
997.491	0.22
997.911	0.22
998.331	0.22
998.75	0.22
999.17	0.22
999.59	0.22
1000.009	0.22
1000.429	0.22
1000.849	0.22
1001.268	0.22
1001.688	0.22
1002.107	0.22
1002.527	0.22
1002.946	0.22
1003.366	0.22
1003.785	0.22
1004.205	0.22
1004.624	0.22
1005.044	0.22
1005.463	0.22
1005.882	0.22
1006.301	0.22
1006.721	0.22
1007.14	0.22
1007.559	0.22
1007.978	0.22
1008.397	0.22
1008.816	0.22
1009.235	0.22
1009.655	0.22
1010.074	0.22
1010.492	0.22
1010.911	0.22
1011.33	0.22
1011.749	0.22
1012.168	0.22
1012.587	0.21
1013.006	0.21
1013.425	0.21
1013.843	0.21
1014.262	0.21
1014.681	0.21
1015.099	0.21
1015.518	0.21
1015.937	0.21
1016.355	0.21
1016.774	0.21
1017.192	0.21
1017.611	0.21
1018.029	0.21
1018.448	0.21
1018.866	0.21
1019.285	0.21
1019.703	0.21
1020.121	0.21
1020.54	0.21
1020.958	0.21
1021.376	0.21
1021.794	0.21
1022.213	0.21
1022.631	0.21
1023.049	0.21
1023.467	0.21
1023.885	0.21
1024.303	0.21
1024.721	0.21
1025.139	0.21
1025.557	0.21
1025.975	0.21
1026.393	0.21
1026.811	0.22
1027.229	0.22
1027.647	0.22
1028.065	0.22
1028.482	0.22
1028.9	0.22
1029.318	0.22
1029.735	0.22
1030.153	0.22
1030.571	0.22
1030.988	0.22
1031.406	0.22
1031.823	0.22
1032.241	0.22
1032.659	0.22
1033.076	0.22
1033.493	0.22
1033.911	0.22
1034.328	0.22
1034.746	0.22
1035.163	0.22
1035.58	0.22
1035.997	0.22
1036.415	0.21
1036.832	0.21
1037.249	0.21
1037.666	0.21
1038.083	0.21
1038.501	0.21
1038.918	0.21
1039.335	0.21
1039.752	0.21
1040.169	0.21
1040.586	0.21
1041.003	0.21
1041.419	0.21
1041.836	0.21
1042.253	0.21
1042.67	0.21
1043.087	0.21
1043.504	0.21
1043.92	0.21
1044.337	0.2
1044.754	0.2
1045.17	0.2
1045.587	0.2
1046.004	0.2
1046.42	0.2
1046.837	0.2
1047.253	0.2
1047.67	0.2
1048.086	0.2
1048.503	0.2
1048.919	0.2
1049.335	0.2
1049.752	0.2
1050.168	0.2
1050.584	0.2
1051.001	0.2
1051.417	0.2
1051.833	0.2
1052.249	0.2
1052.665	0.2
1053.081	0.2
1053.497	0.2
1053.914	0.2
1054.33	0.2
1054.746	0.2
1055.162	0.2
1055.578	0.2
1055.993	0.2
1056.409	0.2
1056.825	0.2
1057.241	0.2
1057.657	0.2
1058.073	0.2
1058.488	0.2
1058.904	0.2
1059.32	0.2
1059.736	0.2
1060.151	0.2
1060.567	0.2
1060.982	0.2
1061.398	0.2
1061.813	0.2
1062.229	0.2
1062.644	0.2
1063.06	0.2
1063.475	0.2
1063.891	0.2
1064.306	0.2
1064.721	0.2
1065.137	0.2
1065.552	0.2
1065.967	0.2
1066.382	0.2
1066.798	0.2
1067.213	0.2
1067.628	0.2
1068.043	0.2
1068.458	0.2
1068.873	0.2
1069.288	0.2
1069.703	0.2
1070.118	0.2
1070.533	0.2
1070.948	0.2
1071.363	0.2
1071.778	0.2
1072.193	0.2
1072.607	0.2
1073.022	0.2
1073.437	0.2
1073.852	0.2
1074.266	0.2
1074.681	0.2
1075.096	0.2
1075.51	0.2
1075.925	0.2
1076.339	0.2
1076.754	0.2
1077.168	0.2
1077.583	0.2
1077.997	0.2
1078.412	0.2
1078.826	0.21
1079.24	0.21
1079.655	0.21
1080.069	0.21
1080.483	0.21
1080.897	0.21
1081.312	0.21
1081.726	0.22
1082.14	0.22
1082.554	0.22
1082.968	0.22
1083.382	0.22
1083.796	0.22
1084.21	0.22
1084.624	0.23
1085.038	0.23
1085.452	0.23
1085.866	0.23
1086.28	0.23
1086.694	0.23
1087.108	0.24
1087.521	0.24
1087.935	0.24
1088.349	0.24
1088.763	0.24
1089.176	0.24
1089.59	0.25
1090.004	0.25
1090.417	0.25
1090.831	0.26
1091.244	0.26
1091.658	0.26
1092.071	0.27
1092.485	0.27
1092.898	0.28
1093.312	0.28
1093.725	0.29
1094.138	0.29
1094.552	0.3
1094.965	0.3
1095.378	0.31
1095.791	0.32
1096.205	0.32
1096.618	0.33
1097.031	0.34
1097.444	0.35
1097.857	0.36
1098.27	0.37
1098.683	0.38
1099.096	0.39
1099.509	0.41
1099.922	0.42
1100.335	0.43
1100.748	0.45
1101.161	0.47
1101.574	0.49
1101.986	0.52
1102.399	0.54
1102.812	0.58
1103.225	0.61
1103.637	0.66
1104.05	0.7
1104.463	0.76
1104.875	0.84
1105.288	0.92
1105.7	1.02
1106.113	1.18
1106.525	1.49
1106.938	-0
1107.35	-0
1107.763	-0
1108.175	-0
1108.588	-0
1109	-0
1109.412	-0
1109.824	-0
1110.237	-0
1110.649	-0
1111.061	-0
