Data from unagg-15c-2a-1h_Absorbance__33__00460.txt Node

Date: Mon May 06 09:33:50 CEST 2024
User: Laser008
Spectrometer: MAYP115816
Trigger mode: 0
Integration Time (sec): 2.000000E-1
Scans to average: 10
Electric dark correction enabled: true
Nonlinearity correction enabled: true
Boxcar width: 5
XAxis mode: Wavelengths
Number of Pixels in Spectrum: 2068
>>>>>Begin Spectral Data<<<<<
198.914	-1.49
199.384	-1.35
199.855	-1.21
200.325	-1.09
200.796	-1.01
201.266	-0.96
201.737	-0.9
202.207	-0.84
202.677	-0.8
203.147	-0.76
203.618	-0.73
204.088	-0.7
204.558	-0.68
205.028	-0.67
205.498	-0.67
205.968	-0.67
206.439	-0.67
206.909	-0.66
207.379	-0.66
207.849	-0.66
208.319	-0.66
208.789	-0.66
209.258	-0.66
209.728	-0.65
210.198	-0.65
210.668	-0.65
211.138	-0.65
211.608	-0.65
212.077	-0.65
212.547	-0.65
213.017	-0.65
213.486	-0.65
213.956	-0.65
214.426	-0.65
214.895	-0.65
215.365	-0.65
215.834	-0.64
216.304	-0.64
216.773	-0.64
217.243	-0.64
217.712	-0.64
218.181	-0.63
218.651	-0.63
219.12	-0.63
219.589	-0.62
220.058	-0.62
220.528	-0.62
220.997	-0.62
221.466	-0.62
221.935	-0.61
222.404	-0.61
222.873	-0.6
223.342	-0.6
223.812	-0.59
224.281	-0.58
224.749	-0.57
225.218	-0.56
225.687	-0.55
226.156	-0.54
226.625	-0.52
227.094	-0.51
227.563	-0.49
228.031	-0.47
228.5	-0.45
228.969	-0.42
229.438	-0.39
229.906	-0.36
230.375	-0.33
230.844	-0.29
231.312	-0.25
231.781	-0.2
232.249	-0.16
232.718	-0.11
233.186	-0.06
233.655	-0.01
234.123	0.04
234.591	0.09
235.06	0.14
235.528	0.19
235.996	0.23
236.465	0.28
236.933	0.33
237.401	0.37
237.869	0.41
238.337	0.45
238.805	0.49
239.274	0.53
239.742	0.56
240.21	0.6
240.678	0.63
241.146	0.66
241.614	0.68
242.081	0.71
242.549	0.73
243.017	0.76
243.485	0.78
243.953	0.79
244.421	0.81
244.888	0.83
245.356	0.84
245.824	0.86
246.291	0.87
246.759	0.89
247.227	0.9
247.694	0.91
248.162	0.92
248.629	0.93
249.097	0.94
249.564	0.95
250.032	0.96
250.499	0.97
250.967	0.98
251.434	0.98
251.901	0.99
252.369	1
252.836	1
253.303	1.01
253.77	1.01
254.237	1.02
254.705	1.02
255.172	1.03
255.639	1.03
256.106	1.04
256.573	1.04
257.04	1.04
257.507	1.05
257.974	1.05
258.441	1.05
258.908	1.05
259.375	1.05
259.841	1.05
260.308	1.06
260.775	1.06
261.242	1.06
261.709	1.06
262.175	1.06
262.642	1.06
263.109	1.06
263.575	1.06
264.042	1.06
264.508	1.06
264.975	1.06
265.441	1.06
265.908	1.06
266.374	1.06
266.841	1.05
267.307	1.05
267.773	1.05
268.24	1.05
268.706	1.05
269.172	1.04
269.639	1.04
270.105	1.04
270.571	1.04
271.037	1.03
271.503	1.03
271.969	1.03
272.435	1.03
272.902	1.02
273.368	1.02
273.834	1.02
274.3	1.01
274.765	1.01
275.231	1.01
275.697	1
276.163	1
276.629	1
277.095	0.99
277.56	0.99
278.026	0.98
278.492	0.98
278.958	0.97
279.423	0.97
279.889	0.96
280.354	0.96
280.82	0.96
281.286	0.95
281.751	0.95
282.217	0.95
282.682	0.94
283.147	0.94
283.613	0.94
284.078	0.93
284.544	0.93
285.009	0.93
285.474	0.92
285.939	0.92
286.405	0.91
286.87	0.91
287.335	0.91
287.8	0.9
288.265	0.9
288.73	0.89
289.195	0.89
289.66	0.89
290.125	0.88
290.59	0.88
291.055	0.88
291.52	0.87
291.985	0.87
292.45	0.87
292.915	0.86
293.38	0.86
293.844	0.86
294.309	0.85
294.774	0.85
295.239	0.85
295.703	0.85
296.168	0.84
296.632	0.84
297.097	0.84
297.562	0.83
298.026	0.83
298.491	0.83
298.955	0.83
299.419	0.82
299.884	0.82
300.348	0.82
300.813	0.82
301.277	0.81
301.741	0.81
302.205	0.81
302.67	0.81
303.134	0.81
303.598	0.8
304.062	0.8
304.526	0.8
304.99	0.8
305.454	0.79
305.919	0.79
306.383	0.79
306.847	0.79
307.31	0.79
307.774	0.78
308.238	0.78
308.702	0.78
309.166	0.78
309.63	0.77
310.094	0.77
310.557	0.77
311.021	0.77
311.485	0.77
311.948	0.76
312.412	0.76
312.876	0.76
313.339	0.76
313.803	0.76
314.266	0.76
314.73	0.75
315.193	0.75
315.657	0.75
316.12	0.75
316.584	0.75
317.047	0.74
317.51	0.74
317.973	0.74
318.437	0.74
318.9	0.74
319.363	0.73
319.826	0.73
320.29	0.73
320.753	0.73
321.216	0.73
321.679	0.73
322.142	0.72
322.605	0.72
323.068	0.72
323.531	0.72
323.994	0.72
324.457	0.71
324.92	0.71
325.382	0.71
325.845	0.71
326.308	0.71
326.771	0.71
327.233	0.7
327.696	0.7
328.159	0.7
328.622	0.7
329.084	0.7
329.547	0.7
330.009	0.69
330.472	0.69
330.934	0.69
331.397	0.69
331.859	0.69
332.322	0.69
332.784	0.69
333.246	0.68
333.709	0.68
334.171	0.68
334.633	0.68
335.096	0.68
335.558	0.68
336.02	0.68
336.482	0.67
336.944	0.67
337.406	0.67
337.868	0.67
338.331	0.67
338.793	0.67
339.255	0.67
339.717	0.67
340.178	0.66
340.64	0.66
341.102	0.66
341.564	0.66
342.026	0.66
342.488	0.66
342.949	0.66
343.411	0.66
343.873	0.66
344.335	0.65
344.796	0.65
345.258	0.65
345.719	0.65
346.181	0.65
346.643	0.65
347.104	0.65
347.566	0.65
348.027	0.65
348.488	0.65
348.95	0.65
349.411	0.65
349.873	0.64
350.334	0.64
350.795	0.64
351.256	0.64
351.718	0.64
352.179	0.64
352.64	0.64
353.101	0.64
353.562	0.64
354.023	0.64
354.484	0.64
354.945	0.63
355.406	0.63
355.867	0.63
356.328	0.63
356.789	0.63
357.25	0.63
357.711	0.63
358.172	0.63
358.633	0.63
359.093	0.63
359.554	0.63
360.015	0.63
360.476	0.63
360.936	0.63
361.397	0.63
361.858	0.63
362.318	0.63
362.779	0.63
363.239	0.63
363.7	0.63
364.16	0.63
364.621	0.63
365.081	0.63
365.541	0.63
366.002	0.63
366.462	0.63
366.922	0.63
367.383	0.63
367.843	0.62
368.303	0.62
368.763	0.62
369.223	0.62
369.684	0.62
370.144	0.62
370.604	0.62
371.064	0.62
371.524	0.62
371.984	0.62
372.444	0.62
372.904	0.62
373.363	0.62
373.823	0.62
374.283	0.62
374.743	0.62
375.203	0.62
375.663	0.61
376.122	0.61
376.582	0.61
377.042	0.61
377.501	0.61
377.961	0.61
378.42	0.61
378.88	0.61
379.34	0.61
379.799	0.61
380.259	0.61
380.718	0.61
381.177	0.61
381.637	0.61
382.096	0.61
382.555	0.61
383.015	0.61
383.474	0.61
383.933	0.61
384.393	0.61
384.852	0.6
385.311	0.6
385.77	0.6
386.229	0.6
386.688	0.6
387.147	0.6
387.606	0.6
388.065	0.6
388.524	0.6
388.983	0.6
389.442	0.6
389.901	0.6
390.36	0.6
390.819	0.6
391.277	0.6
391.736	0.6
392.195	0.6
392.654	0.6
393.112	0.6
393.571	0.6
394.03	0.6
394.488	0.6
394.947	0.59
395.405	0.59
395.864	0.59
396.322	0.59
396.781	0.59
397.239	0.59
397.698	0.59
398.156	0.59
398.614	0.59
399.073	0.59
399.531	0.59
399.989	0.59
400.447	0.59
400.905	0.59
401.364	0.59
401.822	0.59
402.28	0.59
402.738	0.58
403.196	0.58
403.654	0.58
404.112	0.58
404.57	0.58
405.028	0.58
405.486	0.58
405.944	0.58
406.402	0.58
406.859	0.58
407.317	0.58
407.775	0.58
408.233	0.58
408.691	0.58
409.148	0.58
409.606	0.58
410.064	0.58
410.521	0.58
410.979	0.57
411.436	0.57
411.894	0.57
412.351	0.57
412.809	0.57
413.266	0.57
413.724	0.57
414.181	0.57
414.638	0.57
415.096	0.57
415.553	0.57
416.01	0.57
416.467	0.57
416.925	0.57
417.382	0.57
417.839	0.57
418.296	0.57
418.753	0.57
419.21	0.57
419.667	0.57
420.124	0.57
420.581	0.57
421.038	0.57
421.495	0.57
421.952	0.57
422.409	0.57
422.866	0.57
423.322	0.57
423.779	0.57
424.236	0.57
424.693	0.56
425.149	0.56
425.606	0.56
426.063	0.56
426.519	0.56
426.976	0.56
427.433	0.56
427.889	0.56
428.346	0.56
428.802	0.56
429.258	0.56
429.715	0.56
430.171	0.56
430.628	0.56
431.084	0.56
431.54	0.56
431.997	0.56
432.453	0.56
432.909	0.56
433.365	0.56
433.821	0.56
434.277	0.56
434.734	0.56
435.19	0.56
435.646	0.56
436.102	0.56
436.558	0.56
437.014	0.56
437.47	0.56
437.925	0.56
438.381	0.56
438.837	0.55
439.293	0.55
439.749	0.55
440.205	0.55
440.66	0.55
441.116	0.55
441.572	0.55
442.027	0.55
442.483	0.55
442.939	0.55
443.394	0.55
443.85	0.55
444.305	0.55
444.761	0.55
445.216	0.55
445.672	0.56
446.127	0.55
446.582	0.55
447.038	0.55
447.493	0.55
447.948	0.55
448.403	0.55
448.859	0.55
449.314	0.55
449.769	0.55
450.224	0.55
450.679	0.55
451.134	0.55
451.589	0.55
452.044	0.55
452.499	0.55
452.954	0.55
453.409	0.55
453.864	0.55
454.319	0.55
454.774	0.55
455.229	0.55
455.684	0.55
456.138	0.55
456.593	0.55
457.048	0.55
457.503	0.55
457.957	0.55
458.412	0.56
458.866	0.56
459.321	0.56
459.776	0.56
460.23	0.56
460.685	0.56
461.139	0.56
461.593	0.56
462.048	0.56
462.502	0.56
462.957	0.56
463.411	0.56
463.865	0.56
464.319	0.56
464.774	0.56
465.228	0.56
465.682	0.56
466.136	0.56
466.59	0.56
467.044	0.56
467.499	0.56
467.953	0.56
468.407	0.56
468.861	0.56
469.315	0.56
469.768	0.56
470.222	0.56
470.676	0.56
471.13	0.56
471.584	0.56
472.038	0.56
472.491	0.56
472.945	0.57
473.399	0.57
473.852	0.57
474.306	0.57
474.76	0.57
475.213	0.58
475.667	0.58
476.12	0.58
476.574	0.58
477.027	0.58
477.481	0.58
477.934	0.58
478.388	0.59
478.841	0.59
479.294	0.59
479.748	0.59
480.201	0.59
480.654	0.59
481.107	0.6
481.561	0.6
482.014	0.6
482.467	0.6
482.92	0.6
483.373	0.61
483.826	0.61
484.279	0.62
484.732	0.62
485.185	0.62
485.638	0.62
486.091	0.63
486.544	0.63
486.997	0.63
487.449	0.63
487.902	0.64
488.355	0.64
488.808	0.64
489.26	0.64
489.713	0.64
490.166	0.64
490.618	0.64
491.071	0.64
491.523	0.65
491.976	0.65
492.429	0.65
492.881	0.66
493.333	0.66
493.786	0.66
494.238	0.67
494.691	0.67
495.143	0.68
495.595	0.68
496.048	0.68
496.5	0.69
496.952	0.69
497.404	0.69
497.856	0.7
498.309	0.7
498.761	0.7
499.213	0.71
499.665	0.71
500.117	0.71
500.569	0.72
501.021	0.72
501.473	0.73
501.925	0.73
502.377	0.73
502.828	0.74
503.28	0.74
503.732	0.74
504.184	0.75
504.636	0.75
505.087	0.75
505.539	0.76
505.991	0.76
506.442	0.76
506.894	0.76
507.345	0.77
507.797	0.77
508.249	0.77
508.7	0.77
509.151	0.78
509.603	0.78
510.054	0.78
510.506	0.78
510.957	0.79
511.408	0.79
511.86	0.79
512.311	0.79
512.762	0.79
513.213	0.8
513.665	0.8
514.116	0.8
514.567	0.8
515.018	0.8
515.469	0.8
515.92	0.8
516.371	0.8
516.822	0.8
517.273	0.8
517.724	0.8
518.175	0.8
518.626	0.8
519.076	0.8
519.527	0.8
519.978	0.8
520.429	0.8
520.88	0.8
521.33	0.79
521.781	0.79
522.232	0.79
522.682	0.79
523.133	0.79
523.583	0.79
524.034	0.79
524.484	0.79
524.935	0.8
525.385	0.8
525.836	0.8
526.286	0.81
526.736	0.81
527.187	0.81
527.637	0.81
528.087	0.81
528.538	0.81
528.988	0.81
529.438	0.81
529.888	0.81
530.338	0.81
530.788	0.81
531.238	0.81
531.688	0.81
532.139	0.81
532.589	0.81
533.038	0.8
533.488	0.8
533.938	0.8
534.388	0.8
534.838	0.8
535.288	0.79
535.738	0.79
536.187	0.79
536.637	0.79
537.087	0.78
537.537	0.78
537.986	0.78
538.436	0.77
538.885	0.77
539.335	0.77
539.785	0.76
540.234	0.76
540.684	0.76
541.133	0.75
541.582	0.75
542.032	0.74
542.481	0.74
542.931	0.74
543.38	0.73
543.829	0.73
544.278	0.72
544.728	0.72
545.177	0.72
545.626	0.71
546.075	0.71
546.524	0.7
546.973	0.7
547.422	0.69
547.871	0.69
548.32	0.68
548.769	0.68
549.218	0.67
549.667	0.67
550.116	0.66
550.565	0.65
551.014	0.65
551.463	0.64
551.911	0.64
552.36	0.63
552.809	0.63
553.258	0.62
553.706	0.62
554.155	0.61
554.603	0.61
555.052	0.6
555.501	0.59
555.949	0.59
556.398	0.58
556.846	0.58
557.294	0.57
557.743	0.56
558.191	0.56
558.64	0.55
559.088	0.55
559.536	0.54
559.985	0.54
560.433	0.53
560.881	0.53
561.329	0.52
561.777	0.52
562.225	0.51
562.674	0.51
563.122	0.5
563.57	0.5
564.018	0.49
564.466	0.49
564.914	0.48
565.362	0.48
565.809	0.47
566.257	0.47
566.705	0.46
567.153	0.46
567.601	0.45
568.048	0.45
568.496	0.44
568.944	0.44
569.392	0.44
569.839	0.43
570.287	0.43
570.734	0.43
571.182	0.42
571.63	0.42
572.077	0.42
572.525	0.41
572.972	0.41
573.419	0.41
573.867	0.4
574.314	0.4
574.761	0.4
575.209	0.39
575.656	0.39
576.103	0.39
576.551	0.38
576.998	0.38
577.445	0.38
577.892	0.37
578.339	0.37
578.786	0.37
579.233	0.37
579.68	0.36
580.127	0.36
580.574	0.35
581.021	0.35
581.468	0.35
581.915	0.35
582.362	0.34
582.809	0.34
583.255	0.34
583.702	0.33
584.149	0.33
584.596	0.33
585.042	0.32
585.489	0.32
585.936	0.32
586.382	0.32
586.829	0.32
587.275	0.31
587.722	0.31
588.168	0.31
588.615	0.3
589.061	0.3
589.508	0.3
589.954	0.3
590.4	0.3
590.847	0.29
591.293	0.29
591.739	0.29
592.185	0.29
592.632	0.29
593.078	0.29
593.524	0.28
593.97	0.28
594.416	0.28
594.862	0.28
595.308	0.28
595.754	0.28
596.2	0.28
596.646	0.28
597.092	0.28
597.538	0.28
597.984	0.28
598.43	0.27
598.876	0.27
599.321	0.27
599.767	0.27
600.213	0.27
600.659	0.27
601.104	0.27
601.55	0.27
601.995	0.27
602.441	0.26
602.887	0.26
603.332	0.26
603.778	0.26
604.223	0.26
604.668	0.27
605.114	0.27
605.559	0.27
606.005	0.27
606.45	0.27
606.895	0.27
607.341	0.26
607.786	0.26
608.231	0.26
608.676	0.26
609.121	0.26
609.566	0.26
610.012	0.26
610.457	0.26
610.902	0.26
611.347	0.26
611.792	0.26
612.237	0.26
612.682	0.27
613.127	0.27
613.571	0.27
614.016	0.27
614.461	0.27
614.906	0.27
615.351	0.27
615.795	0.27
616.24	0.27
616.685	0.27
617.129	0.27
617.574	0.27
618.019	0.27
618.463	0.27
618.908	0.27
619.352	0.27
619.797	0.27
620.241	0.27
620.686	0.27
621.13	0.28
621.574	0.28
622.019	0.28
622.463	0.28
622.907	0.28
623.352	0.28
623.796	0.28
624.24	0.28
624.684	0.29
625.128	0.29
625.572	0.29
626.016	0.29
626.461	0.29
626.905	0.3
627.349	0.3
627.793	0.3
628.236	0.3
628.68	0.31
629.124	0.31
629.568	0.31
630.012	0.31
630.456	0.31
630.9	0.32
631.343	0.32
631.787	0.32
632.231	0.32
632.674	0.33
633.118	0.33
633.562	0.33
634.005	0.33
634.449	0.34
634.892	0.34
635.336	0.34
635.779	0.35
636.223	0.35
636.666	0.35
637.109	0.36
637.553	0.36
637.996	0.37
638.439	0.37
638.883	0.37
639.326	0.38
639.769	0.38
640.212	0.39
640.655	0.39
641.099	0.4
641.542	0.4
641.985	0.41
642.428	0.41
642.871	0.41
643.314	0.42
643.757	0.42
644.2	0.43
644.643	0.43
645.085	0.44
645.528	0.44
645.971	0.45
646.414	0.46
646.857	0.46
647.299	0.47
647.742	0.47
648.185	0.48
648.627	0.49
649.07	0.49
649.513	0.5
649.955	0.5
650.398	0.51
650.84	0.52
651.283	0.52
651.725	0.53
652.168	0.54
652.61	0.54
653.052	0.55
653.495	0.55
653.937	0.48
654.379	0.44
654.821	0.45
655.264	0.46
655.706	0.46
656.148	0.47
656.59	0.47
657.032	0.48
657.474	0.48
657.916	0.48
658.358	0.49
658.8	0.56
659.242	0.65
659.684	0.65
660.126	0.66
660.568	0.67
661.01	0.67
661.452	0.68
661.894	0.69
662.335	0.69
662.777	0.7
663.219	0.71
663.661	0.72
664.102	0.72
664.544	0.73
664.985	0.74
665.427	0.74
665.869	0.75
666.31	0.76
666.752	0.76
667.193	0.77
667.634	0.78
668.076	0.78
668.517	0.79
668.959	0.8
669.4	0.8
669.841	0.81
670.282	0.82
670.724	0.83
671.165	0.83
671.606	0.84
672.047	0.84
672.488	0.85
672.929	0.85
673.37	0.86
673.811	0.86
674.252	0.86
674.693	0.87
675.134	0.87
675.575	0.87
676.016	0.88
676.457	0.88
676.898	0.88
677.339	0.89
677.78	0.89
678.22	0.89
678.661	0.9
679.102	0.9
679.542	0.9
679.983	0.91
680.424	0.91
680.864	0.91
681.305	0.91
681.745	0.91
682.186	0.91
682.626	0.92
683.067	0.92
683.507	0.92
683.948	0.92
684.388	0.92
684.828	0.93
685.269	0.93
685.709	0.93
686.149	0.93
686.589	0.93
687.029	0.93
687.47	0.93
687.91	0.93
688.35	0.93
688.79	0.93
689.23	0.93
689.67	0.93
690.11	0.93
690.55	0.93
690.99	0.93
691.43	0.93
691.87	0.92
692.31	0.92
692.749	0.92
693.189	0.92
693.629	0.92
694.069	0.92
694.508	0.91
694.948	0.91
695.388	0.91
695.827	0.91
696.267	0.91
696.706	0.9
697.146	0.9
697.586	0.9
698.025	0.89
698.464	0.89
698.904	0.88
699.343	0.88
699.783	0.87
700.222	0.87
700.661	0.87
701.101	0.86
701.54	0.86
701.979	0.85
702.418	0.85
702.857	0.84
703.297	0.84
703.736	0.84
704.175	0.83
704.614	0.83
705.053	0.82
705.492	0.82
705.931	0.81
706.37	0.81
706.809	0.8
707.248	0.8
707.687	0.79
708.125	0.79
708.564	0.79
709.003	0.78
709.442	0.77
709.88	0.77
710.319	0.76
710.758	0.76
711.196	0.75
711.635	0.74
712.074	0.74
712.512	0.73
712.951	0.72
713.389	0.72
713.828	0.71
714.266	0.71
714.705	0.7
715.143	0.69
715.581	0.69
716.02	0.68
716.458	0.68
716.896	0.67
717.334	0.66
717.773	0.66
718.211	0.65
718.649	0.65
719.087	0.64
719.525	0.63
719.963	0.63
720.401	0.62
720.839	0.62
721.277	0.61
721.715	0.6
722.153	0.6
722.591	0.59
723.029	0.59
723.467	0.58
723.905	0.57
724.342	0.57
724.78	0.56
725.218	0.55
725.656	0.55
726.093	0.54
726.531	0.54
726.969	0.53
727.406	0.53
727.844	0.52
728.281	0.51
728.719	0.51
729.156	0.5
729.594	0.5
730.031	0.49
730.469	0.49
730.906	0.48
731.343	0.48
731.781	0.47
732.218	0.47
732.655	0.47
733.092	0.46
733.53	0.46
733.967	0.45
734.404	0.45
734.841	0.44
735.278	0.44
735.715	0.43
736.152	0.43
736.589	0.43
737.026	0.42
737.463	0.42
737.9	0.41
738.337	0.4
738.774	0.4
739.211	0.4
739.647	0.39
740.084	0.39
740.521	0.38
740.958	0.38
741.394	0.37
741.831	0.37
742.268	0.36
742.704	0.36
743.141	0.35
743.577	0.35
744.014	0.34
744.45	0.34
744.887	0.33
745.323	0.33
745.76	0.32
746.196	0.32
746.632	0.31
747.069	0.31
747.505	0.31
747.941	0.31
748.378	0.3
748.814	0.3
749.25	0.3
749.686	0.29
750.122	0.29
750.558	0.29
750.994	0.29
751.43	0.28
751.866	0.28
752.302	0.28
752.738	0.27
753.174	0.27
753.61	0.27
754.046	0.27
754.482	0.26
754.918	0.26
755.354	0.26
755.789	0.26
756.225	0.25
756.661	0.25
757.096	0.25
757.532	0.25
757.968	0.24
758.403	0.24
758.839	0.24
759.274	0.23
759.71	0.23
760.145	0.23
760.581	0.22
761.016	0.22
761.452	0.22
761.887	0.22
762.322	0.21
762.758	0.21
763.193	0.21
763.628	0.2
764.063	0.2
764.499	0.2
764.934	0.19
765.369	0.19
765.804	0.19
766.239	0.19
766.674	0.18
767.109	0.18
767.544	0.18
767.979	0.17
768.414	0.17
768.849	0.17
769.284	0.17
769.719	0.16
770.154	0.16
770.588	0.16
771.023	0.15
771.458	0.15
771.893	0.15
772.327	0.14
772.762	0.14
773.197	0.14
773.631	0.14
774.066	0.13
774.5	0.13
774.935	0.13
775.369	0.13
775.804	0.12
776.238	0.12
776.673	0.12
777.107	0.11
777.541	0.11
777.976	0.11
778.41	0.1
778.844	0.1
779.279	0.1
779.713	0.09
780.147	0.09
780.581	0.08
781.015	0.08
781.449	0.07
781.883	0.07
782.317	0.06
782.751	0.06
783.185	0.05
783.619	0.04
784.053	0.04
784.487	0.03
784.921	0.02
785.355	0.01
785.789	0.01
786.223	0
786.656	-0
787.09	-0.01
787.524	-0.02
787.957	-0.02
788.391	-0.03
788.825	-0.04
789.258	-0.04
789.692	-0.05
790.125	-0.05
790.559	-0.06
790.992	-0.06
791.426	-0.06
791.859	-0.06
792.293	-0.05
792.726	-0.05
793.159	-0.04
793.593	-0.04
794.026	-0.04
794.459	-0.05
794.892	-0.05
795.326	-0.05
795.759	-0.05
796.192	-0.05
796.625	-0.06
797.058	-0.07
797.491	-0.07
797.924	-0.08
798.357	-0.08
798.79	-0.08
799.223	-0.08
799.656	-0.08
800.089	-0.09
800.522	-0.09
800.955	-0.09
801.387	-0.09
801.82	-0.09
802.253	-0.09
802.686	-0.09
803.118	-0.09
803.551	-0.09
803.984	-0.09
804.416	-0.08
804.849	-0.08
805.281	-0.08
805.714	-0.07
806.146	-0.07
806.579	-0.07
807.011	-0.07
807.444	-0.07
807.876	-0.07
808.308	-0.07
808.741	-0.07
809.173	-0.08
809.605	-0.08
810.037	-0.08
810.47	-0.09
810.902	-0.09
811.334	-0.09
811.766	-0.08
812.198	-0.08
812.63	-0.08
813.062	-0.08
813.494	-0.08
813.926	-0.08
814.358	-0.08
814.79	-0.08
815.222	-0.08
815.654	-0.07
816.086	-0.07
816.518	-0.07
816.949	-0.07
817.381	-0.07
817.813	-0.06
818.245	-0.05
818.676	-0.05
819.108	-0.04
819.54	-0.03
819.971	-0.02
820.403	-0.02
820.834	-0.01
821.266	-0
821.697	0
822.129	0.01
822.56	0.02
822.991	0.02
823.423	0.02
823.854	0.03
824.286	0.03
824.717	0.03
825.148	0.04
825.579	0.04
826.01	0.04
826.442	0.04
826.873	0.04
827.304	0.04
827.735	0.05
828.166	0.05
828.597	0.05
829.028	0.05
829.459	0.05
829.89	0.05
830.321	0.05
830.752	0.05
831.183	0.06
831.613	0.06
832.044	0.06
832.475	0.06
832.906	0.06
833.336	0.06
833.767	0.06
834.198	0.06
834.628	0.06
835.059	0.06
835.49	0.06
835.92	0.07
836.351	0.07
836.781	0.07
837.212	0.07
837.642	0.07
838.072	0.07
838.503	0.07
838.933	0.07
839.364	0.07
839.794	0.07
840.224	0.07
840.654	0.07
841.085	0.07
841.515	0.07
841.945	0.07
842.375	0.07
842.805	0.07
843.235	0.07
843.665	0.07
844.095	0.06
844.525	0.06
844.955	0.06
845.385	0.06
845.815	0.06
846.245	0.06
846.675	0.06
847.105	0.06
847.534	0.06
847.964	0.06
848.394	0.06
848.824	0.06
849.253	0.06
849.683	0.06
850.112	0.06
850.542	0.06
850.972	0.06
851.401	0.06
851.831	0.06
852.26	0.06
852.69	0.06
853.119	0.06
853.548	0.06
853.978	0.06
854.407	0.06
854.836	0.06
855.266	0.06
855.695	0.06
856.124	0.06
856.553	0.06
856.983	0.06
857.412	0.06
857.841	0.05
858.27	0.05
858.699	0.05
859.128	0.05
859.557	0.05
859.986	0.05
860.415	0.05
860.844	0.05
861.273	0.05
861.702	0.05
862.13	0.05
862.559	0.05
862.988	0.05
863.417	0.05
863.845	0.05
864.274	0.05
864.703	0.05
865.131	0.05
865.56	0.05
865.989	0.05
866.417	0.05
866.846	0.05
867.274	0.05
867.703	0.05
868.131	0.05
868.559	0.05
868.988	0.05
869.416	0.05
869.844	0.05
870.273	0.05
870.701	0.05
871.129	0.05
871.557	0.05
871.986	0.05
872.414	0.04
872.842	0.04
873.27	0.04
873.698	0.04
874.126	0.04
874.554	0.04
874.982	0.04
875.41	0.04
875.838	0.04
876.266	0.04
876.694	0.04
877.122	0.04
877.549	0.04
877.977	0.04
878.405	0.04
878.833	0.04
879.26	0.04
879.688	0.04
880.116	0.04
880.543	0.04
880.971	0.04
881.399	0.04
881.826	0.04
882.254	0.04
882.681	0.04
883.109	0.04
883.536	0.05
883.963	0.05
884.391	0.05
884.818	0.05
885.245	0.05
885.673	0.05
886.1	0.05
886.527	0.05
886.954	0.05
887.381	0.05
887.809	0.05
888.236	0.05
888.663	0.05
889.09	0.05
889.517	0.05
889.944	0.05
890.371	0.05
890.798	0.05
891.225	0.05
891.652	0.05
892.078	0.05
892.505	0.05
892.932	0.05
893.359	0.05
893.786	0.05
894.212	0.05
894.639	0.05
895.066	0.05
895.492	0.05
895.919	0.04
896.346	0.04
896.772	0.04
897.199	0.04
897.625	0.04
898.052	0.04
898.478	0.04
898.904	0.04
899.331	0.04
899.757	0.04
900.183	0.04
900.61	0.04
901.036	0.05
901.462	0.05
901.888	0.05
902.315	0.05
902.741	0.05
903.167	0.05
903.593	0.05
904.019	0.05
904.445	0.05
904.871	0.05
905.297	0.05
905.723	0.05
906.149	0.05
906.575	0.05
907.001	0.05
907.427	0.05
907.852	0.05
908.278	0.05
908.704	0.05
909.13	0.05
909.555	0.04
909.981	0.04
910.407	0.04
910.832	0.04
911.258	0.04
911.684	0.04
912.109	0.04
912.535	0.04
912.96	0.04
913.386	0.04
913.811	0.05
914.236	0.05
914.662	0.05
915.087	0.05
915.512	0.05
915.938	0.05
916.363	0.04
916.788	0.04
917.213	0.04
917.639	0.04
918.064	0.04
918.489	0.04
918.914	0.04
919.339	0.04
919.764	0.05
920.189	0.05
920.614	0.05
921.039	0.05
921.464	0.05
921.889	0.05
922.314	0.05
922.738	0.05
923.163	0.05
923.588	0.05
924.013	0.05
924.437	0.05
924.862	0.05
925.287	0.05
925.711	0.05
926.136	0.05
926.561	0.05
926.985	0.05
927.41	0.05
927.834	0.05
928.259	0.05
928.683	0.05
929.108	0.05
929.532	0.05
929.956	0.05
930.381	0.05
930.805	0.04
931.229	0.04
931.653	0.04
932.078	0.04
932.502	0.04
932.926	0.04
933.35	0.04
933.774	0.04
934.198	0.03
934.622	0.03
935.046	0.03
935.47	0.03
935.894	0.03
936.318	0.03
936.742	0.03
937.166	0.03
937.59	0.04
938.014	0.04
938.437	0.04
938.861	0.04
939.285	0.04
939.709	0.04
940.132	0.04
940.556	0.04
940.98	0.04
941.403	0.04
941.827	0.04
942.25	0.04
942.674	0.04
943.097	0.04
943.521	0.04
943.944	0.04
944.368	0.04
944.791	0.04
945.214	0.04
945.638	0.04
946.061	0.04
946.484	0.04
946.907	0.04
947.331	0.04
947.754	0.03
948.177	0.03
948.6	0.03
949.023	0.03
949.446	0.03
949.869	0.03
950.292	0.03
950.715	0.03
951.138	0.03
951.561	0.03
951.984	0.03
952.407	0.03
952.83	0.03
953.252	0.03
953.675	0.03
954.098	0.03
954.521	0.03
954.943	0.03
955.366	0.03
955.789	0.03
956.211	0.03
956.634	0.03
957.056	0.03
957.479	0.03
957.902	0.03
958.324	0.03
958.746	0.03
959.169	0.03
959.591	0.03
960.014	0.03
960.436	0.03
960.858	0.03
961.281	0.03
961.703	0.03
962.125	0.03
962.547	0.04
962.969	0.04
963.391	0.04
963.814	0.04
964.236	0.04
964.658	0.04
965.08	0.04
965.502	0.04
965.924	0.04
966.346	0.04
966.768	0.04
967.189	0.04
967.611	0.04
968.033	0.04
968.455	0.04
968.877	0.04
969.298	0.04
969.72	0.04
970.142	0.04
970.563	0.04
970.985	0.04
971.407	0.04
971.828	0.04
972.25	0.04
972.671	0.04
973.093	0.04
973.514	0.04
973.936	0.04
974.357	0.04
974.778	0.04
975.2	0.04
975.621	0.04
976.042	0.04
976.464	0.04
976.885	0.04
977.306	0.04
977.727	0.04
978.148	0.04
978.57	0.04
978.991	0.04
979.412	0.04
979.833	0.04
980.254	0.03
980.675	0.03
981.096	0.03
981.517	0.03
981.937	0.03
982.358	0.03
982.779	0.03
983.2	0.03
983.621	0.03
984.042	0.03
984.462	0.03
984.883	0.03
985.304	0.03
985.724	0.03
986.145	0.03
986.565	0.03
986.986	0.03
987.407	0.03
987.827	0.03
988.248	0.03
988.668	0.03
989.088	0.03
989.509	0.03
989.929	0.03
990.35	0.03
990.77	0.03
991.19	0.03
991.61	0.03
992.031	0.03
992.451	0.03
992.871	0.03
993.291	0.03
993.711	0.03
994.131	0.03
994.551	0.02
994.971	0.02
995.391	0.02
995.811	0.02
996.231	0.02
996.651	0.02
997.071	0.02
997.491	0.02
997.911	0.02
998.331	0.02
998.75	0.02
999.17	0.02
999.59	0.02
1000.009	0.02
1000.429	0.03
1000.849	0.03
1001.268	0.03
1001.688	0.03
1002.107	0.03
1002.527	0.03
1002.946	0.03
1003.366	0.03
1003.785	0.03
1004.205	0.03
1004.624	0.03
1005.044	0.03
1005.463	0.03
1005.882	0.03
1006.301	0.03
1006.721	0.02
1007.14	0.02
1007.559	0.02
1007.978	0.02
1008.397	0.02
1008.816	0.02
1009.235	0.02
1009.655	0.02
1010.074	0.02
1010.492	0.02
1010.911	0.02
1011.33	0.02
1011.749	0.02
1012.168	0.02
1012.587	0.02
1013.006	0.02
1013.425	0.02
1013.843	0.02
1014.262	0.02
1014.681	0.02
1015.099	0.02
1015.518	0.02
1015.937	0.02
1016.355	0.02
1016.774	0.02
1017.192	0.02
1017.611	0.02
1018.029	0.02
1018.448	0.02
1018.866	0.02
1019.285	0.02
1019.703	0.02
1020.121	0.02
1020.54	0.02
1020.958	0.02
1021.376	0.02
1021.794	0.02
1022.213	0.02
1022.631	0.02
1023.049	0.02
1023.467	0.02
1023.885	0.02
1024.303	0.02
1024.721	0.02
1025.139	0.03
1025.557	0.03
1025.975	0.03
1026.393	0.03
1026.811	0.03
1027.229	0.03
1027.647	0.03
1028.065	0.03
1028.482	0.03
1028.9	0.03
1029.318	0.03
1029.735	0.03
1030.153	0.03
1030.571	0.03
1030.988	0.04
1031.406	0.04
1031.823	0.04
1032.241	0.04
1032.659	0.04
1033.076	0.04
1033.493	0.04
1033.911	0.03
1034.328	0.03
1034.746	0.03
1035.163	0.03
1035.58	0.03
1035.997	0.03
1036.415	0.03
1036.832	0.03
1037.249	0.03
1037.666	0.03
1038.083	0.03
1038.501	0.03
1038.918	0.03
1039.335	0.03
1039.752	0.03
1040.169	0.03
1040.586	0.03
1041.003	0.03
1041.419	0.03
1041.836	0.03
1042.253	0.03
1042.67	0.03
1043.087	0.03
1043.504	0.03
1043.92	0.03
1044.337	0.03
1044.754	0.02
1045.17	0.02
1045.587	0.02
1046.004	0.02
1046.42	0.02
1046.837	0.02
1047.253	0.02
1047.67	0.02
1048.086	0.02
1048.503	0.02
1048.919	0.02
1049.335	0.02
1049.752	0.02
1050.168	0.02
1050.584	0.02
1051.001	0.02
1051.417	0.02
1051.833	0.02
1052.249	0.02
1052.665	0.02
1053.081	0.02
1053.497	0.02
1053.914	0.02
1054.33	0.02
1054.746	0.02
1055.162	0.02
1055.578	0.02
1055.993	0.02
1056.409	0.02
1056.825	0.02
1057.241	0.02
1057.657	0.02
1058.073	0.02
1058.488	0.02
1058.904	0.02
1059.32	0.02
1059.736	0.02
1060.151	0.02
1060.567	0.02
1060.982	0.02
1061.398	0.02
1061.813	0.02
1062.229	0.02
1062.644	0.02
1063.06	0.02
1063.475	0.02
1063.891	0.02
1064.306	0.02
1064.721	0.02
1065.137	0.02
1065.552	0.02
1065.967	0.02
1066.382	0.02
1066.798	0.02
1067.213	0.02
1067.628	0.02
1068.043	0.02
1068.458	0.02
1068.873	0.02
1069.288	0.02
1069.703	0.02
1070.118	0.02
1070.533	0.02
1070.948	0.02
1071.363	0.02
1071.778	0.02
1072.193	0.02
1072.607	0.02
1073.022	0.02
1073.437	0.02
1073.852	0.02
1074.266	0.02
1074.681	0.02
1075.096	0.02
1075.51	0.02
1075.925	0.02
1076.339	0.02
1076.754	0.02
1077.168	0.02
1077.583	0.01
1077.997	0.01
1078.412	0.01
1078.826	0.01
1079.24	0.01
1079.655	0.01
1080.069	0.01
1080.483	0.01
1080.897	0.02
1081.312	0.02
1081.726	0.02
1082.14	0.02
1082.554	0.02
1082.968	0.02
1083.382	0.02
1083.796	0.02
1084.21	0.02
1084.624	0.02
1085.038	0.02
1085.452	0.02
1085.866	0.02
1086.28	0.02
1086.694	0.02
1087.108	0.02
1087.521	0.02
1087.935	0.02
1088.349	0.02
1088.763	0.02
1089.176	0.02
1089.59	0.03
1090.004	0.03
1090.417	0.03
1090.831	0.03
1091.244	0.03
1091.658	0.03
1092.071	0.03
1092.485	0.03
1092.898	0.03
1093.312	0.04
1093.725	0.04
1094.138	0.04
1094.552	0.04
1094.965	0.04
1095.378	0.05
1095.791	0.05
1096.205	0.05
1096.618	0.05
1097.031	0.05
1097.444	0.05
1097.857	0.06
1098.27	0.06
1098.683	0.06
1099.096	0.06
1099.509	0.06
1099.922	0.07
1100.335	0.07
1100.748	0.07
1101.161	0.07
1101.574	0.07
1101.986	0.08
1102.399	0.08
1102.812	0.09
1103.225	0.09
1103.637	0.09
1104.05	0.1
1104.463	0.11
1104.875	0.11
1105.288	0.12
1105.7	0.12
1106.113	0.13
1106.525	0.13
1106.938	0.14
1107.35	0.15
1107.763	0.19
1108.175	0.24
1108.588	0.31
1109	0.43
1109.412	0.52
1109.824	0.71
1110.237	1.51
1110.649	-0
1111.061	-0
