Data from unagg-15c-2a-1h_Absorbance__56__00483.txt Node

Date: Mon May 06 09:34:36 CEST 2024
User: Laser008
Spectrometer: MAYP115816
Trigger mode: 0
Integration Time (sec): 2.000000E-1
Scans to average: 10
Electric dark correction enabled: true
Nonlinearity correction enabled: true
Boxcar width: 5
XAxis mode: Wavelengths
Number of Pixels in Spectrum: 2068
>>>>>Begin Spectral Data<<<<<
198.914	-1.85
199.384	-1.7
199.855	-1.56
200.325	-1.44
200.796	-1.36
201.266	-1.3
201.737	-1.23
202.207	-1.17
202.677	-1.12
203.147	-1.07
203.618	-1.05
204.088	-1.02
204.558	-1
205.028	-0.99
205.498	-0.98
205.968	-0.98
206.439	-0.98
206.909	-0.98
207.379	-0.97
207.849	-0.97
208.319	-0.97
208.789	-0.97
209.258	-0.96
209.728	-0.96
210.198	-0.96
210.668	-0.96
211.138	-0.96
211.608	-0.96
212.077	-0.96
212.547	-0.96
213.017	-0.96
213.486	-0.95
213.956	-0.95
214.426	-0.95
214.895	-0.95
215.365	-0.95
215.834	-0.95
216.304	-0.94
216.773	-0.94
217.243	-0.94
217.712	-0.94
218.181	-0.94
218.651	-0.93
219.12	-0.93
219.589	-0.93
220.058	-0.93
220.528	-0.93
220.997	-0.92
221.466	-0.92
221.935	-0.92
222.404	-0.91
222.873	-0.91
223.342	-0.9
223.812	-0.89
224.281	-0.89
224.749	-0.88
225.218	-0.87
225.687	-0.85
226.156	-0.84
226.625	-0.83
227.094	-0.81
227.563	-0.8
228.031	-0.78
228.5	-0.75
228.969	-0.73
229.438	-0.7
229.906	-0.67
230.375	-0.63
230.844	-0.6
231.312	-0.55
231.781	-0.51
232.249	-0.47
232.718	-0.42
233.186	-0.37
233.655	-0.32
234.123	-0.27
234.591	-0.22
235.06	-0.17
235.528	-0.12
235.996	-0.07
236.465	-0.02
236.933	0.02
237.401	0.07
237.869	0.11
238.337	0.15
238.805	0.19
239.274	0.23
239.742	0.26
240.21	0.3
240.678	0.33
241.146	0.36
241.614	0.39
242.081	0.41
242.549	0.44
243.017	0.46
243.485	0.48
243.953	0.5
244.421	0.52
244.888	0.54
245.356	0.55
245.824	0.57
246.291	0.59
246.759	0.6
247.227	0.61
247.694	0.62
248.162	0.64
248.629	0.65
249.097	0.66
249.564	0.67
250.032	0.68
250.499	0.69
250.967	0.69
251.434	0.7
251.901	0.71
252.369	0.72
252.836	0.72
253.303	0.73
253.77	0.73
254.237	0.74
254.705	0.75
255.172	0.75
255.639	0.76
256.106	0.76
256.573	0.76
257.04	0.77
257.507	0.77
257.974	0.77
258.441	0.78
258.908	0.78
259.375	0.78
259.841	0.78
260.308	0.79
260.775	0.79
261.242	0.79
261.709	0.79
262.175	0.79
262.642	0.79
263.109	0.79
263.575	0.79
264.042	0.79
264.508	0.79
264.975	0.8
265.441	0.8
265.908	0.8
266.374	0.8
266.841	0.8
267.307	0.8
267.773	0.8
268.24	0.79
268.706	0.79
269.172	0.79
269.639	0.79
270.105	0.79
270.571	0.79
271.037	0.79
271.503	0.79
271.969	0.78
272.435	0.78
272.902	0.78
273.368	0.78
273.834	0.78
274.3	0.78
274.765	0.78
275.231	0.77
275.697	0.77
276.163	0.77
276.629	0.77
277.095	0.76
277.56	0.76
278.026	0.76
278.492	0.75
278.958	0.75
279.423	0.75
279.889	0.75
280.354	0.75
280.82	0.74
281.286	0.74
281.751	0.74
282.217	0.74
282.682	0.74
283.147	0.74
283.613	0.74
284.078	0.73
284.544	0.73
285.009	0.73
285.474	0.73
285.939	0.73
286.405	0.72
286.87	0.72
287.335	0.72
287.8	0.72
288.265	0.72
288.73	0.71
289.195	0.71
289.66	0.71
290.125	0.71
290.59	0.71
291.055	0.7
291.52	0.7
291.985	0.7
292.45	0.7
292.915	0.7
293.38	0.69
293.844	0.69
294.309	0.69
294.774	0.69
295.239	0.69
295.703	0.69
296.168	0.69
296.632	0.68
297.097	0.68
297.562	0.68
298.026	0.68
298.491	0.68
298.955	0.68
299.419	0.68
299.884	0.67
300.348	0.67
300.813	0.67
301.277	0.67
301.741	0.67
302.205	0.67
302.67	0.67
303.134	0.67
303.598	0.66
304.062	0.66
304.526	0.66
304.99	0.66
305.454	0.66
305.919	0.66
306.383	0.66
306.847	0.66
307.31	0.66
307.774	0.65
308.238	0.65
308.702	0.65
309.166	0.65
309.63	0.65
310.094	0.65
310.557	0.65
311.021	0.65
311.485	0.65
311.948	0.64
312.412	0.64
312.876	0.64
313.339	0.64
313.803	0.64
314.266	0.64
314.73	0.64
315.193	0.64
315.657	0.63
316.12	0.63
316.584	0.63
317.047	0.63
317.51	0.63
317.973	0.63
318.437	0.63
318.9	0.63
319.363	0.63
319.826	0.62
320.29	0.62
320.753	0.62
321.216	0.62
321.679	0.62
322.142	0.62
322.605	0.62
323.068	0.61
323.531	0.61
323.994	0.61
324.457	0.61
324.92	0.61
325.382	0.61
325.845	0.61
326.308	0.61
326.771	0.61
327.233	0.6
327.696	0.6
328.159	0.6
328.622	0.6
329.084	0.6
329.547	0.6
330.009	0.6
330.472	0.6
330.934	0.59
331.397	0.59
331.859	0.59
332.322	0.59
332.784	0.59
333.246	0.59
333.709	0.59
334.171	0.59
334.633	0.58
335.096	0.58
335.558	0.58
336.02	0.58
336.482	0.58
336.944	0.58
337.406	0.58
337.868	0.58
338.331	0.58
338.793	0.58
339.255	0.57
339.717	0.57
340.178	0.57
340.64	0.57
341.102	0.57
341.564	0.57
342.026	0.57
342.488	0.57
342.949	0.57
343.411	0.57
343.873	0.56
344.335	0.56
344.796	0.56
345.258	0.56
345.719	0.56
346.181	0.56
346.643	0.56
347.104	0.56
347.566	0.56
348.027	0.56
348.488	0.56
348.95	0.55
349.411	0.55
349.873	0.55
350.334	0.55
350.795	0.55
351.256	0.55
351.718	0.55
352.179	0.55
352.64	0.55
353.101	0.55
353.562	0.54
354.023	0.54
354.484	0.54
354.945	0.54
355.406	0.54
355.867	0.54
356.328	0.54
356.789	0.53
357.25	0.53
357.711	0.53
358.172	0.53
358.633	0.54
359.093	0.54
359.554	0.54
360.015	0.54
360.476	0.54
360.936	0.54
361.397	0.54
361.858	0.54
362.318	0.54
362.779	0.54
363.239	0.54
363.7	0.54
364.16	0.54
364.621	0.54
365.081	0.54
365.541	0.54
366.002	0.54
366.462	0.54
366.922	0.54
367.383	0.54
367.843	0.54
368.303	0.54
368.763	0.54
369.223	0.53
369.684	0.53
370.144	0.53
370.604	0.53
371.064	0.53
371.524	0.53
371.984	0.53
372.444	0.53
372.904	0.53
373.363	0.53
373.823	0.53
374.283	0.53
374.743	0.53
375.203	0.53
375.663	0.53
376.122	0.53
376.582	0.53
377.042	0.53
377.501	0.53
377.961	0.53
378.42	0.53
378.88	0.53
379.34	0.53
379.799	0.53
380.259	0.53
380.718	0.53
381.177	0.53
381.637	0.53
382.096	0.53
382.555	0.53
383.015	0.53
383.474	0.53
383.933	0.53
384.393	0.53
384.852	0.53
385.311	0.53
385.77	0.53
386.229	0.53
386.688	0.53
387.147	0.53
387.606	0.52
388.065	0.52
388.524	0.52
388.983	0.52
389.442	0.52
389.901	0.52
390.36	0.52
390.819	0.52
391.277	0.52
391.736	0.52
392.195	0.52
392.654	0.52
393.112	0.52
393.571	0.52
394.03	0.52
394.488	0.52
394.947	0.52
395.405	0.52
395.864	0.52
396.322	0.52
396.781	0.52
397.239	0.52
397.698	0.52
398.156	0.52
398.614	0.52
399.073	0.52
399.531	0.52
399.989	0.52
400.447	0.52
400.905	0.52
401.364	0.52
401.822	0.52
402.28	0.52
402.738	0.51
403.196	0.51
403.654	0.51
404.112	0.51
404.57	0.51
405.028	0.51
405.486	0.51
405.944	0.51
406.402	0.51
406.859	0.51
407.317	0.51
407.775	0.51
408.233	0.51
408.691	0.51
409.148	0.51
409.606	0.51
410.064	0.51
410.521	0.51
410.979	0.51
411.436	0.51
411.894	0.5
412.351	0.5
412.809	0.5
413.266	0.5
413.724	0.5
414.181	0.5
414.638	0.5
415.096	0.5
415.553	0.5
416.01	0.5
416.467	0.5
416.925	0.5
417.382	0.5
417.839	0.5
418.296	0.5
418.753	0.5
419.21	0.5
419.667	0.5
420.124	0.5
420.581	0.5
421.038	0.5
421.495	0.5
421.952	0.5
422.409	0.5
422.866	0.5
423.322	0.5
423.779	0.5
424.236	0.5
424.693	0.5
425.149	0.5
425.606	0.5
426.063	0.49
426.519	0.49
426.976	0.49
427.433	0.49
427.889	0.49
428.346	0.5
428.802	0.5
429.258	0.5
429.715	0.5
430.171	0.5
430.628	0.5
431.084	0.5
431.54	0.5
431.997	0.5
432.453	0.49
432.909	0.49
433.365	0.49
433.821	0.49
434.277	0.49
434.734	0.49
435.19	0.49
435.646	0.49
436.102	0.49
436.558	0.49
437.014	0.49
437.47	0.49
437.925	0.49
438.381	0.49
438.837	0.49
439.293	0.49
439.749	0.49
440.205	0.49
440.66	0.49
441.116	0.49
441.572	0.49
442.027	0.49
442.483	0.49
442.939	0.49
443.394	0.49
443.85	0.49
444.305	0.49
444.761	0.49
445.216	0.49
445.672	0.49
446.127	0.49
446.582	0.49
447.038	0.49
447.493	0.49
447.948	0.48
448.403	0.48
448.859	0.48
449.314	0.48
449.769	0.48
450.224	0.48
450.679	0.48
451.134	0.48
451.589	0.48
452.044	0.48
452.499	0.48
452.954	0.48
453.409	0.48
453.864	0.48
454.319	0.48
454.774	0.48
455.229	0.48
455.684	0.48
456.138	0.48
456.593	0.48
457.048	0.48
457.503	0.48
457.957	0.48
458.412	0.48
458.866	0.48
459.321	0.48
459.776	0.48
460.23	0.47
460.685	0.47
461.139	0.47
461.593	0.47
462.048	0.47
462.502	0.47
462.957	0.47
463.411	0.47
463.865	0.47
464.319	0.47
464.774	0.47
465.228	0.47
465.682	0.47
466.136	0.47
466.59	0.47
467.044	0.47
467.499	0.47
467.953	0.47
468.407	0.47
468.861	0.47
469.315	0.47
469.768	0.47
470.222	0.46
470.676	0.46
471.13	0.46
471.584	0.46
472.038	0.46
472.491	0.46
472.945	0.47
473.399	0.47
473.852	0.47
474.306	0.47
474.76	0.47
475.213	0.47
475.667	0.47
476.12	0.47
476.574	0.47
477.027	0.48
477.481	0.48
477.934	0.48
478.388	0.48
478.841	0.48
479.294	0.48
479.748	0.48
480.201	0.48
480.654	0.48
481.107	0.48
481.561	0.48
482.014	0.49
482.467	0.49
482.92	0.49
483.373	0.49
483.826	0.5
484.279	0.5
484.732	0.5
485.185	0.51
485.638	0.51
486.091	0.51
486.544	0.51
486.997	0.51
487.449	0.51
487.902	0.51
488.355	0.51
488.808	0.51
489.26	0.51
489.713	0.51
490.166	0.51
490.618	0.51
491.071	0.51
491.523	0.51
491.976	0.51
492.429	0.51
492.881	0.51
493.333	0.51
493.786	0.52
494.238	0.52
494.691	0.52
495.143	0.52
495.595	0.53
496.048	0.53
496.5	0.53
496.952	0.53
497.404	0.53
497.856	0.54
498.309	0.54
498.761	0.54
499.213	0.54
499.665	0.54
500.117	0.54
500.569	0.55
501.021	0.55
501.473	0.55
501.925	0.56
502.377	0.56
502.828	0.56
503.28	0.56
503.732	0.57
504.184	0.57
504.636	0.57
505.087	0.57
505.539	0.57
505.991	0.57
506.442	0.57
506.894	0.57
507.345	0.57
507.797	0.58
508.249	0.58
508.7	0.58
509.151	0.58
509.603	0.58
510.054	0.58
510.506	0.58
510.957	0.58
511.408	0.59
511.86	0.59
512.311	0.59
512.762	0.59
513.213	0.59
513.665	0.59
514.116	0.59
514.567	0.59
515.018	0.59
515.469	0.59
515.92	0.59
516.371	0.59
516.822	0.59
517.273	0.59
517.724	0.59
518.175	0.59
518.626	0.59
519.076	0.59
519.527	0.59
519.978	0.58
520.429	0.58
520.88	0.58
521.33	0.57
521.781	0.57
522.232	0.57
522.682	0.57
523.133	0.57
523.583	0.57
524.034	0.58
524.484	0.58
524.935	0.59
525.385	0.59
525.836	0.6
526.286	0.6
526.736	0.61
527.187	0.61
527.637	0.62
528.087	0.62
528.538	0.62
528.988	0.63
529.438	0.63
529.888	0.63
530.338	0.63
530.788	0.63
531.238	0.63
531.688	0.63
532.139	0.63
532.589	0.63
533.038	0.63
533.488	0.64
533.938	0.64
534.388	0.64
534.838	0.64
535.288	0.64
535.738	0.64
536.187	0.64
536.637	0.64
537.087	0.64
537.537	0.64
537.986	0.64
538.436	0.64
538.885	0.64
539.335	0.64
539.785	0.64
540.234	0.64
540.684	0.64
541.133	0.64
541.582	0.64
542.032	0.64
542.481	0.64
542.931	0.64
543.38	0.64
543.829	0.64
544.278	0.64
544.728	0.64
545.177	0.64
545.626	0.64
546.075	0.64
546.524	0.64
546.973	0.64
547.422	0.64
547.871	0.64
548.32	0.64
548.769	0.63
549.218	0.63
549.667	0.63
550.116	0.63
550.565	0.63
551.014	0.63
551.463	0.63
551.911	0.63
552.36	0.63
552.809	0.63
553.258	0.63
553.706	0.63
554.155	0.63
554.603	0.63
555.052	0.62
555.501	0.62
555.949	0.62
556.398	0.61
556.846	0.61
557.294	0.61
557.743	0.61
558.191	0.6
558.64	0.6
559.088	0.6
559.536	0.6
559.985	0.6
560.433	0.6
560.881	0.6
561.329	0.61
561.777	0.61
562.225	0.61
562.674	0.61
563.122	0.61
563.57	0.6
564.018	0.6
564.466	0.6
564.914	0.59
565.362	0.59
565.809	0.59
566.257	0.59
566.705	0.59
567.153	0.59
567.601	0.59
568.048	0.59
568.496	0.6
568.944	0.6
569.392	0.6
569.839	0.61
570.287	0.61
570.734	0.61
571.182	0.61
571.63	0.61
572.077	0.61
572.525	0.61
572.972	0.61
573.419	0.61
573.867	0.61
574.314	0.61
574.761	0.61
575.209	0.61
575.656	0.61
576.103	0.61
576.551	0.61
576.998	0.61
577.445	0.6
577.892	0.6
578.339	0.6
578.786	0.6
579.233	0.6
579.68	0.6
580.127	0.6
580.574	0.6
581.021	0.59
581.468	0.59
581.915	0.59
582.362	0.58
582.809	0.58
583.255	0.58
583.702	0.58
584.149	0.57
584.596	0.57
585.042	0.56
585.489	0.56
585.936	0.56
586.382	0.56
586.829	0.56
587.275	0.55
587.722	0.55
588.168	0.54
588.615	0.54
589.061	0.54
589.508	0.53
589.954	0.53
590.4	0.53
590.847	0.52
591.293	0.52
591.739	0.52
592.185	0.52
592.632	0.52
593.078	0.52
593.524	0.51
593.97	0.51
594.416	0.51
594.862	0.51
595.308	0.51
595.754	0.5
596.2	0.5
596.646	0.5
597.092	0.5
597.538	0.5
597.984	0.5
598.43	0.5
598.876	0.5
599.321	0.49
599.767	0.49
600.213	0.49
600.659	0.49
601.104	0.49
601.55	0.48
601.995	0.48
602.441	0.48
602.887	0.47
603.332	0.47
603.778	0.47
604.223	0.47
604.668	0.47
605.114	0.47
605.559	0.47
606.005	0.47
606.45	0.47
606.895	0.47
607.341	0.46
607.786	0.46
608.231	0.46
608.676	0.46
609.121	0.45
609.566	0.45
610.012	0.45
610.457	0.44
610.902	0.44
611.347	0.44
611.792	0.44
612.237	0.44
612.682	0.44
613.127	0.44
613.571	0.44
614.016	0.44
614.461	0.44
614.906	0.44
615.351	0.43
615.795	0.43
616.24	0.43
616.685	0.43
617.129	0.43
617.574	0.42
618.019	0.42
618.463	0.42
618.908	0.42
619.352	0.42
619.797	0.42
620.241	0.42
620.686	0.42
621.13	0.42
621.574	0.42
622.019	0.42
622.463	0.42
622.907	0.42
623.352	0.42
623.796	0.42
624.24	0.42
624.684	0.42
625.128	0.42
625.572	0.42
626.016	0.42
626.461	0.42
626.905	0.42
627.349	0.42
627.793	0.42
628.236	0.42
628.68	0.42
629.124	0.42
629.568	0.42
630.012	0.42
630.456	0.42
630.9	0.42
631.343	0.42
631.787	0.42
632.231	0.42
632.674	0.42
633.118	0.42
633.562	0.42
634.005	0.42
634.449	0.42
634.892	0.42
635.336	0.42
635.779	0.42
636.223	0.43
636.666	0.43
637.109	0.43
637.553	0.43
637.996	0.43
638.439	0.43
638.883	0.44
639.326	0.44
639.769	0.44
640.212	0.44
640.655	0.44
641.099	0.45
641.542	0.45
641.985	0.45
642.428	0.45
642.871	0.46
643.314	0.46
643.757	0.46
644.2	0.46
644.643	0.47
645.085	0.47
645.528	0.47
645.971	0.47
646.414	0.48
646.857	0.48
647.299	0.49
647.742	0.49
648.185	0.49
648.627	0.5
649.07	0.5
649.513	0.51
649.955	0.51
650.398	0.51
650.84	0.52
651.283	0.52
651.725	0.52
652.168	0.53
652.61	0.53
653.052	0.54
653.495	0.54
653.937	0.47
654.379	0.44
654.821	0.45
655.264	0.45
655.706	0.45
656.148	0.46
656.59	0.46
657.032	0.46
657.474	0.47
657.916	0.46
658.358	0.47
658.8	0.53
659.242	0.6
659.684	0.6
660.126	0.6
660.568	0.6
661.01	0.6
661.452	0.61
661.894	0.61
662.335	0.61
662.777	0.62
663.219	0.62
663.661	0.63
664.102	0.63
664.544	0.63
664.985	0.64
665.427	0.64
665.869	0.65
666.31	0.65
666.752	0.65
667.193	0.66
667.634	0.66
668.076	0.66
668.517	0.67
668.959	0.67
669.4	0.68
669.841	0.68
670.282	0.69
670.724	0.69
671.165	0.7
671.606	0.7
672.047	0.7
672.488	0.71
672.929	0.71
673.37	0.71
673.811	0.71
674.252	0.71
674.693	0.72
675.134	0.72
675.575	0.72
676.016	0.72
676.457	0.72
676.898	0.73
677.339	0.73
677.78	0.73
678.22	0.73
678.661	0.73
679.102	0.74
679.542	0.74
679.983	0.74
680.424	0.74
680.864	0.74
681.305	0.74
681.745	0.74
682.186	0.75
682.626	0.75
683.067	0.75
683.507	0.75
683.948	0.76
684.388	0.76
684.828	0.76
685.269	0.76
685.709	0.76
686.149	0.76
686.589	0.76
687.029	0.76
687.47	0.76
687.91	0.76
688.35	0.76
688.79	0.76
689.23	0.76
689.67	0.76
690.11	0.76
690.55	0.76
690.99	0.76
691.43	0.77
691.87	0.77
692.31	0.76
692.749	0.76
693.189	0.76
693.629	0.76
694.069	0.76
694.508	0.76
694.948	0.76
695.388	0.76
695.827	0.76
696.267	0.76
696.706	0.76
697.146	0.76
697.586	0.76
698.025	0.76
698.464	0.76
698.904	0.76
699.343	0.75
699.783	0.75
700.222	0.75
700.661	0.74
701.101	0.74
701.54	0.74
701.979	0.74
702.418	0.74
702.857	0.74
703.297	0.74
703.736	0.73
704.175	0.73
704.614	0.73
705.053	0.73
705.492	0.73
705.931	0.73
706.37	0.73
706.809	0.72
707.248	0.72
707.687	0.72
708.125	0.72
708.564	0.72
709.003	0.71
709.442	0.71
709.88	0.7
710.319	0.7
710.758	0.7
711.196	0.69
711.635	0.69
712.074	0.69
712.512	0.69
712.951	0.68
713.389	0.68
713.828	0.68
714.266	0.67
714.705	0.67
715.143	0.67
715.581	0.66
716.02	0.66
716.458	0.66
716.896	0.65
717.334	0.65
717.773	0.64
718.211	0.64
718.649	0.64
719.087	0.64
719.525	0.63
719.963	0.63
720.401	0.63
720.839	0.62
721.277	0.62
721.715	0.61
722.153	0.61
722.591	0.61
723.029	0.6
723.467	0.6
723.905	0.6
724.342	0.59
724.78	0.59
725.218	0.59
725.656	0.58
726.093	0.58
726.531	0.58
726.969	0.58
727.406	0.57
727.844	0.57
728.281	0.57
728.719	0.57
729.156	0.56
729.594	0.56
730.031	0.56
730.469	0.56
730.906	0.55
731.343	0.55
731.781	0.55
732.218	0.55
732.655	0.54
733.092	0.54
733.53	0.54
733.967	0.53
734.404	0.53
734.841	0.53
735.278	0.53
735.715	0.52
736.152	0.52
736.589	0.52
737.026	0.51
737.463	0.51
737.9	0.51
738.337	0.5
738.774	0.5
739.211	0.49
739.647	0.49
740.084	0.49
740.521	0.48
740.958	0.48
741.394	0.48
741.831	0.47
742.268	0.46
742.704	0.46
743.141	0.45
743.577	0.45
744.014	0.45
744.45	0.44
744.887	0.44
745.323	0.43
745.76	0.43
746.196	0.43
746.632	0.42
747.069	0.42
747.505	0.42
747.941	0.42
748.378	0.42
748.814	0.41
749.25	0.41
749.686	0.41
750.122	0.41
750.558	0.41
750.994	0.41
751.43	0.41
751.866	0.41
752.302	0.4
752.738	0.4
753.174	0.4
753.61	0.4
754.046	0.4
754.482	0.39
754.918	0.39
755.354	0.39
755.789	0.39
756.225	0.39
756.661	0.39
757.096	0.38
757.532	0.38
757.968	0.38
758.403	0.38
758.839	0.38
759.274	0.37
759.71	0.37
760.145	0.36
760.581	0.36
761.016	0.35
761.452	0.35
761.887	0.35
762.322	0.34
762.758	0.34
763.193	0.34
763.628	0.33
764.063	0.33
764.499	0.32
764.934	0.32
765.369	0.32
765.804	0.31
766.239	0.31
766.674	0.31
767.109	0.3
767.544	0.3
767.979	0.29
768.414	0.29
768.849	0.28
769.284	0.28
769.719	0.27
770.154	0.27
770.588	0.27
771.023	0.26
771.458	0.25
771.893	0.25
772.327	0.24
772.762	0.24
773.197	0.23
773.631	0.23
774.066	0.22
774.5	0.22
774.935	0.21
775.369	0.2
775.804	0.2
776.238	0.19
776.673	0.19
777.107	0.18
777.541	0.17
777.976	0.16
778.41	0.16
778.844	0.15
779.279	0.14
779.713	0.14
780.147	0.13
780.581	0.12
781.015	0.11
781.449	0.1
781.883	0.09
782.317	0.08
782.751	0.06
783.185	0.05
783.619	0.04
784.053	0.02
784.487	0.01
784.921	-0.01
785.355	-0.02
785.789	-0.03
786.223	-0.04
786.656	-0.04
787.09	-0.04
787.524	-0.05
787.957	-0.05
788.391	-0.06
788.825	-0.06
789.258	-0.06
789.692	-0.06
790.125	-0.06
790.559	-0.06
790.992	-0.06
791.426	-0.06
791.859	-0.06
792.293	-0.05
792.726	-0.04
793.159	-0.04
793.593	-0.04
794.026	-0.04
794.459	-0.04
794.892	-0.05
795.326	-0.05
795.759	-0.05
796.192	-0.05
796.625	-0.06
797.058	-0.07
797.491	-0.07
797.924	-0.08
798.357	-0.08
798.79	-0.08
799.223	-0.08
799.656	-0.08
800.089	-0.08
800.522	-0.09
800.955	-0.09
801.387	-0.09
801.82	-0.09
802.253	-0.09
802.686	-0.09
803.118	-0.09
803.551	-0.09
803.984	-0.08
804.416	-0.08
804.849	-0.07
805.281	-0.07
805.714	-0.07
806.146	-0.07
806.579	-0.07
807.011	-0.07
807.444	-0.07
807.876	-0.07
808.308	-0.07
808.741	-0.07
809.173	-0.08
809.605	-0.08
810.037	-0.08
810.47	-0.08
810.902	-0.09
811.334	-0.09
811.766	-0.08
812.198	-0.08
812.63	-0.08
813.062	-0.08
813.494	-0.08
813.926	-0.08
814.358	-0.08
814.79	-0.08
815.222	-0.07
815.654	-0.07
816.086	-0.07
816.518	-0.08
816.949	-0.08
817.381	-0.08
817.813	-0.08
818.245	-0.08
818.676	-0.07
819.108	-0.06
819.54	-0.06
819.971	-0.05
820.403	-0.05
820.834	-0.04
821.266	-0.03
821.697	-0.01
822.129	0
822.56	0.01
822.991	0.02
823.423	0.03
823.854	0.04
824.286	0.05
824.717	0.06
825.148	0.07
825.579	0.08
826.01	0.09
826.442	0.09
826.873	0.1
827.304	0.11
827.735	0.11
828.166	0.11
828.597	0.12
829.028	0.12
829.459	0.13
829.89	0.13
830.321	0.13
830.752	0.14
831.183	0.14
831.613	0.14
832.044	0.14
832.475	0.15
832.906	0.15
833.336	0.15
833.767	0.15
834.198	0.16
834.628	0.16
835.059	0.16
835.49	0.16
835.92	0.16
836.351	0.16
836.781	0.17
837.212	0.17
837.642	0.17
838.072	0.17
838.503	0.17
838.933	0.17
839.364	0.17
839.794	0.17
840.224	0.17
840.654	0.17
841.085	0.17
841.515	0.17
841.945	0.17
842.375	0.17
842.805	0.17
843.235	0.17
843.665	0.17
844.095	0.17
844.525	0.17
844.955	0.16
845.385	0.16
845.815	0.16
846.245	0.16
846.675	0.16
847.105	0.16
847.534	0.16
847.964	0.16
848.394	0.16
848.824	0.16
849.253	0.16
849.683	0.16
850.112	0.17
850.542	0.17
850.972	0.17
851.401	0.17
851.831	0.17
852.26	0.17
852.69	0.17
853.119	0.17
853.548	0.17
853.978	0.17
854.407	0.17
854.836	0.17
855.266	0.17
855.695	0.16
856.124	0.16
856.553	0.16
856.983	0.16
857.412	0.16
857.841	0.16
858.27	0.16
858.699	0.16
859.128	0.16
859.557	0.15
859.986	0.15
860.415	0.15
860.844	0.15
861.273	0.15
861.702	0.15
862.13	0.15
862.559	0.15
862.988	0.15
863.417	0.15
863.845	0.15
864.274	0.15
864.703	0.15
865.131	0.15
865.56	0.15
865.989	0.15
866.417	0.15
866.846	0.15
867.274	0.15
867.703	0.15
868.131	0.15
868.559	0.15
868.988	0.15
869.416	0.15
869.844	0.15
870.273	0.15
870.701	0.15
871.129	0.15
871.557	0.15
871.986	0.15
872.414	0.14
872.842	0.14
873.27	0.14
873.698	0.14
874.126	0.14
874.554	0.14
874.982	0.14
875.41	0.14
875.838	0.14
876.266	0.14
876.694	0.14
877.122	0.14
877.549	0.14
877.977	0.14
878.405	0.14
878.833	0.14
879.26	0.14
879.688	0.14
880.116	0.14
880.543	0.14
880.971	0.14
881.399	0.14
881.826	0.14
882.254	0.14
882.681	0.14
883.109	0.14
883.536	0.14
883.963	0.14
884.391	0.14
884.818	0.14
885.245	0.14
885.673	0.14
886.1	0.14
886.527	0.14
886.954	0.14
887.381	0.14
887.809	0.14
888.236	0.14
888.663	0.14
889.09	0.14
889.517	0.14
889.944	0.14
890.371	0.14
890.798	0.14
891.225	0.14
891.652	0.14
892.078	0.14
892.505	0.14
892.932	0.14
893.359	0.14
893.786	0.14
894.212	0.14
894.639	0.14
895.066	0.14
895.492	0.14
895.919	0.14
896.346	0.13
896.772	0.13
897.199	0.13
897.625	0.13
898.052	0.13
898.478	0.13
898.904	0.13
899.331	0.13
899.757	0.13
900.183	0.13
900.61	0.13
901.036	0.13
901.462	0.13
901.888	0.13
902.315	0.13
902.741	0.13
903.167	0.13
903.593	0.13
904.019	0.13
904.445	0.13
904.871	0.13
905.297	0.13
905.723	0.13
906.149	0.13
906.575	0.13
907.001	0.13
907.427	0.13
907.852	0.13
908.278	0.13
908.704	0.13
909.13	0.13
909.555	0.13
909.981	0.12
910.407	0.12
910.832	0.12
911.258	0.12
911.684	0.12
912.109	0.13
912.535	0.13
912.96	0.13
913.386	0.13
913.811	0.13
914.236	0.13
914.662	0.13
915.087	0.13
915.512	0.13
915.938	0.13
916.363	0.13
916.788	0.13
917.213	0.13
917.639	0.13
918.064	0.13
918.489	0.13
918.914	0.13
919.339	0.13
919.764	0.13
920.189	0.13
920.614	0.13
921.039	0.13
921.464	0.13
921.889	0.13
922.314	0.13
922.738	0.13
923.163	0.13
923.588	0.13
924.013	0.12
924.437	0.12
924.862	0.12
925.287	0.12
925.711	0.12
926.136	0.12
926.561	0.12
926.985	0.12
927.41	0.12
927.834	0.12
928.259	0.12
928.683	0.12
929.108	0.12
929.532	0.12
929.956	0.12
930.381	0.12
930.805	0.12
931.229	0.12
931.653	0.11
932.078	0.11
932.502	0.11
932.926	0.11
933.35	0.11
933.774	0.11
934.198	0.11
934.622	0.11
935.046	0.11
935.47	0.11
935.894	0.11
936.318	0.11
936.742	0.11
937.166	0.11
937.59	0.11
938.014	0.11
938.437	0.11
938.861	0.11
939.285	0.11
939.709	0.11
940.132	0.11
940.556	0.11
940.98	0.11
941.403	0.11
941.827	0.11
942.25	0.11
942.674	0.11
943.097	0.11
943.521	0.11
943.944	0.11
944.368	0.11
944.791	0.11
945.214	0.11
945.638	0.11
946.061	0.11
946.484	0.11
946.907	0.11
947.331	0.11
947.754	0.11
948.177	0.1
948.6	0.1
949.023	0.1
949.446	0.1
949.869	0.1
950.292	0.1
950.715	0.1
951.138	0.1
951.561	0.1
951.984	0.1
952.407	0.1
952.83	0.1
953.252	0.1
953.675	0.1
954.098	0.1
954.521	0.1
954.943	0.1
955.366	0.1
955.789	0.1
956.211	0.1
956.634	0.1
957.056	0.1
957.479	0.1
957.902	0.1
958.324	0.1
958.746	0.1
959.169	0.1
959.591	0.1
960.014	0.1
960.436	0.1
960.858	0.1
961.281	0.1
961.703	0.1
962.125	0.1
962.547	0.1
962.969	0.1
963.391	0.1
963.814	0.1
964.236	0.1
964.658	0.1
965.08	0.1
965.502	0.11
965.924	0.11
966.346	0.11
966.768	0.11
967.189	0.1
967.611	0.1
968.033	0.1
968.455	0.1
968.877	0.1
969.298	0.1
969.72	0.1
970.142	0.1
970.563	0.1
970.985	0.1
971.407	0.1
971.828	0.1
972.25	0.1
972.671	0.1
973.093	0.1
973.514	0.1
973.936	0.1
974.357	0.1
974.778	0.1
975.2	0.1
975.621	0.1
976.042	0.1
976.464	0.1
976.885	0.1
977.306	0.1
977.727	0.1
978.148	0.1
978.57	0.1
978.991	0.1
979.412	0.1
979.833	0.09
980.254	0.09
980.675	0.09
981.096	0.09
981.517	0.09
981.937	0.09
982.358	0.09
982.779	0.09
983.2	0.09
983.621	0.09
984.042	0.09
984.462	0.09
984.883	0.09
985.304	0.09
985.724	0.09
986.145	0.09
986.565	0.09
986.986	0.09
987.407	0.09
987.827	0.09
988.248	0.09
988.668	0.09
989.088	0.09
989.509	0.09
989.929	0.09
990.35	0.09
990.77	0.09
991.19	0.09
991.61	0.09
992.031	0.09
992.451	0.09
992.871	0.09
993.291	0.08
993.711	0.08
994.131	0.08
994.551	0.08
994.971	0.08
995.391	0.08
995.811	0.08
996.231	0.08
996.651	0.08
997.071	0.08
997.491	0.08
997.911	0.08
998.331	0.08
998.75	0.08
999.17	0.08
999.59	0.08
1000.009	0.08
1000.429	0.08
1000.849	0.08
1001.268	0.08
1001.688	0.08
1002.107	0.08
1002.527	0.08
1002.946	0.08
1003.366	0.08
1003.785	0.08
1004.205	0.08
1004.624	0.08
1005.044	0.08
1005.463	0.08
1005.882	0.08
1006.301	0.08
1006.721	0.08
1007.14	0.08
1007.559	0.08
1007.978	0.08
1008.397	0.08
1008.816	0.08
1009.235	0.08
1009.655	0.08
1010.074	0.08
1010.492	0.08
1010.911	0.08
1011.33	0.08
1011.749	0.08
1012.168	0.08
1012.587	0.08
1013.006	0.08
1013.425	0.08
1013.843	0.08
1014.262	0.08
1014.681	0.07
1015.099	0.07
1015.518	0.07
1015.937	0.07
1016.355	0.07
1016.774	0.07
1017.192	0.07
1017.611	0.07
1018.029	0.07
1018.448	0.07
1018.866	0.07
1019.285	0.07
1019.703	0.07
1020.121	0.07
1020.54	0.07
1020.958	0.07
1021.376	0.08
1021.794	0.08
1022.213	0.08
1022.631	0.08
1023.049	0.08
1023.467	0.08
1023.885	0.08
1024.303	0.08
1024.721	0.08
1025.139	0.08
1025.557	0.08
1025.975	0.08
1026.393	0.08
1026.811	0.08
1027.229	0.08
1027.647	0.08
1028.065	0.08
1028.482	0.08
1028.9	0.09
1029.318	0.09
1029.735	0.09
1030.153	0.09
1030.571	0.09
1030.988	0.09
1031.406	0.09
1031.823	0.09
1032.241	0.09
1032.659	0.09
1033.076	0.09
1033.493	0.09
1033.911	0.09
1034.328	0.09
1034.746	0.09
1035.163	0.09
1035.58	0.08
1035.997	0.08
1036.415	0.08
1036.832	0.08
1037.249	0.08
1037.666	0.08
1038.083	0.08
1038.501	0.08
1038.918	0.08
1039.335	0.08
1039.752	0.08
1040.169	0.08
1040.586	0.08
1041.003	0.08
1041.419	0.08
1041.836	0.08
1042.253	0.08
1042.67	0.08
1043.087	0.08
1043.504	0.08
1043.92	0.08
1044.337	0.08
1044.754	0.08
1045.17	0.08
1045.587	0.08
1046.004	0.08
1046.42	0.08
1046.837	0.08
1047.253	0.08
1047.67	0.08
1048.086	0.08
1048.503	0.08
1048.919	0.08
1049.335	0.08
1049.752	0.08
1050.168	0.08
1050.584	0.08
1051.001	0.08
1051.417	0.08
1051.833	0.08
1052.249	0.08
1052.665	0.08
1053.081	0.08
1053.497	0.08
1053.914	0.08
1054.33	0.08
1054.746	0.08
1055.162	0.08
1055.578	0.08
1055.993	0.08
1056.409	0.08
1056.825	0.08
1057.241	0.08
1057.657	0.08
1058.073	0.08
1058.488	0.08
1058.904	0.08
1059.32	0.08
1059.736	0.08
1060.151	0.08
1060.567	0.08
1060.982	0.08
1061.398	0.08
1061.813	0.08
1062.229	0.08
1062.644	0.08
1063.06	0.08
1063.475	0.08
1063.891	0.08
1064.306	0.08
1064.721	0.08
1065.137	0.08
1065.552	0.08
1065.967	0.08
1066.382	0.08
1066.798	0.08
1067.213	0.08
1067.628	0.08
1068.043	0.08
1068.458	0.08
1068.873	0.08
1069.288	0.08
1069.703	0.08
1070.118	0.08
1070.533	0.08
1070.948	0.09
1071.363	0.09
1071.778	0.09
1072.193	0.09
1072.607	0.09
1073.022	0.09
1073.437	0.09
1073.852	0.09
1074.266	0.09
1074.681	0.09
1075.096	0.09
1075.51	0.09
1075.925	0.09
1076.339	0.09
1076.754	0.09
1077.168	0.09
1077.583	0.09
1077.997	0.09
1078.412	0.09
1078.826	0.09
1079.24	0.09
1079.655	0.09
1080.069	0.09
1080.483	0.09
1080.897	0.1
1081.312	0.1
1081.726	0.1
1082.14	0.1
1082.554	0.1
1082.968	0.1
1083.382	0.1
1083.796	0.1
1084.21	0.1
1084.624	0.11
1085.038	0.11
1085.452	0.11
1085.866	0.11
1086.28	0.11
1086.694	0.11
1087.108	0.12
1087.521	0.12
1087.935	0.12
1088.349	0.12
1088.763	0.12
1089.176	0.12
1089.59	0.13
1090.004	0.13
1090.417	0.13
1090.831	0.14
1091.244	0.14
1091.658	0.14
1092.071	0.15
1092.485	0.15
1092.898	0.16
1093.312	0.16
1093.725	0.17
1094.138	0.17
1094.552	0.18
1094.965	0.18
1095.378	0.19
1095.791	0.2
1096.205	0.2
1096.618	0.21
1097.031	0.22
1097.444	0.23
1097.857	0.24
1098.27	0.25
1098.683	0.25
1099.096	0.27
1099.509	0.28
1099.922	0.29
1100.335	0.3
1100.748	0.32
1101.161	0.33
1101.574	0.35
1101.986	0.37
1102.399	0.39
1102.812	0.42
1103.225	0.45
1103.637	0.48
1104.05	0.51
1104.463	0.55
1104.875	0.6
1105.288	0.65
1105.7	0.72
1106.113	0.8
1106.525	0.92
1106.938	1.13
1107.35	1.77
1107.763	-0
1108.175	-0
1108.588	-0
1109	-0
1109.412	-0
1109.824	-0
1110.237	-0
1110.649	-0
1111.061	-0
