Data from unagg-15c-2a-1h_Absorbance__62__00489.txt Node

Date: Mon May 06 09:34:48 CEST 2024
User: Laser008
Spectrometer: MAYP115816
Trigger mode: 0
Integration Time (sec): 2.000000E-1
Scans to average: 10
Electric dark correction enabled: true
Nonlinearity correction enabled: true
Boxcar width: 5
XAxis mode: Wavelengths
Number of Pixels in Spectrum: 2068
>>>>>Begin Spectral Data<<<<<
198.914	-1.93
199.384	-1.79
199.855	-1.64
200.325	-1.52
200.796	-1.44
201.266	-1.39
201.737	-1.32
202.207	-1.25
202.677	-1.2
203.147	-1.16
203.618	-1.13
204.088	-1.1
204.558	-1.08
205.028	-1.07
205.498	-1.07
205.968	-1.06
206.439	-1.06
206.909	-1.06
207.379	-1.05
207.849	-1.05
208.319	-1.05
208.789	-1.05
209.258	-1.04
209.728	-1.04
210.198	-1.04
210.668	-1.04
211.138	-1.04
211.608	-1.04
212.077	-1.04
212.547	-1.04
213.017	-1.04
213.486	-1.03
213.956	-1.03
214.426	-1.03
214.895	-1.03
215.365	-1.03
215.834	-1.03
216.304	-1.03
216.773	-1.02
217.243	-1.02
217.712	-1.02
218.181	-1.02
218.651	-1.02
219.12	-1.01
219.589	-1.01
220.058	-1.01
220.528	-1.01
220.997	-1
221.466	-1
221.935	-1
222.404	-0.99
222.873	-0.99
223.342	-0.98
223.812	-0.97
224.281	-0.96
224.749	-0.96
225.218	-0.95
225.687	-0.93
226.156	-0.92
226.625	-0.91
227.094	-0.89
227.563	-0.87
228.031	-0.86
228.5	-0.83
228.969	-0.81
229.438	-0.78
229.906	-0.75
230.375	-0.71
230.844	-0.68
231.312	-0.63
231.781	-0.59
232.249	-0.55
232.718	-0.5
233.186	-0.45
233.655	-0.4
234.123	-0.35
234.591	-0.3
235.06	-0.25
235.528	-0.2
235.996	-0.15
236.465	-0.11
236.933	-0.06
237.401	-0.02
237.869	0.02
238.337	0.06
238.805	0.1
239.274	0.14
239.742	0.17
240.21	0.21
240.678	0.24
241.146	0.27
241.614	0.29
242.081	0.32
242.549	0.34
243.017	0.36
243.485	0.38
243.953	0.4
244.421	0.42
244.888	0.44
245.356	0.45
245.824	0.47
246.291	0.48
246.759	0.5
247.227	0.51
247.694	0.52
248.162	0.53
248.629	0.54
249.097	0.55
249.564	0.56
250.032	0.57
250.499	0.58
250.967	0.59
251.434	0.6
251.901	0.6
252.369	0.61
252.836	0.62
253.303	0.62
253.77	0.63
254.237	0.63
254.705	0.64
255.172	0.65
255.639	0.65
256.106	0.65
256.573	0.66
257.04	0.66
257.507	0.67
257.974	0.67
258.441	0.67
258.908	0.67
259.375	0.68
259.841	0.68
260.308	0.68
260.775	0.68
261.242	0.68
261.709	0.68
262.175	0.69
262.642	0.69
263.109	0.69
263.575	0.69
264.042	0.69
264.508	0.69
264.975	0.69
265.441	0.69
265.908	0.69
266.374	0.69
266.841	0.69
267.307	0.69
267.773	0.69
268.24	0.69
268.706	0.69
269.172	0.69
269.639	0.69
270.105	0.69
270.571	0.68
271.037	0.68
271.503	0.68
271.969	0.68
272.435	0.68
272.902	0.68
273.368	0.68
273.834	0.68
274.3	0.67
274.765	0.67
275.231	0.67
275.697	0.67
276.163	0.67
276.629	0.67
277.095	0.66
277.56	0.66
278.026	0.66
278.492	0.65
278.958	0.65
279.423	0.65
279.889	0.65
280.354	0.65
280.82	0.64
281.286	0.64
281.751	0.64
282.217	0.64
282.682	0.64
283.147	0.64
283.613	0.64
284.078	0.64
284.544	0.64
285.009	0.63
285.474	0.63
285.939	0.63
286.405	0.63
286.87	0.63
287.335	0.62
287.8	0.62
288.265	0.62
288.73	0.62
289.195	0.62
289.66	0.62
290.125	0.62
290.59	0.61
291.055	0.61
291.52	0.61
291.985	0.61
292.45	0.61
292.915	0.61
293.38	0.61
293.844	0.6
294.309	0.6
294.774	0.6
295.239	0.6
295.703	0.6
296.168	0.6
296.632	0.6
297.097	0.6
297.562	0.6
298.026	0.59
298.491	0.59
298.955	0.59
299.419	0.59
299.884	0.59
300.348	0.59
300.813	0.59
301.277	0.59
301.741	0.59
302.205	0.59
302.67	0.59
303.134	0.59
303.598	0.59
304.062	0.58
304.526	0.58
304.99	0.58
305.454	0.58
305.919	0.58
306.383	0.58
306.847	0.58
307.31	0.58
307.774	0.58
308.238	0.58
308.702	0.58
309.166	0.58
309.63	0.58
310.094	0.58
310.557	0.57
311.021	0.57
311.485	0.57
311.948	0.57
312.412	0.57
312.876	0.57
313.339	0.57
313.803	0.57
314.266	0.57
314.73	0.57
315.193	0.57
315.657	0.57
316.12	0.57
316.584	0.56
317.047	0.56
317.51	0.56
317.973	0.56
318.437	0.56
318.9	0.56
319.363	0.56
319.826	0.56
320.29	0.56
320.753	0.56
321.216	0.55
321.679	0.55
322.142	0.55
322.605	0.55
323.068	0.55
323.531	0.55
323.994	0.55
324.457	0.55
324.92	0.55
325.382	0.55
325.845	0.55
326.308	0.54
326.771	0.54
327.233	0.54
327.696	0.54
328.159	0.54
328.622	0.54
329.084	0.54
329.547	0.54
330.009	0.54
330.472	0.54
330.934	0.54
331.397	0.53
331.859	0.53
332.322	0.53
332.784	0.53
333.246	0.53
333.709	0.53
334.171	0.53
334.633	0.53
335.096	0.53
335.558	0.53
336.02	0.53
336.482	0.52
336.944	0.52
337.406	0.52
337.868	0.52
338.331	0.52
338.793	0.52
339.255	0.52
339.717	0.52
340.178	0.52
340.64	0.52
341.102	0.52
341.564	0.51
342.026	0.51
342.488	0.51
342.949	0.51
343.411	0.51
343.873	0.51
344.335	0.51
344.796	0.51
345.258	0.51
345.719	0.51
346.181	0.51
346.643	0.51
347.104	0.5
347.566	0.5
348.027	0.5
348.488	0.5
348.95	0.5
349.411	0.5
349.873	0.5
350.334	0.5
350.795	0.5
351.256	0.5
351.718	0.5
352.179	0.49
352.64	0.49
353.101	0.49
353.562	0.49
354.023	0.49
354.484	0.49
354.945	0.49
355.406	0.49
355.867	0.48
356.328	0.48
356.789	0.48
357.25	0.48
357.711	0.48
358.172	0.48
358.633	0.48
359.093	0.48
359.554	0.48
360.015	0.48
360.476	0.49
360.936	0.49
361.397	0.49
361.858	0.49
362.318	0.49
362.779	0.49
363.239	0.49
363.7	0.49
364.16	0.49
364.621	0.49
365.081	0.49
365.541	0.49
366.002	0.49
366.462	0.49
366.922	0.49
367.383	0.49
367.843	0.48
368.303	0.48
368.763	0.48
369.223	0.48
369.684	0.48
370.144	0.48
370.604	0.48
371.064	0.48
371.524	0.48
371.984	0.48
372.444	0.48
372.904	0.48
373.363	0.48
373.823	0.48
374.283	0.48
374.743	0.48
375.203	0.48
375.663	0.48
376.122	0.48
376.582	0.48
377.042	0.48
377.501	0.48
377.961	0.48
378.42	0.48
378.88	0.48
379.34	0.48
379.799	0.48
380.259	0.48
380.718	0.48
381.177	0.48
381.637	0.48
382.096	0.48
382.555	0.48
383.015	0.48
383.474	0.48
383.933	0.48
384.393	0.48
384.852	0.48
385.311	0.48
385.77	0.48
386.229	0.48
386.688	0.48
387.147	0.48
387.606	0.48
388.065	0.48
388.524	0.48
388.983	0.48
389.442	0.48
389.901	0.48
390.36	0.48
390.819	0.48
391.277	0.48
391.736	0.48
392.195	0.48
392.654	0.48
393.112	0.48
393.571	0.48
394.03	0.48
394.488	0.48
394.947	0.48
395.405	0.48
395.864	0.48
396.322	0.48
396.781	0.48
397.239	0.48
397.698	0.48
398.156	0.48
398.614	0.48
399.073	0.48
399.531	0.48
399.989	0.48
400.447	0.48
400.905	0.48
401.364	0.47
401.822	0.47
402.28	0.47
402.738	0.47
403.196	0.47
403.654	0.47
404.112	0.47
404.57	0.47
405.028	0.47
405.486	0.47
405.944	0.47
406.402	0.47
406.859	0.47
407.317	0.47
407.775	0.47
408.233	0.47
408.691	0.47
409.148	0.47
409.606	0.46
410.064	0.46
410.521	0.46
410.979	0.46
411.436	0.46
411.894	0.46
412.351	0.46
412.809	0.46
413.266	0.46
413.724	0.46
414.181	0.46
414.638	0.46
415.096	0.46
415.553	0.46
416.01	0.46
416.467	0.46
416.925	0.46
417.382	0.46
417.839	0.46
418.296	0.46
418.753	0.46
419.21	0.46
419.667	0.46
420.124	0.46
420.581	0.46
421.038	0.46
421.495	0.46
421.952	0.46
422.409	0.46
422.866	0.46
423.322	0.46
423.779	0.46
424.236	0.46
424.693	0.46
425.149	0.46
425.606	0.46
426.063	0.46
426.519	0.45
426.976	0.45
427.433	0.45
427.889	0.46
428.346	0.46
428.802	0.46
429.258	0.46
429.715	0.46
430.171	0.46
430.628	0.46
431.084	0.46
431.54	0.46
431.997	0.46
432.453	0.46
432.909	0.45
433.365	0.45
433.821	0.45
434.277	0.45
434.734	0.45
435.19	0.45
435.646	0.45
436.102	0.45
436.558	0.45
437.014	0.45
437.47	0.45
437.925	0.45
438.381	0.45
438.837	0.45
439.293	0.45
439.749	0.45
440.205	0.45
440.66	0.45
441.116	0.45
441.572	0.45
442.027	0.45
442.483	0.45
442.939	0.45
443.394	0.45
443.85	0.45
444.305	0.45
444.761	0.45
445.216	0.45
445.672	0.45
446.127	0.45
446.582	0.45
447.038	0.45
447.493	0.45
447.948	0.44
448.403	0.44
448.859	0.44
449.314	0.44
449.769	0.44
450.224	0.44
450.679	0.44
451.134	0.44
451.589	0.44
452.044	0.44
452.499	0.44
452.954	0.44
453.409	0.44
453.864	0.44
454.319	0.43
454.774	0.43
455.229	0.43
455.684	0.43
456.138	0.43
456.593	0.43
457.048	0.43
457.503	0.43
457.957	0.43
458.412	0.43
458.866	0.43
459.321	0.43
459.776	0.43
460.23	0.43
460.685	0.43
461.139	0.43
461.593	0.43
462.048	0.43
462.502	0.43
462.957	0.43
463.411	0.43
463.865	0.43
464.319	0.43
464.774	0.43
465.228	0.43
465.682	0.43
466.136	0.43
466.59	0.43
467.044	0.43
467.499	0.43
467.953	0.42
468.407	0.42
468.861	0.42
469.315	0.42
469.768	0.42
470.222	0.42
470.676	0.41
471.13	0.41
471.584	0.41
472.038	0.41
472.491	0.41
472.945	0.42
473.399	0.42
473.852	0.42
474.306	0.42
474.76	0.42
475.213	0.42
475.667	0.42
476.12	0.42
476.574	0.42
477.027	0.42
477.481	0.42
477.934	0.42
478.388	0.42
478.841	0.42
479.294	0.42
479.748	0.42
480.201	0.42
480.654	0.43
481.107	0.43
481.561	0.43
482.014	0.43
482.467	0.43
482.92	0.43
483.373	0.43
483.826	0.44
484.279	0.44
484.732	0.44
485.185	0.44
485.638	0.45
486.091	0.45
486.544	0.45
486.997	0.45
487.449	0.45
487.902	0.45
488.355	0.45
488.808	0.44
489.26	0.44
489.713	0.44
490.166	0.44
490.618	0.44
491.071	0.44
491.523	0.44
491.976	0.44
492.429	0.44
492.881	0.44
493.333	0.44
493.786	0.44
494.238	0.45
494.691	0.45
495.143	0.45
495.595	0.45
496.048	0.45
496.5	0.46
496.952	0.46
497.404	0.46
497.856	0.46
498.309	0.46
498.761	0.46
499.213	0.46
499.665	0.46
500.117	0.46
500.569	0.47
501.021	0.47
501.473	0.47
501.925	0.47
502.377	0.47
502.828	0.48
503.28	0.48
503.732	0.48
504.184	0.48
504.636	0.48
505.087	0.48
505.539	0.48
505.991	0.48
506.442	0.49
506.894	0.49
507.345	0.49
507.797	0.49
508.249	0.49
508.7	0.49
509.151	0.49
509.603	0.49
510.054	0.49
510.506	0.49
510.957	0.49
511.408	0.49
511.86	0.5
512.311	0.5
512.762	0.5
513.213	0.5
513.665	0.49
514.116	0.49
514.567	0.49
515.018	0.49
515.469	0.49
515.92	0.49
516.371	0.5
516.822	0.5
517.273	0.5
517.724	0.5
518.175	0.5
518.626	0.5
519.076	0.49
519.527	0.49
519.978	0.49
520.429	0.49
520.88	0.48
521.33	0.48
521.781	0.48
522.232	0.48
522.682	0.48
523.133	0.48
523.583	0.48
524.034	0.49
524.484	0.49
524.935	0.5
525.385	0.5
525.836	0.51
526.286	0.51
526.736	0.52
527.187	0.52
527.637	0.53
528.087	0.53
528.538	0.54
528.988	0.54
529.438	0.54
529.888	0.54
530.338	0.54
530.788	0.54
531.238	0.55
531.688	0.55
532.139	0.55
532.589	0.55
533.038	0.55
533.488	0.56
533.938	0.56
534.388	0.56
534.838	0.56
535.288	0.56
535.738	0.56
536.187	0.56
536.637	0.57
537.087	0.57
537.537	0.57
537.986	0.57
538.436	0.57
538.885	0.57
539.335	0.57
539.785	0.57
540.234	0.57
540.684	0.57
541.133	0.57
541.582	0.58
542.032	0.58
542.481	0.58
542.931	0.58
543.38	0.58
543.829	0.58
544.278	0.58
544.728	0.58
545.177	0.58
545.626	0.59
546.075	0.59
546.524	0.59
546.973	0.59
547.422	0.59
547.871	0.59
548.32	0.59
548.769	0.59
549.218	0.59
549.667	0.59
550.116	0.59
550.565	0.59
551.014	0.59
551.463	0.59
551.911	0.59
552.36	0.59
552.809	0.59
553.258	0.6
553.706	0.6
554.155	0.6
554.603	0.6
555.052	0.6
555.501	0.6
555.949	0.6
556.398	0.59
556.846	0.59
557.294	0.59
557.743	0.59
558.191	0.59
558.64	0.59
559.088	0.59
559.536	0.59
559.985	0.6
560.433	0.6
560.881	0.6
561.329	0.6
561.777	0.61
562.225	0.61
562.674	0.61
563.122	0.61
563.57	0.61
564.018	0.61
564.466	0.6
564.914	0.6
565.362	0.6
565.809	0.6
566.257	0.6
566.705	0.61
567.153	0.61
567.601	0.61
568.048	0.62
568.496	0.62
568.944	0.63
569.392	0.63
569.839	0.64
570.287	0.64
570.734	0.65
571.182	0.65
571.63	0.65
572.077	0.66
572.525	0.66
572.972	0.66
573.419	0.66
573.867	0.66
574.314	0.66
574.761	0.66
575.209	0.67
575.656	0.67
576.103	0.67
576.551	0.67
576.998	0.67
577.445	0.67
577.892	0.67
578.339	0.67
578.786	0.67
579.233	0.67
579.68	0.67
580.127	0.67
580.574	0.67
581.021	0.67
581.468	0.66
581.915	0.66
582.362	0.66
582.809	0.66
583.255	0.66
583.702	0.66
584.149	0.66
584.596	0.65
585.042	0.65
585.489	0.64
585.936	0.64
586.382	0.64
586.829	0.64
587.275	0.64
587.722	0.63
588.168	0.63
588.615	0.62
589.061	0.62
589.508	0.62
589.954	0.61
590.4	0.61
590.847	0.61
591.293	0.61
591.739	0.61
592.185	0.61
592.632	0.6
593.078	0.6
593.524	0.6
593.97	0.6
594.416	0.6
594.862	0.6
595.308	0.59
595.754	0.59
596.2	0.59
596.646	0.59
597.092	0.59
597.538	0.59
597.984	0.59
598.43	0.59
598.876	0.59
599.321	0.59
599.767	0.58
600.213	0.58
600.659	0.58
601.104	0.58
601.55	0.57
601.995	0.57
602.441	0.57
602.887	0.56
603.332	0.56
603.778	0.56
604.223	0.56
604.668	0.56
605.114	0.56
605.559	0.56
606.005	0.56
606.45	0.55
606.895	0.55
607.341	0.55
607.786	0.55
608.231	0.54
608.676	0.54
609.121	0.54
609.566	0.53
610.012	0.53
610.457	0.53
610.902	0.52
611.347	0.52
611.792	0.52
612.237	0.52
612.682	0.52
613.127	0.52
613.571	0.52
614.016	0.52
614.461	0.51
614.906	0.51
615.351	0.51
615.795	0.51
616.24	0.5
616.685	0.5
617.129	0.5
617.574	0.49
618.019	0.49
618.463	0.49
618.908	0.48
619.352	0.48
619.797	0.48
620.241	0.48
620.686	0.48
621.13	0.48
621.574	0.48
622.019	0.48
622.463	0.48
622.907	0.47
623.352	0.47
623.796	0.47
624.24	0.47
624.684	0.47
625.128	0.47
625.572	0.47
626.016	0.47
626.461	0.46
626.905	0.46
627.349	0.46
627.793	0.46
628.236	0.46
628.68	0.46
629.124	0.46
629.568	0.46
630.012	0.46
630.456	0.46
630.9	0.45
631.343	0.45
631.787	0.45
632.231	0.45
632.674	0.45
633.118	0.45
633.562	0.45
634.005	0.45
634.449	0.45
634.892	0.45
635.336	0.45
635.779	0.45
636.223	0.45
636.666	0.45
637.109	0.45
637.553	0.45
637.996	0.45
638.439	0.45
638.883	0.45
639.326	0.45
639.769	0.45
640.212	0.46
640.655	0.46
641.099	0.46
641.542	0.46
641.985	0.46
642.428	0.46
642.871	0.46
643.314	0.46
643.757	0.46
644.2	0.47
644.643	0.47
645.085	0.47
645.528	0.47
645.971	0.47
646.414	0.48
646.857	0.48
647.299	0.48
647.742	0.48
648.185	0.49
648.627	0.49
649.07	0.49
649.513	0.5
649.955	0.5
650.398	0.5
650.84	0.5
651.283	0.51
651.725	0.51
652.168	0.51
652.61	0.51
653.052	0.52
653.495	0.52
653.937	0.45
654.379	0.42
654.821	0.43
655.264	0.43
655.706	0.44
656.148	0.44
656.59	0.44
657.032	0.44
657.474	0.45
657.916	0.44
658.358	0.44
658.8	0.5
659.242	0.56
659.684	0.56
660.126	0.56
660.568	0.56
661.01	0.57
661.452	0.57
661.894	0.57
662.335	0.57
662.777	0.58
663.219	0.58
663.661	0.58
664.102	0.59
664.544	0.59
664.985	0.59
665.427	0.6
665.869	0.6
666.31	0.6
666.752	0.61
667.193	0.61
667.634	0.61
668.076	0.61
668.517	0.62
668.959	0.62
669.4	0.63
669.841	0.63
670.282	0.64
670.724	0.64
671.165	0.64
671.606	0.65
672.047	0.65
672.488	0.65
672.929	0.65
673.37	0.66
673.811	0.66
674.252	0.66
674.693	0.66
675.134	0.66
675.575	0.66
676.016	0.66
676.457	0.66
676.898	0.67
677.339	0.67
677.78	0.67
678.22	0.67
678.661	0.68
679.102	0.68
679.542	0.68
679.983	0.68
680.424	0.68
680.864	0.68
681.305	0.69
681.745	0.69
682.186	0.69
682.626	0.69
683.067	0.69
683.507	0.7
683.948	0.7
684.388	0.7
684.828	0.7
685.269	0.7
685.709	0.71
686.149	0.71
686.589	0.71
687.029	0.71
687.47	0.71
687.91	0.71
688.35	0.71
688.79	0.71
689.23	0.71
689.67	0.71
690.11	0.71
690.55	0.71
690.99	0.72
691.43	0.72
691.87	0.72
692.31	0.72
692.749	0.72
693.189	0.72
693.629	0.72
694.069	0.72
694.508	0.72
694.948	0.72
695.388	0.72
695.827	0.73
696.267	0.73
696.706	0.73
697.146	0.73
697.586	0.73
698.025	0.73
698.464	0.72
698.904	0.72
699.343	0.72
699.783	0.72
700.222	0.72
700.661	0.72
701.101	0.72
701.54	0.72
701.979	0.72
702.418	0.72
702.857	0.72
703.297	0.72
703.736	0.71
704.175	0.71
704.614	0.72
705.053	0.72
705.492	0.72
705.931	0.72
706.37	0.72
706.809	0.72
707.248	0.71
707.687	0.71
708.125	0.71
708.564	0.71
709.003	0.71
709.442	0.71
709.88	0.71
710.319	0.7
710.758	0.7
711.196	0.7
711.635	0.7
712.074	0.7
712.512	0.69
712.951	0.69
713.389	0.69
713.828	0.69
714.266	0.69
714.705	0.69
715.143	0.68
715.581	0.68
716.02	0.68
716.458	0.68
716.896	0.67
717.334	0.67
717.773	0.67
718.211	0.67
718.649	0.67
719.087	0.67
719.525	0.66
719.963	0.66
720.401	0.66
720.839	0.66
721.277	0.65
721.715	0.65
722.153	0.65
722.591	0.65
723.029	0.64
723.467	0.64
723.905	0.64
724.342	0.64
724.78	0.64
725.218	0.63
725.656	0.63
726.093	0.63
726.531	0.63
726.969	0.63
727.406	0.63
727.844	0.62
728.281	0.62
728.719	0.62
729.156	0.62
729.594	0.62
730.031	0.62
730.469	0.62
730.906	0.61
731.343	0.61
731.781	0.61
732.218	0.61
732.655	0.61
733.092	0.61
733.53	0.6
733.967	0.6
734.404	0.6
734.841	0.6
735.278	0.6
735.715	0.59
736.152	0.59
736.589	0.59
737.026	0.58
737.463	0.58
737.9	0.58
738.337	0.58
738.774	0.57
739.211	0.57
739.647	0.57
740.084	0.56
740.521	0.56
740.958	0.56
741.394	0.55
741.831	0.55
742.268	0.54
742.704	0.54
743.141	0.53
743.577	0.53
744.014	0.52
744.45	0.52
744.887	0.51
745.323	0.51
745.76	0.51
746.196	0.5
746.632	0.5
747.069	0.5
747.505	0.5
747.941	0.5
748.378	0.5
748.814	0.5
749.25	0.5
749.686	0.5
750.122	0.5
750.558	0.5
750.994	0.49
751.43	0.49
751.866	0.49
752.302	0.49
752.738	0.49
753.174	0.49
753.61	0.49
754.046	0.49
754.482	0.49
754.918	0.49
755.354	0.49
755.789	0.49
756.225	0.48
756.661	0.48
757.096	0.48
757.532	0.48
757.968	0.48
758.403	0.47
758.839	0.47
759.274	0.47
759.71	0.46
760.145	0.46
760.581	0.45
761.016	0.45
761.452	0.44
761.887	0.44
762.322	0.44
762.758	0.43
763.193	0.43
763.628	0.42
764.063	0.42
764.499	0.41
764.934	0.41
765.369	0.4
765.804	0.4
766.239	0.4
766.674	0.39
767.109	0.39
767.544	0.38
767.979	0.37
768.414	0.37
768.849	0.36
769.284	0.36
769.719	0.36
770.154	0.35
770.588	0.35
771.023	0.34
771.458	0.33
771.893	0.33
772.327	0.32
772.762	0.31
773.197	0.31
773.631	0.3
774.066	0.29
774.5	0.28
774.935	0.28
775.369	0.27
775.804	0.26
776.238	0.25
776.673	0.25
777.107	0.24
777.541	0.23
777.976	0.22
778.41	0.21
778.844	0.2
779.279	0.19
779.713	0.19
780.147	0.18
780.581	0.17
781.015	0.15
781.449	0.14
781.883	0.13
782.317	0.11
782.751	0.1
783.185	0.08
783.619	0.06
784.053	0.05
784.487	0.03
784.921	0.01
785.355	-0.01
785.789	-0.02
786.223	-0.03
786.656	-0.03
787.09	-0.04
787.524	-0.04
787.957	-0.05
788.391	-0.05
788.825	-0.06
789.258	-0.06
789.692	-0.06
790.125	-0.05
790.559	-0.05
790.992	-0.06
791.426	-0.06
791.859	-0.05
792.293	-0.05
792.726	-0.04
793.159	-0.04
793.593	-0.04
794.026	-0.04
794.459	-0.04
794.892	-0.04
795.326	-0.04
795.759	-0.05
796.192	-0.05
796.625	-0.06
797.058	-0.06
797.491	-0.07
797.924	-0.08
798.357	-0.08
798.79	-0.08
799.223	-0.08
799.656	-0.08
800.089	-0.08
800.522	-0.08
800.955	-0.09
801.387	-0.09
801.82	-0.09
802.253	-0.09
802.686	-0.09
803.118	-0.09
803.551	-0.09
803.984	-0.08
804.416	-0.08
804.849	-0.07
805.281	-0.07
805.714	-0.07
806.146	-0.07
806.579	-0.07
807.011	-0.07
807.444	-0.07
807.876	-0.06
808.308	-0.07
808.741	-0.07
809.173	-0.07
809.605	-0.08
810.037	-0.08
810.47	-0.08
810.902	-0.08
811.334	-0.08
811.766	-0.08
812.198	-0.08
812.63	-0.08
813.062	-0.08
813.494	-0.08
813.926	-0.08
814.358	-0.08
814.79	-0.07
815.222	-0.07
815.654	-0.07
816.086	-0.07
816.518	-0.08
816.949	-0.08
817.381	-0.08
817.813	-0.08
818.245	-0.07
818.676	-0.07
819.108	-0.06
819.54	-0.05
819.971	-0.05
820.403	-0.04
820.834	-0.02
821.266	-0.01
821.697	0
822.129	0.02
822.56	0.04
822.991	0.05
823.423	0.06
823.854	0.07
824.286	0.09
824.717	0.1
825.148	0.11
825.579	0.13
826.01	0.14
826.442	0.15
826.873	0.15
827.304	0.16
827.735	0.17
828.166	0.18
828.597	0.18
829.028	0.19
829.459	0.19
829.89	0.2
830.321	0.2
830.752	0.21
831.183	0.21
831.613	0.21
832.044	0.22
832.475	0.22
832.906	0.22
833.336	0.23
833.767	0.23
834.198	0.23
834.628	0.24
835.059	0.24
835.49	0.24
835.92	0.24
836.351	0.24
836.781	0.25
837.212	0.25
837.642	0.25
838.072	0.25
838.503	0.25
838.933	0.25
839.364	0.25
839.794	0.25
840.224	0.25
840.654	0.25
841.085	0.25
841.515	0.25
841.945	0.25
842.375	0.25
842.805	0.25
843.235	0.25
843.665	0.25
844.095	0.25
844.525	0.25
844.955	0.25
845.385	0.25
845.815	0.25
846.245	0.25
846.675	0.25
847.105	0.25
847.534	0.25
847.964	0.25
848.394	0.25
848.824	0.25
849.253	0.25
849.683	0.25
850.112	0.25
850.542	0.25
850.972	0.25
851.401	0.25
851.831	0.25
852.26	0.25
852.69	0.26
853.119	0.25
853.548	0.25
853.978	0.25
854.407	0.25
854.836	0.25
855.266	0.25
855.695	0.25
856.124	0.25
856.553	0.25
856.983	0.25
857.412	0.25
857.841	0.25
858.27	0.24
858.699	0.24
859.128	0.24
859.557	0.24
859.986	0.24
860.415	0.24
860.844	0.24
861.273	0.24
861.702	0.24
862.13	0.24
862.559	0.24
862.988	0.24
863.417	0.24
863.845	0.24
864.274	0.24
864.703	0.24
865.131	0.24
865.56	0.24
865.989	0.24
866.417	0.24
866.846	0.23
867.274	0.23
867.703	0.23
868.131	0.23
868.559	0.23
868.988	0.23
869.416	0.23
869.844	0.23
870.273	0.23
870.701	0.23
871.129	0.23
871.557	0.23
871.986	0.23
872.414	0.23
872.842	0.23
873.27	0.23
873.698	0.23
874.126	0.23
874.554	0.23
874.982	0.23
875.41	0.22
875.838	0.22
876.266	0.22
876.694	0.22
877.122	0.22
877.549	0.22
877.977	0.22
878.405	0.22
878.833	0.22
879.26	0.22
879.688	0.22
880.116	0.22
880.543	0.22
880.971	0.22
881.399	0.22
881.826	0.22
882.254	0.22
882.681	0.22
883.109	0.22
883.536	0.22
883.963	0.22
884.391	0.22
884.818	0.22
885.245	0.22
885.673	0.22
886.1	0.22
886.527	0.22
886.954	0.22
887.381	0.22
887.809	0.22
888.236	0.22
888.663	0.22
889.09	0.22
889.517	0.22
889.944	0.22
890.371	0.22
890.798	0.22
891.225	0.22
891.652	0.22
892.078	0.21
892.505	0.21
892.932	0.21
893.359	0.21
893.786	0.21
894.212	0.21
894.639	0.21
895.066	0.21
895.492	0.21
895.919	0.21
896.346	0.21
896.772	0.21
897.199	0.21
897.625	0.21
898.052	0.21
898.478	0.21
898.904	0.21
899.331	0.21
899.757	0.21
900.183	0.21
900.61	0.21
901.036	0.21
901.462	0.21
901.888	0.21
902.315	0.21
902.741	0.21
903.167	0.21
903.593	0.21
904.019	0.21
904.445	0.21
904.871	0.21
905.297	0.2
905.723	0.2
906.149	0.2
906.575	0.2
907.001	0.2
907.427	0.2
907.852	0.2
908.278	0.2
908.704	0.2
909.13	0.2
909.555	0.2
909.981	0.2
910.407	0.2
910.832	0.2
911.258	0.2
911.684	0.2
912.109	0.2
912.535	0.2
912.96	0.2
913.386	0.2
913.811	0.2
914.236	0.2
914.662	0.2
915.087	0.2
915.512	0.2
915.938	0.2
916.363	0.2
916.788	0.2
917.213	0.2
917.639	0.2
918.064	0.2
918.489	0.2
918.914	0.2
919.339	0.2
919.764	0.19
920.189	0.19
920.614	0.19
921.039	0.19
921.464	0.19
921.889	0.19
922.314	0.19
922.738	0.19
923.163	0.19
923.588	0.19
924.013	0.19
924.437	0.19
924.862	0.19
925.287	0.19
925.711	0.19
926.136	0.19
926.561	0.19
926.985	0.19
927.41	0.19
927.834	0.19
928.259	0.19
928.683	0.19
929.108	0.19
929.532	0.19
929.956	0.18
930.381	0.18
930.805	0.18
931.229	0.18
931.653	0.18
932.078	0.18
932.502	0.18
932.926	0.17
933.35	0.17
933.774	0.17
934.198	0.17
934.622	0.17
935.046	0.17
935.47	0.17
935.894	0.17
936.318	0.17
936.742	0.17
937.166	0.17
937.59	0.17
938.014	0.17
938.437	0.17
938.861	0.17
939.285	0.17
939.709	0.17
940.132	0.17
940.556	0.17
940.98	0.17
941.403	0.17
941.827	0.17
942.25	0.17
942.674	0.17
943.097	0.17
943.521	0.17
943.944	0.17
944.368	0.17
944.791	0.17
945.214	0.17
945.638	0.17
946.061	0.17
946.484	0.17
946.907	0.17
947.331	0.17
947.754	0.17
948.177	0.17
948.6	0.16
949.023	0.16
949.446	0.16
949.869	0.16
950.292	0.16
950.715	0.16
951.138	0.16
951.561	0.16
951.984	0.16
952.407	0.16
952.83	0.16
953.252	0.16
953.675	0.16
954.098	0.16
954.521	0.16
954.943	0.16
955.366	0.16
955.789	0.16
956.211	0.16
956.634	0.16
957.056	0.16
957.479	0.16
957.902	0.16
958.324	0.16
958.746	0.16
959.169	0.16
959.591	0.16
960.014	0.16
960.436	0.16
960.858	0.16
961.281	0.16
961.703	0.16
962.125	0.16
962.547	0.16
962.969	0.16
963.391	0.16
963.814	0.16
964.236	0.16
964.658	0.16
965.08	0.16
965.502	0.16
965.924	0.16
966.346	0.16
966.768	0.16
967.189	0.16
967.611	0.16
968.033	0.16
968.455	0.16
968.877	0.16
969.298	0.15
969.72	0.15
970.142	0.15
970.563	0.15
970.985	0.15
971.407	0.15
971.828	0.15
972.25	0.15
972.671	0.15
973.093	0.15
973.514	0.15
973.936	0.15
974.357	0.15
974.778	0.15
975.2	0.15
975.621	0.15
976.042	0.15
976.464	0.15
976.885	0.15
977.306	0.15
977.727	0.15
978.148	0.15
978.57	0.15
978.991	0.15
979.412	0.15
979.833	0.15
980.254	0.15
980.675	0.15
981.096	0.15
981.517	0.14
981.937	0.14
982.358	0.14
982.779	0.14
983.2	0.14
983.621	0.14
984.042	0.14
984.462	0.14
984.883	0.14
985.304	0.14
985.724	0.14
986.145	0.14
986.565	0.14
986.986	0.14
987.407	0.14
987.827	0.14
988.248	0.14
988.668	0.14
989.088	0.14
989.509	0.14
989.929	0.14
990.35	0.14
990.77	0.14
991.19	0.14
991.61	0.14
992.031	0.14
992.451	0.14
992.871	0.14
993.291	0.13
993.711	0.13
994.131	0.13
994.551	0.13
994.971	0.13
995.391	0.13
995.811	0.13
996.231	0.13
996.651	0.13
997.071	0.13
997.491	0.13
997.911	0.13
998.331	0.13
998.75	0.13
999.17	0.13
999.59	0.13
1000.009	0.13
1000.429	0.13
1000.849	0.13
1001.268	0.13
1001.688	0.13
1002.107	0.13
1002.527	0.13
1002.946	0.13
1003.366	0.13
1003.785	0.13
1004.205	0.13
1004.624	0.13
1005.044	0.13
1005.463	0.13
1005.882	0.13
1006.301	0.13
1006.721	0.13
1007.14	0.13
1007.559	0.13
1007.978	0.13
1008.397	0.13
1008.816	0.13
1009.235	0.13
1009.655	0.13
1010.074	0.13
1010.492	0.13
1010.911	0.13
1011.33	0.12
1011.749	0.12
1012.168	0.12
1012.587	0.12
1013.006	0.12
1013.425	0.12
1013.843	0.12
1014.262	0.12
1014.681	0.12
1015.099	0.12
1015.518	0.12
1015.937	0.12
1016.355	0.12
1016.774	0.12
1017.192	0.12
1017.611	0.12
1018.029	0.12
1018.448	0.12
1018.866	0.12
1019.285	0.12
1019.703	0.12
1020.121	0.12
1020.54	0.12
1020.958	0.12
1021.376	0.12
1021.794	0.12
1022.213	0.12
1022.631	0.13
1023.049	0.13
1023.467	0.13
1023.885	0.13
1024.303	0.13
1024.721	0.13
1025.139	0.13
1025.557	0.13
1025.975	0.13
1026.393	0.13
1026.811	0.13
1027.229	0.13
1027.647	0.13
1028.065	0.13
1028.482	0.13
1028.9	0.13
1029.318	0.13
1029.735	0.13
1030.153	0.14
1030.571	0.14
1030.988	0.14
1031.406	0.14
1031.823	0.14
1032.241	0.14
1032.659	0.14
1033.076	0.14
1033.493	0.14
1033.911	0.14
1034.328	0.13
1034.746	0.13
1035.163	0.13
1035.58	0.13
1035.997	0.13
1036.415	0.13
1036.832	0.13
1037.249	0.13
1037.666	0.13
1038.083	0.13
1038.501	0.13
1038.918	0.13
1039.335	0.13
1039.752	0.13
1040.169	0.13
1040.586	0.13
1041.003	0.13
1041.419	0.13
1041.836	0.13
1042.253	0.13
1042.67	0.13
1043.087	0.13
1043.504	0.13
1043.92	0.13
1044.337	0.13
1044.754	0.13
1045.17	0.13
1045.587	0.13
1046.004	0.13
1046.42	0.13
1046.837	0.13
1047.253	0.13
1047.67	0.13
1048.086	0.13
1048.503	0.13
1048.919	0.13
1049.335	0.13
1049.752	0.13
1050.168	0.13
1050.584	0.13
1051.001	0.13
1051.417	0.13
1051.833	0.13
1052.249	0.13
1052.665	0.13
1053.081	0.13
1053.497	0.13
1053.914	0.13
1054.33	0.13
1054.746	0.13
1055.162	0.13
1055.578	0.13
1055.993	0.13
1056.409	0.13
1056.825	0.13
1057.241	0.13
1057.657	0.13
1058.073	0.13
1058.488	0.13
1058.904	0.13
1059.32	0.13
1059.736	0.13
1060.151	0.13
1060.567	0.13
1060.982	0.13
1061.398	0.13
1061.813	0.13
1062.229	0.13
1062.644	0.13
1063.06	0.13
1063.475	0.13
1063.891	0.13
1064.306	0.13
1064.721	0.13
1065.137	0.13
1065.552	0.13
1065.967	0.13
1066.382	0.13
1066.798	0.13
1067.213	0.13
1067.628	0.14
1068.043	0.14
1068.458	0.14
1068.873	0.14
1069.288	0.14
1069.703	0.14
1070.118	0.14
1070.533	0.14
1070.948	0.14
1071.363	0.14
1071.778	0.14
1072.193	0.14
1072.607	0.14
1073.022	0.14
1073.437	0.14
1073.852	0.14
1074.266	0.15
1074.681	0.15
1075.096	0.15
1075.51	0.15
1075.925	0.15
1076.339	0.15
1076.754	0.15
1077.168	0.15
1077.583	0.15
1077.997	0.15
1078.412	0.15
1078.826	0.15
1079.24	0.15
1079.655	0.15
1080.069	0.15
1080.483	0.15
1080.897	0.15
1081.312	0.16
1081.726	0.16
1082.14	0.16
1082.554	0.16
1082.968	0.16
1083.382	0.16
1083.796	0.17
1084.21	0.17
1084.624	0.17
1085.038	0.17
1085.452	0.18
1085.866	0.18
1086.28	0.18
1086.694	0.18
1087.108	0.18
1087.521	0.19
1087.935	0.19
1088.349	0.19
1088.763	0.19
1089.176	0.2
1089.59	0.2
1090.004	0.21
1090.417	0.21
1090.831	0.21
1091.244	0.22
1091.658	0.23
1092.071	0.23
1092.485	0.24
1092.898	0.25
1093.312	0.25
1093.725	0.26
1094.138	0.27
1094.552	0.28
1094.965	0.29
1095.378	0.3
1095.791	0.31
1096.205	0.32
1096.618	0.33
1097.031	0.34
1097.444	0.36
1097.857	0.37
1098.27	0.39
1098.683	0.4
1099.096	0.42
1099.509	0.44
1099.922	0.47
1100.335	0.49
1100.748	0.52
1101.161	0.56
1101.574	0.6
1101.986	0.65
1102.399	0.7
1102.812	0.77
1103.225	0.86
1103.637	0.98
1104.05	1.15
1104.463	1.46
1104.875	-0
1105.288	-0
1105.7	-0
1106.113	-0
1106.525	-0
1106.938	-0
1107.35	-0
1107.763	-0
1108.175	-0
1108.588	-0
1109	-0
1109.412	-0
1109.824	-0
1110.237	-0
1110.649	-0
1111.061	-0
