Data from unagg-15c-2a-1h_Absorbance__1301__01728.txt Node

Date: Mon May 06 10:16:06 CEST 2024
User: Laser008
Spectrometer: MAYP115816
Trigger mode: 0
Integration Time (sec): 2.000000E-1
Scans to average: 10
Electric dark correction enabled: true
Nonlinearity correction enabled: true
Boxcar width: 5
XAxis mode: Wavelengths
Number of Pixels in Spectrum: 2068
>>>>>Begin Spectral Data<<<<<
198.914	-1.79
199.384	-1.65
199.855	-1.51
200.325	-1.39
200.796	-1.31
201.266	-1.26
201.737	-1.19
202.207	-1.13
202.677	-1.08
203.147	-1.03
203.618	-1.01
204.088	-0.98
204.558	-0.96
205.028	-0.95
205.498	-0.95
205.968	-0.95
206.439	-0.94
206.909	-0.94
207.379	-0.94
207.849	-0.94
208.319	-0.93
208.789	-0.93
209.258	-0.93
209.728	-0.93
210.198	-0.92
210.668	-0.92
211.138	-0.93
211.608	-0.92
212.077	-0.92
212.547	-0.92
213.017	-0.92
213.486	-0.92
213.956	-0.92
214.426	-0.92
214.895	-0.92
215.365	-0.92
215.834	-0.92
216.304	-0.91
216.773	-0.91
217.243	-0.91
217.712	-0.91
218.181	-0.91
218.651	-0.9
219.12	-0.9
219.589	-0.9
220.058	-0.9
220.528	-0.9
220.997	-0.89
221.466	-0.89
221.935	-0.89
222.404	-0.88
222.873	-0.88
223.342	-0.87
223.812	-0.87
224.281	-0.86
224.749	-0.85
225.218	-0.84
225.687	-0.83
226.156	-0.82
226.625	-0.8
227.094	-0.79
227.563	-0.77
228.031	-0.76
228.5	-0.73
228.969	-0.71
229.438	-0.68
229.906	-0.65
230.375	-0.62
230.844	-0.59
231.312	-0.55
231.781	-0.51
232.249	-0.47
232.718	-0.43
233.186	-0.38
233.655	-0.34
234.123	-0.3
234.591	-0.26
235.06	-0.22
235.528	-0.18
235.996	-0.14
236.465	-0.11
236.933	-0.07
237.401	-0.04
237.869	-0.01
238.337	0.02
238.805	0.04
239.274	0.07
239.742	0.09
240.21	0.11
240.678	0.13
241.146	0.15
241.614	0.16
242.081	0.18
242.549	0.19
243.017	0.21
243.485	0.22
243.953	0.23
244.421	0.24
244.888	0.25
245.356	0.26
245.824	0.27
246.291	0.28
246.759	0.29
247.227	0.29
247.694	0.3
248.162	0.31
248.629	0.31
249.097	0.32
249.564	0.33
250.032	0.33
250.499	0.34
250.967	0.34
251.434	0.35
251.901	0.36
252.369	0.36
252.836	0.37
253.303	0.37
253.77	0.37
254.237	0.38
254.705	0.38
255.172	0.38
255.639	0.39
256.106	0.39
256.573	0.39
257.04	0.4
257.507	0.4
257.974	0.4
258.441	0.4
258.908	0.4
259.375	0.4
259.841	0.41
260.308	0.41
260.775	0.41
261.242	0.41
261.709	0.41
262.175	0.41
262.642	0.41
263.109	0.41
263.575	0.41
264.042	0.41
264.508	0.4
264.975	0.4
265.441	0.4
265.908	0.4
266.374	0.4
266.841	0.4
267.307	0.4
267.773	0.4
268.24	0.39
268.706	0.39
269.172	0.39
269.639	0.39
270.105	0.38
270.571	0.38
271.037	0.38
271.503	0.38
271.969	0.37
272.435	0.37
272.902	0.37
273.368	0.36
273.834	0.36
274.3	0.36
274.765	0.35
275.231	0.35
275.697	0.35
276.163	0.34
276.629	0.34
277.095	0.34
277.56	0.33
278.026	0.33
278.492	0.33
278.958	0.32
279.423	0.32
279.889	0.32
280.354	0.31
280.82	0.31
281.286	0.31
281.751	0.3
282.217	0.3
282.682	0.3
283.147	0.29
283.613	0.29
284.078	0.29
284.544	0.29
285.009	0.28
285.474	0.28
285.939	0.28
286.405	0.27
286.87	0.27
287.335	0.27
287.8	0.27
288.265	0.26
288.73	0.26
289.195	0.26
289.66	0.26
290.125	0.25
290.59	0.25
291.055	0.25
291.52	0.25
291.985	0.25
292.45	0.25
292.915	0.24
293.38	0.24
293.844	0.24
294.309	0.24
294.774	0.24
295.239	0.24
295.703	0.24
296.168	0.23
296.632	0.23
297.097	0.23
297.562	0.23
298.026	0.23
298.491	0.23
298.955	0.23
299.419	0.23
299.884	0.23
300.348	0.23
300.813	0.23
301.277	0.23
301.741	0.23
302.205	0.23
302.67	0.22
303.134	0.22
303.598	0.22
304.062	0.22
304.526	0.22
304.99	0.22
305.454	0.22
305.919	0.22
306.383	0.22
306.847	0.22
307.31	0.22
307.774	0.22
308.238	0.22
308.702	0.22
309.166	0.22
309.63	0.22
310.094	0.22
310.557	0.22
311.021	0.22
311.485	0.22
311.948	0.22
312.412	0.22
312.876	0.22
313.339	0.22
313.803	0.22
314.266	0.22
314.73	0.22
315.193	0.22
315.657	0.22
316.12	0.22
316.584	0.22
317.047	0.22
317.51	0.22
317.973	0.22
318.437	0.22
318.9	0.22
319.363	0.22
319.826	0.22
320.29	0.22
320.753	0.22
321.216	0.21
321.679	0.21
322.142	0.21
322.605	0.21
323.068	0.21
323.531	0.21
323.994	0.21
324.457	0.21
324.92	0.21
325.382	0.21
325.845	0.21
326.308	0.21
326.771	0.21
327.233	0.21
327.696	0.21
328.159	0.21
328.622	0.21
329.084	0.21
329.547	0.21
330.009	0.21
330.472	0.21
330.934	0.21
331.397	0.21
331.859	0.21
332.322	0.21
332.784	0.21
333.246	0.21
333.709	0.21
334.171	0.21
334.633	0.21
335.096	0.21
335.558	0.21
336.02	0.21
336.482	0.2
336.944	0.2
337.406	0.2
337.868	0.2
338.331	0.2
338.793	0.2
339.255	0.2
339.717	0.2
340.178	0.2
340.64	0.2
341.102	0.2
341.564	0.2
342.026	0.2
342.488	0.2
342.949	0.2
343.411	0.2
343.873	0.2
344.335	0.2
344.796	0.2
345.258	0.2
345.719	0.2
346.181	0.2
346.643	0.2
347.104	0.2
347.566	0.2
348.027	0.2
348.488	0.2
348.95	0.2
349.411	0.2
349.873	0.2
350.334	0.2
350.795	0.2
351.256	0.2
351.718	0.2
352.179	0.19
352.64	0.19
353.101	0.19
353.562	0.19
354.023	0.19
354.484	0.19
354.945	0.19
355.406	0.19
355.867	0.19
356.328	0.19
356.789	0.19
357.25	0.19
357.711	0.19
358.172	0.19
358.633	0.19
359.093	0.19
359.554	0.19
360.015	0.19
360.476	0.19
360.936	0.19
361.397	0.19
361.858	0.19
362.318	0.19
362.779	0.19
363.239	0.19
363.7	0.19
364.16	0.19
364.621	0.19
365.081	0.19
365.541	0.19
366.002	0.19
366.462	0.19
366.922	0.19
367.383	0.19
367.843	0.19
368.303	0.19
368.763	0.19
369.223	0.19
369.684	0.19
370.144	0.19
370.604	0.19
371.064	0.19
371.524	0.19
371.984	0.19
372.444	0.19
372.904	0.19
373.363	0.19
373.823	0.19
374.283	0.19
374.743	0.19
375.203	0.19
375.663	0.19
376.122	0.19
376.582	0.19
377.042	0.19
377.501	0.19
377.961	0.19
378.42	0.19
378.88	0.19
379.34	0.19
379.799	0.19
380.259	0.19
380.718	0.19
381.177	0.19
381.637	0.19
382.096	0.19
382.555	0.19
383.015	0.19
383.474	0.19
383.933	0.19
384.393	0.19
384.852	0.19
385.311	0.19
385.77	0.19
386.229	0.19
386.688	0.19
387.147	0.19
387.606	0.19
388.065	0.19
388.524	0.19
388.983	0.19
389.442	0.19
389.901	0.19
390.36	0.19
390.819	0.19
391.277	0.19
391.736	0.19
392.195	0.19
392.654	0.19
393.112	0.19
393.571	0.19
394.03	0.19
394.488	0.19
394.947	0.19
395.405	0.19
395.864	0.19
396.322	0.19
396.781	0.19
397.239	0.19
397.698	0.19
398.156	0.19
398.614	0.19
399.073	0.19
399.531	0.19
399.989	0.19
400.447	0.19
400.905	0.19
401.364	0.19
401.822	0.19
402.28	0.19
402.738	0.19
403.196	0.19
403.654	0.19
404.112	0.19
404.57	0.19
405.028	0.19
405.486	0.19
405.944	0.19
406.402	0.19
406.859	0.19
407.317	0.19
407.775	0.19
408.233	0.19
408.691	0.19
409.148	0.19
409.606	0.19
410.064	0.19
410.521	0.19
410.979	0.19
411.436	0.19
411.894	0.19
412.351	0.19
412.809	0.19
413.266	0.19
413.724	0.19
414.181	0.19
414.638	0.19
415.096	0.19
415.553	0.19
416.01	0.19
416.467	0.19
416.925	0.19
417.382	0.19
417.839	0.19
418.296	0.19
418.753	0.19
419.21	0.19
419.667	0.19
420.124	0.19
420.581	0.19
421.038	0.19
421.495	0.19
421.952	0.19
422.409	0.19
422.866	0.19
423.322	0.19
423.779	0.19
424.236	0.19
424.693	0.19
425.149	0.19
425.606	0.19
426.063	0.19
426.519	0.19
426.976	0.19
427.433	0.19
427.889	0.19
428.346	0.19
428.802	0.19
429.258	0.19
429.715	0.19
430.171	0.19
430.628	0.19
431.084	0.19
431.54	0.19
431.997	0.19
432.453	0.19
432.909	0.19
433.365	0.19
433.821	0.19
434.277	0.19
434.734	0.19
435.19	0.19
435.646	0.19
436.102	0.19
436.558	0.19
437.014	0.19
437.47	0.19
437.925	0.19
438.381	0.19
438.837	0.19
439.293	0.19
439.749	0.19
440.205	0.19
440.66	0.19
441.116	0.19
441.572	0.19
442.027	0.19
442.483	0.19
442.939	0.19
443.394	0.19
443.85	0.19
444.305	0.19
444.761	0.19
445.216	0.19
445.672	0.19
446.127	0.19
446.582	0.19
447.038	0.19
447.493	0.19
447.948	0.19
448.403	0.19
448.859	0.19
449.314	0.19
449.769	0.19
450.224	0.19
450.679	0.19
451.134	0.19
451.589	0.19
452.044	0.19
452.499	0.19
452.954	0.19
453.409	0.19
453.864	0.19
454.319	0.19
454.774	0.19
455.229	0.19
455.684	0.19
456.138	0.18
456.593	0.18
457.048	0.18
457.503	0.18
457.957	0.18
458.412	0.18
458.866	0.18
459.321	0.18
459.776	0.18
460.23	0.18
460.685	0.18
461.139	0.18
461.593	0.18
462.048	0.18
462.502	0.18
462.957	0.18
463.411	0.18
463.865	0.18
464.319	0.18
464.774	0.18
465.228	0.18
465.682	0.18
466.136	0.18
466.59	0.18
467.044	0.18
467.499	0.18
467.953	0.18
468.407	0.18
468.861	0.18
469.315	0.18
469.768	0.18
470.222	0.18
470.676	0.18
471.13	0.18
471.584	0.18
472.038	0.18
472.491	0.18
472.945	0.18
473.399	0.18
473.852	0.18
474.306	0.18
474.76	0.18
475.213	0.18
475.667	0.18
476.12	0.18
476.574	0.18
477.027	0.18
477.481	0.18
477.934	0.18
478.388	0.18
478.841	0.18
479.294	0.18
479.748	0.18
480.201	0.18
480.654	0.18
481.107	0.18
481.561	0.18
482.014	0.18
482.467	0.18
482.92	0.18
483.373	0.18
483.826	0.19
484.279	0.19
484.732	0.19
485.185	0.19
485.638	0.19
486.091	0.19
486.544	0.19
486.997	0.19
487.449	0.19
487.902	0.19
488.355	0.19
488.808	0.19
489.26	0.18
489.713	0.18
490.166	0.18
490.618	0.18
491.071	0.18
491.523	0.18
491.976	0.18
492.429	0.18
492.881	0.18
493.333	0.18
493.786	0.19
494.238	0.19
494.691	0.19
495.143	0.19
495.595	0.19
496.048	0.19
496.5	0.19
496.952	0.19
497.404	0.19
497.856	0.19
498.309	0.19
498.761	0.19
499.213	0.19
499.665	0.19
500.117	0.19
500.569	0.19
501.021	0.19
501.473	0.2
501.925	0.2
502.377	0.2
502.828	0.2
503.28	0.2
503.732	0.2
504.184	0.2
504.636	0.2
505.087	0.2
505.539	0.2
505.991	0.2
506.442	0.2
506.894	0.2
507.345	0.2
507.797	0.2
508.249	0.2
508.7	0.2
509.151	0.2
509.603	0.2
510.054	0.2
510.506	0.2
510.957	0.2
511.408	0.2
511.86	0.2
512.311	0.21
512.762	0.21
513.213	0.2
513.665	0.2
514.116	0.2
514.567	0.21
515.018	0.21
515.469	0.21
515.92	0.21
516.371	0.21
516.822	0.21
517.273	0.21
517.724	0.21
518.175	0.21
518.626	0.21
519.076	0.21
519.527	0.2
519.978	0.2
520.429	0.2
520.88	0.2
521.33	0.2
521.781	0.2
522.232	0.2
522.682	0.2
523.133	0.2
523.583	0.2
524.034	0.21
524.484	0.21
524.935	0.21
525.385	0.21
525.836	0.21
526.286	0.22
526.736	0.22
527.187	0.22
527.637	0.22
528.087	0.22
528.538	0.22
528.988	0.23
529.438	0.23
529.888	0.23
530.338	0.23
530.788	0.23
531.238	0.23
531.688	0.23
532.139	0.23
532.589	0.23
533.038	0.23
533.488	0.23
533.938	0.23
534.388	0.24
534.838	0.24
535.288	0.24
535.738	0.24
536.187	0.24
536.637	0.24
537.087	0.24
537.537	0.24
537.986	0.24
538.436	0.24
538.885	0.24
539.335	0.24
539.785	0.24
540.234	0.24
540.684	0.24
541.133	0.24
541.582	0.24
542.032	0.24
542.481	0.25
542.931	0.25
543.38	0.25
543.829	0.25
544.278	0.25
544.728	0.25
545.177	0.25
545.626	0.25
546.075	0.25
546.524	0.25
546.973	0.25
547.422	0.25
547.871	0.25
548.32	0.25
548.769	0.25
549.218	0.25
549.667	0.26
550.116	0.26
550.565	0.26
551.014	0.26
551.463	0.26
551.911	0.26
552.36	0.26
552.809	0.26
553.258	0.26
553.706	0.26
554.155	0.26
554.603	0.26
555.052	0.26
555.501	0.26
555.949	0.26
556.398	0.26
556.846	0.26
557.294	0.26
557.743	0.26
558.191	0.26
558.64	0.26
559.088	0.26
559.536	0.26
559.985	0.26
560.433	0.27
560.881	0.27
561.329	0.27
561.777	0.27
562.225	0.27
562.674	0.27
563.122	0.27
563.57	0.27
564.018	0.27
564.466	0.27
564.914	0.27
565.362	0.27
565.809	0.27
566.257	0.27
566.705	0.27
567.153	0.27
567.601	0.27
568.048	0.28
568.496	0.28
568.944	0.28
569.392	0.28
569.839	0.28
570.287	0.28
570.734	0.29
571.182	0.29
571.63	0.29
572.077	0.29
572.525	0.29
572.972	0.29
573.419	0.29
573.867	0.29
574.314	0.29
574.761	0.29
575.209	0.3
575.656	0.3
576.103	0.3
576.551	0.3
576.998	0.3
577.445	0.3
577.892	0.3
578.339	0.3
578.786	0.3
579.233	0.3
579.68	0.3
580.127	0.3
580.574	0.3
581.021	0.3
581.468	0.3
581.915	0.3
582.362	0.3
582.809	0.3
583.255	0.3
583.702	0.3
584.149	0.3
584.596	0.3
585.042	0.3
585.489	0.3
585.936	0.3
586.382	0.3
586.829	0.3
587.275	0.29
587.722	0.29
588.168	0.29
588.615	0.29
589.061	0.29
589.508	0.29
589.954	0.29
590.4	0.29
590.847	0.29
591.293	0.29
591.739	0.29
592.185	0.29
592.632	0.29
593.078	0.29
593.524	0.29
593.97	0.28
594.416	0.28
594.862	0.28
595.308	0.28
595.754	0.28
596.2	0.28
596.646	0.28
597.092	0.28
597.538	0.29
597.984	0.29
598.43	0.29
598.876	0.29
599.321	0.29
599.767	0.29
600.213	0.28
600.659	0.28
601.104	0.28
601.55	0.28
601.995	0.28
602.441	0.28
602.887	0.28
603.332	0.28
603.778	0.28
604.223	0.28
604.668	0.28
605.114	0.28
605.559	0.28
606.005	0.28
606.45	0.28
606.895	0.28
607.341	0.28
607.786	0.28
608.231	0.28
608.676	0.27
609.121	0.27
609.566	0.27
610.012	0.27
610.457	0.27
610.902	0.27
611.347	0.27
611.792	0.27
612.237	0.27
612.682	0.27
613.127	0.27
613.571	0.27
614.016	0.27
614.461	0.26
614.906	0.26
615.351	0.26
615.795	0.26
616.24	0.26
616.685	0.26
617.129	0.26
617.574	0.25
618.019	0.25
618.463	0.25
618.908	0.25
619.352	0.25
619.797	0.25
620.241	0.25
620.686	0.25
621.13	0.25
621.574	0.25
622.019	0.25
622.463	0.25
622.907	0.25
623.352	0.25
623.796	0.25
624.24	0.24
624.684	0.24
625.128	0.24
625.572	0.24
626.016	0.24
626.461	0.24
626.905	0.24
627.349	0.24
627.793	0.24
628.236	0.24
628.68	0.24
629.124	0.24
629.568	0.24
630.012	0.24
630.456	0.24
630.9	0.23
631.343	0.23
631.787	0.23
632.231	0.23
632.674	0.23
633.118	0.23
633.562	0.23
634.005	0.23
634.449	0.23
634.892	0.23
635.336	0.23
635.779	0.23
636.223	0.23
636.666	0.22
637.109	0.22
637.553	0.22
637.996	0.22
638.439	0.22
638.883	0.22
639.326	0.22
639.769	0.22
640.212	0.22
640.655	0.22
641.099	0.22
641.542	0.22
641.985	0.22
642.428	0.22
642.871	0.22
643.314	0.22
643.757	0.22
644.2	0.22
644.643	0.22
645.085	0.22
645.528	0.22
645.971	0.22
646.414	0.22
646.857	0.22
647.299	0.22
647.742	0.22
648.185	0.22
648.627	0.22
649.07	0.22
649.513	0.23
649.955	0.23
650.398	0.23
650.84	0.23
651.283	0.23
651.725	0.23
652.168	0.23
652.61	0.23
653.052	0.23
653.495	0.22
653.937	0.18
654.379	0.14
654.821	0.15
655.264	0.15
655.706	0.15
656.148	0.15
656.59	0.15
657.032	0.15
657.474	0.15
657.916	0.15
658.358	0.15
658.8	0.19
659.242	0.23
659.684	0.24
660.126	0.24
660.568	0.24
661.01	0.24
661.452	0.24
661.894	0.24
662.335	0.24
662.777	0.24
663.219	0.24
663.661	0.24
664.102	0.24
664.544	0.24
664.985	0.24
665.427	0.24
665.869	0.24
666.31	0.24
666.752	0.24
667.193	0.24
667.634	0.25
668.076	0.25
668.517	0.25
668.959	0.25
669.4	0.25
669.841	0.25
670.282	0.25
670.724	0.25
671.165	0.26
671.606	0.26
672.047	0.26
672.488	0.26
672.929	0.26
673.37	0.26
673.811	0.26
674.252	0.26
674.693	0.26
675.134	0.26
675.575	0.26
676.016	0.26
676.457	0.26
676.898	0.26
677.339	0.26
677.78	0.26
678.22	0.26
678.661	0.26
679.102	0.26
679.542	0.26
679.983	0.26
680.424	0.26
680.864	0.26
681.305	0.27
681.745	0.27
682.186	0.27
682.626	0.27
683.067	0.27
683.507	0.27
683.948	0.27
684.388	0.27
684.828	0.27
685.269	0.27
685.709	0.27
686.149	0.27
686.589	0.27
687.029	0.27
687.47	0.27
687.91	0.27
688.35	0.27
688.79	0.28
689.23	0.28
689.67	0.28
690.11	0.28
690.55	0.28
690.99	0.28
691.43	0.28
691.87	0.28
692.31	0.28
692.749	0.28
693.189	0.29
693.629	0.29
694.069	0.29
694.508	0.29
694.948	0.29
695.388	0.29
695.827	0.29
696.267	0.29
696.706	0.29
697.146	0.29
697.586	0.3
698.025	0.3
698.464	0.3
698.904	0.3
699.343	0.29
699.783	0.29
700.222	0.29
700.661	0.3
701.101	0.3
701.54	0.3
701.979	0.3
702.418	0.3
702.857	0.3
703.297	0.3
703.736	0.3
704.175	0.3
704.614	0.3
705.053	0.3
705.492	0.3
705.931	0.3
706.37	0.3
706.809	0.31
707.248	0.31
707.687	0.31
708.125	0.31
708.564	0.31
709.003	0.31
709.442	0.3
709.88	0.3
710.319	0.3
710.758	0.3
711.196	0.3
711.635	0.3
712.074	0.3
712.512	0.3
712.951	0.3
713.389	0.3
713.828	0.3
714.266	0.3
714.705	0.3
715.143	0.3
715.581	0.3
716.02	0.3
716.458	0.3
716.896	0.3
717.334	0.3
717.773	0.3
718.211	0.3
718.649	0.3
719.087	0.3
719.525	0.3
719.963	0.3
720.401	0.3
720.839	0.3
721.277	0.3
721.715	0.3
722.153	0.3
722.591	0.3
723.029	0.3
723.467	0.3
723.905	0.3
724.342	0.3
724.78	0.3
725.218	0.3
725.656	0.3
726.093	0.3
726.531	0.3
726.969	0.3
727.406	0.3
727.844	0.3
728.281	0.3
728.719	0.31
729.156	0.31
729.594	0.31
730.031	0.31
730.469	0.31
730.906	0.31
731.343	0.31
731.781	0.31
732.218	0.31
732.655	0.31
733.092	0.31
733.53	0.31
733.967	0.31
734.404	0.31
734.841	0.31
735.278	0.31
735.715	0.31
736.152	0.31
736.589	0.31
737.026	0.31
737.463	0.31
737.9	0.31
738.337	0.31
738.774	0.3
739.211	0.3
739.647	0.3
740.084	0.3
740.521	0.3
740.958	0.3
741.394	0.3
741.831	0.3
742.268	0.3
742.704	0.3
743.141	0.3
743.577	0.3
744.014	0.29
744.45	0.29
744.887	0.29
745.323	0.29
745.76	0.29
746.196	0.29
746.632	0.29
747.069	0.29
747.505	0.29
747.941	0.29
748.378	0.29
748.814	0.28
749.25	0.28
749.686	0.29
750.122	0.29
750.558	0.29
750.994	0.29
751.43	0.29
751.866	0.29
752.302	0.29
752.738	0.29
753.174	0.29
753.61	0.29
754.046	0.29
754.482	0.29
754.918	0.29
755.354	0.29
755.789	0.29
756.225	0.29
756.661	0.29
757.096	0.29
757.532	0.29
757.968	0.29
758.403	0.29
758.839	0.29
759.274	0.29
759.71	0.29
760.145	0.28
760.581	0.28
761.016	0.28
761.452	0.28
761.887	0.28
762.322	0.28
762.758	0.28
763.193	0.27
763.628	0.27
764.063	0.27
764.499	0.27
764.934	0.27
765.369	0.26
765.804	0.26
766.239	0.26
766.674	0.26
767.109	0.26
767.544	0.25
767.979	0.25
768.414	0.25
768.849	0.24
769.284	0.24
769.719	0.24
770.154	0.24
770.588	0.23
771.023	0.23
771.458	0.23
771.893	0.22
772.327	0.22
772.762	0.22
773.197	0.21
773.631	0.21
774.066	0.21
774.5	0.2
774.935	0.2
775.369	0.19
775.804	0.19
776.238	0.19
776.673	0.18
777.107	0.18
777.541	0.17
777.976	0.17
778.41	0.16
778.844	0.16
779.279	0.15
779.713	0.15
780.147	0.14
780.581	0.13
781.015	0.12
781.449	0.12
781.883	0.11
782.317	0.1
782.751	0.08
783.185	0.07
783.619	0.06
784.053	0.05
784.487	0.03
784.921	0.02
785.355	0.01
785.789	-0.01
786.223	-0.01
786.656	-0.02
787.09	-0.03
787.524	-0.03
787.957	-0.04
788.391	-0.05
788.825	-0.05
789.258	-0.06
789.692	-0.06
790.125	-0.06
790.559	-0.06
790.992	-0.06
791.426	-0.06
791.859	-0.06
792.293	-0.05
792.726	-0.04
793.159	-0.04
793.593	-0.04
794.026	-0.04
794.459	-0.04
794.892	-0.05
795.326	-0.05
795.759	-0.05
796.192	-0.05
796.625	-0.06
797.058	-0.07
797.491	-0.07
797.924	-0.08
798.357	-0.08
798.79	-0.08
799.223	-0.08
799.656	-0.08
800.089	-0.08
800.522	-0.09
800.955	-0.09
801.387	-0.09
801.82	-0.09
802.253	-0.09
802.686	-0.09
803.118	-0.09
803.551	-0.09
803.984	-0.08
804.416	-0.08
804.849	-0.07
805.281	-0.07
805.714	-0.07
806.146	-0.07
806.579	-0.07
807.011	-0.07
807.444	-0.07
807.876	-0.07
808.308	-0.07
808.741	-0.07
809.173	-0.08
809.605	-0.08
810.037	-0.08
810.47	-0.08
810.902	-0.09
811.334	-0.09
811.766	-0.08
812.198	-0.08
812.63	-0.08
813.062	-0.08
813.494	-0.08
813.926	-0.08
814.358	-0.08
814.79	-0.08
815.222	-0.07
815.654	-0.07
816.086	-0.07
816.518	-0.08
816.949	-0.08
817.381	-0.08
817.813	-0.07
818.245	-0.06
818.676	-0.05
819.108	-0.04
819.54	-0.03
819.971	-0.02
820.403	-0.01
820.834	0
821.266	0.02
821.697	0.04
822.129	0.05
822.56	0.06
822.991	0.07
823.423	0.08
823.854	0.1
824.286	0.11
824.717	0.12
825.148	0.13
825.579	0.14
826.01	0.15
826.442	0.15
826.873	0.16
827.304	0.17
827.735	0.17
828.166	0.18
828.597	0.19
829.028	0.19
829.459	0.19
829.89	0.2
830.321	0.2
830.752	0.21
831.183	0.21
831.613	0.21
832.044	0.22
832.475	0.22
832.906	0.22
833.336	0.23
833.767	0.23
834.198	0.23
834.628	0.23
835.059	0.23
835.49	0.24
835.92	0.24
836.351	0.24
836.781	0.24
837.212	0.24
837.642	0.24
838.072	0.25
838.503	0.25
838.933	0.25
839.364	0.25
839.794	0.25
840.224	0.25
840.654	0.25
841.085	0.25
841.515	0.25
841.945	0.25
842.375	0.25
842.805	0.25
843.235	0.25
843.665	0.25
844.095	0.25
844.525	0.25
844.955	0.25
845.385	0.25
845.815	0.25
846.245	0.25
846.675	0.25
847.105	0.25
847.534	0.25
847.964	0.25
848.394	0.25
848.824	0.25
849.253	0.25
849.683	0.26
850.112	0.26
850.542	0.26
850.972	0.26
851.401	0.26
851.831	0.26
852.26	0.26
852.69	0.26
853.119	0.26
853.548	0.26
853.978	0.26
854.407	0.26
854.836	0.26
855.266	0.26
855.695	0.26
856.124	0.26
856.553	0.26
856.983	0.26
857.412	0.26
857.841	0.25
858.27	0.25
858.699	0.25
859.128	0.25
859.557	0.25
859.986	0.25
860.415	0.25
860.844	0.25
861.273	0.25
861.702	0.25
862.13	0.25
862.559	0.25
862.988	0.25
863.417	0.25
863.845	0.25
864.274	0.25
864.703	0.25
865.131	0.25
865.56	0.25
865.989	0.25
866.417	0.25
866.846	0.25
867.274	0.25
867.703	0.25
868.131	0.25
868.559	0.25
868.988	0.25
869.416	0.25
869.844	0.25
870.273	0.25
870.701	0.25
871.129	0.25
871.557	0.25
871.986	0.25
872.414	0.25
872.842	0.25
873.27	0.24
873.698	0.24
874.126	0.24
874.554	0.24
874.982	0.24
875.41	0.24
875.838	0.24
876.266	0.24
876.694	0.24
877.122	0.24
877.549	0.24
877.977	0.24
878.405	0.24
878.833	0.24
879.26	0.24
879.688	0.24
880.116	0.24
880.543	0.24
880.971	0.24
881.399	0.24
881.826	0.24
882.254	0.24
882.681	0.24
883.109	0.24
883.536	0.24
883.963	0.24
884.391	0.24
884.818	0.24
885.245	0.25
885.673	0.25
886.1	0.25
886.527	0.25
886.954	0.25
887.381	0.25
887.809	0.25
888.236	0.24
888.663	0.24
889.09	0.24
889.517	0.24
889.944	0.24
890.371	0.24
890.798	0.24
891.225	0.24
891.652	0.24
892.078	0.24
892.505	0.24
892.932	0.24
893.359	0.24
893.786	0.24
894.212	0.24
894.639	0.24
895.066	0.24
895.492	0.24
895.919	0.24
896.346	0.24
896.772	0.24
897.199	0.24
897.625	0.24
898.052	0.24
898.478	0.24
898.904	0.23
899.331	0.23
899.757	0.23
900.183	0.23
900.61	0.23
901.036	0.23
901.462	0.23
901.888	0.23
902.315	0.23
902.741	0.23
903.167	0.23
903.593	0.23
904.019	0.23
904.445	0.23
904.871	0.23
905.297	0.23
905.723	0.23
906.149	0.23
906.575	0.23
907.001	0.23
907.427	0.23
907.852	0.23
908.278	0.23
908.704	0.23
909.13	0.23
909.555	0.23
909.981	0.23
910.407	0.23
910.832	0.23
911.258	0.23
911.684	0.23
912.109	0.23
912.535	0.23
912.96	0.23
913.386	0.23
913.811	0.23
914.236	0.23
914.662	0.23
915.087	0.23
915.512	0.23
915.938	0.23
916.363	0.23
916.788	0.23
917.213	0.23
917.639	0.23
918.064	0.23
918.489	0.23
918.914	0.23
919.339	0.23
919.764	0.23
920.189	0.23
920.614	0.23
921.039	0.23
921.464	0.23
921.889	0.23
922.314	0.22
922.738	0.22
923.163	0.22
923.588	0.22
924.013	0.22
924.437	0.22
924.862	0.22
925.287	0.22
925.711	0.22
926.136	0.22
926.561	0.22
926.985	0.22
927.41	0.22
927.834	0.22
928.259	0.22
928.683	0.22
929.108	0.22
929.532	0.22
929.956	0.22
930.381	0.22
930.805	0.21
931.229	0.21
931.653	0.21
932.078	0.21
932.502	0.21
932.926	0.21
933.35	0.21
933.774	0.21
934.198	0.21
934.622	0.2
935.046	0.2
935.47	0.2
935.894	0.2
936.318	0.2
936.742	0.2
937.166	0.2
937.59	0.21
938.014	0.21
938.437	0.21
938.861	0.21
939.285	0.21
939.709	0.21
940.132	0.21
940.556	0.21
940.98	0.21
941.403	0.21
941.827	0.21
942.25	0.21
942.674	0.21
943.097	0.21
943.521	0.21
943.944	0.21
944.368	0.21
944.791	0.21
945.214	0.21
945.638	0.21
946.061	0.21
946.484	0.2
946.907	0.2
947.331	0.2
947.754	0.2
948.177	0.2
948.6	0.2
949.023	0.2
949.446	0.2
949.869	0.2
950.292	0.2
950.715	0.2
951.138	0.2
951.561	0.2
951.984	0.2
952.407	0.19
952.83	0.19
953.252	0.19
953.675	0.19
954.098	0.19
954.521	0.19
954.943	0.19
955.366	0.19
955.789	0.19
956.211	0.19
956.634	0.19
957.056	0.19
957.479	0.19
957.902	0.19
958.324	0.19
958.746	0.19
959.169	0.19
959.591	0.19
960.014	0.19
960.436	0.19
960.858	0.19
961.281	0.19
961.703	0.19
962.125	0.19
962.547	0.19
962.969	0.19
963.391	0.19
963.814	0.19
964.236	0.19
964.658	0.19
965.08	0.19
965.502	0.19
965.924	0.2
966.346	0.2
966.768	0.2
967.189	0.2
967.611	0.2
968.033	0.19
968.455	0.19
968.877	0.19
969.298	0.19
969.72	0.19
970.142	0.19
970.563	0.19
970.985	0.19
971.407	0.19
971.828	0.19
972.25	0.19
972.671	0.19
973.093	0.19
973.514	0.19
973.936	0.19
974.357	0.19
974.778	0.19
975.2	0.19
975.621	0.19
976.042	0.19
976.464	0.19
976.885	0.19
977.306	0.19
977.727	0.19
978.148	0.19
978.57	0.19
978.991	0.19
979.412	0.19
979.833	0.19
980.254	0.19
980.675	0.18
981.096	0.18
981.517	0.18
981.937	0.18
982.358	0.18
982.779	0.18
983.2	0.18
983.621	0.18
984.042	0.18
984.462	0.18
984.883	0.18
985.304	0.18
985.724	0.18
986.145	0.18
986.565	0.18
986.986	0.18
987.407	0.18
987.827	0.18
988.248	0.18
988.668	0.18
989.088	0.18
989.509	0.18
989.929	0.18
990.35	0.18
990.77	0.18
991.19	0.18
991.61	0.18
992.031	0.18
992.451	0.18
992.871	0.17
993.291	0.17
993.711	0.17
994.131	0.17
994.551	0.17
994.971	0.17
995.391	0.17
995.811	0.17
996.231	0.17
996.651	0.17
997.071	0.17
997.491	0.17
997.911	0.17
998.331	0.17
998.75	0.17
999.17	0.17
999.59	0.17
1000.009	0.17
1000.429	0.17
1000.849	0.17
1001.268	0.17
1001.688	0.17
1002.107	0.17
1002.527	0.17
1002.946	0.17
1003.366	0.17
1003.785	0.17
1004.205	0.17
1004.624	0.17
1005.044	0.17
1005.463	0.17
1005.882	0.17
1006.301	0.17
1006.721	0.17
1007.14	0.17
1007.559	0.17
1007.978	0.17
1008.397	0.17
1008.816	0.17
1009.235	0.17
1009.655	0.17
1010.074	0.17
1010.492	0.17
1010.911	0.17
1011.33	0.17
1011.749	0.17
1012.168	0.16
1012.587	0.16
1013.006	0.16
1013.425	0.16
1013.843	0.16
1014.262	0.16
1014.681	0.16
1015.099	0.16
1015.518	0.16
1015.937	0.16
1016.355	0.16
1016.774	0.16
1017.192	0.16
1017.611	0.16
1018.029	0.16
1018.448	0.16
1018.866	0.16
1019.285	0.16
1019.703	0.16
1020.121	0.16
1020.54	0.16
1020.958	0.16
1021.376	0.16
1021.794	0.16
1022.213	0.16
1022.631	0.16
1023.049	0.17
1023.467	0.17
1023.885	0.17
1024.303	0.17
1024.721	0.17
1025.139	0.17
1025.557	0.17
1025.975	0.17
1026.393	0.17
1026.811	0.17
1027.229	0.17
1027.647	0.17
1028.065	0.17
1028.482	0.17
1028.9	0.17
1029.318	0.17
1029.735	0.18
1030.153	0.18
1030.571	0.18
1030.988	0.18
1031.406	0.18
1031.823	0.18
1032.241	0.18
1032.659	0.18
1033.076	0.18
1033.493	0.18
1033.911	0.18
1034.328	0.17
1034.746	0.17
1035.163	0.17
1035.58	0.17
1035.997	0.17
1036.415	0.17
1036.832	0.17
1037.249	0.17
1037.666	0.16
1038.083	0.16
1038.501	0.16
1038.918	0.16
1039.335	0.16
1039.752	0.16
1040.169	0.16
1040.586	0.16
1041.003	0.16
1041.419	0.16
1041.836	0.16
1042.253	0.16
1042.67	0.16
1043.087	0.16
1043.504	0.16
1043.92	0.16
1044.337	0.16
1044.754	0.16
1045.17	0.16
1045.587	0.16
1046.004	0.16
1046.42	0.16
1046.837	0.16
1047.253	0.16
1047.67	0.16
1048.086	0.16
1048.503	0.16
1048.919	0.16
1049.335	0.16
1049.752	0.16
1050.168	0.16
1050.584	0.16
1051.001	0.15
1051.417	0.15
1051.833	0.15
1052.249	0.15
1052.665	0.15
1053.081	0.15
1053.497	0.15
1053.914	0.15
1054.33	0.16
1054.746	0.16
1055.162	0.16
1055.578	0.16
1055.993	0.16
1056.409	0.16
1056.825	0.16
1057.241	0.16
1057.657	0.16
1058.073	0.16
1058.488	0.16
1058.904	0.16
1059.32	0.16
1059.736	0.16
1060.151	0.16
1060.567	0.16
1060.982	0.16
1061.398	0.16
1061.813	0.16
1062.229	0.16
1062.644	0.16
1063.06	0.16
1063.475	0.16
1063.891	0.16
1064.306	0.16
1064.721	0.16
1065.137	0.16
1065.552	0.16
1065.967	0.16
1066.382	0.16
1066.798	0.16
1067.213	0.16
1067.628	0.16
1068.043	0.16
1068.458	0.16
1068.873	0.16
1069.288	0.16
1069.703	0.16
1070.118	0.16
1070.533	0.15
1070.948	0.15
1071.363	0.15
1071.778	0.15
1072.193	0.16
1072.607	0.16
1073.022	0.16
1073.437	0.16
1073.852	0.16
1074.266	0.16
1074.681	0.16
1075.096	0.16
1075.51	0.16
1075.925	0.16
1076.339	0.15
1076.754	0.15
1077.168	0.15
1077.583	0.15
1077.997	0.15
1078.412	0.15
1078.826	0.15
1079.24	0.16
1079.655	0.16
1080.069	0.16
1080.483	0.16
1080.897	0.16
1081.312	0.16
1081.726	0.16
1082.14	0.16
1082.554	0.16
1082.968	0.17
1083.382	0.17
1083.796	0.17
1084.21	0.17
1084.624	0.17
1085.038	0.17
1085.452	0.17
1085.866	0.17
1086.28	0.17
1086.694	0.18
1087.108	0.18
1087.521	0.18
1087.935	0.18
1088.349	0.18
1088.763	0.18
1089.176	0.19
1089.59	0.19
1090.004	0.19
1090.417	0.19
1090.831	0.19
1091.244	0.2
1091.658	0.2
1092.071	0.2
1092.485	0.21
1092.898	0.21
1093.312	0.22
1093.725	0.22
1094.138	0.22
1094.552	0.23
1094.965	0.23
1095.378	0.24
1095.791	0.24
1096.205	0.25
1096.618	0.26
1097.031	0.26
1097.444	0.27
1097.857	0.27
1098.27	0.28
1098.683	0.29
1099.096	0.3
1099.509	0.31
1099.922	0.32
1100.335	0.33
1100.748	0.34
1101.161	0.35
1101.574	0.37
1101.986	0.38
1102.399	0.4
1102.812	0.42
1103.225	0.44
1103.637	0.47
1104.05	0.49
1104.463	0.53
1104.875	0.56
1105.288	0.61
1105.7	0.65
1106.113	0.7
1106.525	0.77
1106.938	0.87
1107.35	1.05
1107.763	-0
1108.175	-0
1108.588	-0
1109	-0
1109.412	-0
1109.824	-0
1110.237	-0
1110.649	-0
1111.061	-0
