Data from unagg-15c-2a-1h_Absorbance__59__00486.txt Node

Date: Mon May 06 09:34:42 CEST 2024
User: Laser008
Spectrometer: MAYP115816
Trigger mode: 0
Integration Time (sec): 2.000000E-1
Scans to average: 10
Electric dark correction enabled: true
Nonlinearity correction enabled: true
Boxcar width: 5
XAxis mode: Wavelengths
Number of Pixels in Spectrum: 2068
>>>>>Begin Spectral Data<<<<<
198.914	-1.9
199.384	-1.75
199.855	-1.61
200.325	-1.49
200.796	-1.4
201.266	-1.35
201.737	-1.28
202.207	-1.22
202.677	-1.17
203.147	-1.12
203.618	-1.09
204.088	-1.07
204.558	-1.05
205.028	-1.04
205.498	-1.03
205.968	-1.03
206.439	-1.03
206.909	-1.02
207.379	-1.02
207.849	-1.02
208.319	-1.02
208.789	-1.01
209.258	-1.01
209.728	-1.01
210.198	-1.01
210.668	-1
211.138	-1.01
211.608	-1
212.077	-1
212.547	-1
213.017	-1
213.486	-1
213.956	-1
214.426	-1
214.895	-1
215.365	-1
215.834	-0.99
216.304	-0.99
216.773	-0.99
217.243	-0.99
217.712	-0.98
218.181	-0.98
218.651	-0.98
219.12	-0.98
219.589	-0.97
220.058	-0.97
220.528	-0.97
220.997	-0.97
221.466	-0.97
221.935	-0.96
222.404	-0.96
222.873	-0.95
223.342	-0.95
223.812	-0.94
224.281	-0.93
224.749	-0.92
225.218	-0.91
225.687	-0.9
226.156	-0.89
226.625	-0.88
227.094	-0.86
227.563	-0.84
228.031	-0.82
228.5	-0.8
228.969	-0.78
229.438	-0.75
229.906	-0.72
230.375	-0.68
230.844	-0.64
231.312	-0.6
231.781	-0.56
232.249	-0.51
232.718	-0.47
233.186	-0.42
233.655	-0.37
234.123	-0.32
234.591	-0.27
235.06	-0.22
235.528	-0.17
235.996	-0.12
236.465	-0.07
236.933	-0.03
237.401	0.02
237.869	0.06
238.337	0.1
238.805	0.14
239.274	0.18
239.742	0.21
240.21	0.24
240.678	0.27
241.146	0.3
241.614	0.33
242.081	0.36
242.549	0.38
243.017	0.4
243.485	0.42
243.953	0.44
244.421	0.46
244.888	0.48
245.356	0.5
245.824	0.51
246.291	0.53
246.759	0.54
247.227	0.55
247.694	0.56
248.162	0.58
248.629	0.59
249.097	0.6
249.564	0.61
250.032	0.61
250.499	0.62
250.967	0.63
251.434	0.64
251.901	0.65
252.369	0.65
252.836	0.66
253.303	0.67
253.77	0.67
254.237	0.68
254.705	0.68
255.172	0.69
255.639	0.69
256.106	0.7
256.573	0.7
257.04	0.71
257.507	0.71
257.974	0.71
258.441	0.71
258.908	0.72
259.375	0.72
259.841	0.72
260.308	0.72
260.775	0.73
261.242	0.73
261.709	0.73
262.175	0.73
262.642	0.73
263.109	0.73
263.575	0.73
264.042	0.73
264.508	0.73
264.975	0.73
265.441	0.73
265.908	0.73
266.374	0.73
266.841	0.73
267.307	0.73
267.773	0.73
268.24	0.73
268.706	0.73
269.172	0.73
269.639	0.73
270.105	0.73
270.571	0.73
271.037	0.73
271.503	0.72
271.969	0.72
272.435	0.72
272.902	0.72
273.368	0.72
273.834	0.72
274.3	0.72
274.765	0.72
275.231	0.71
275.697	0.71
276.163	0.71
276.629	0.71
277.095	0.7
277.56	0.7
278.026	0.7
278.492	0.7
278.958	0.69
279.423	0.69
279.889	0.69
280.354	0.69
280.82	0.69
281.286	0.68
281.751	0.68
282.217	0.68
282.682	0.68
283.147	0.68
283.613	0.68
284.078	0.68
284.544	0.67
285.009	0.67
285.474	0.67
285.939	0.67
286.405	0.67
286.87	0.66
287.335	0.66
287.8	0.66
288.265	0.66
288.73	0.66
289.195	0.66
289.66	0.65
290.125	0.65
290.59	0.65
291.055	0.65
291.52	0.65
291.985	0.65
292.45	0.64
292.915	0.64
293.38	0.64
293.844	0.64
294.309	0.64
294.774	0.64
295.239	0.64
295.703	0.64
296.168	0.63
296.632	0.63
297.097	0.63
297.562	0.63
298.026	0.63
298.491	0.63
298.955	0.63
299.419	0.63
299.884	0.63
300.348	0.62
300.813	0.62
301.277	0.62
301.741	0.62
302.205	0.62
302.67	0.62
303.134	0.62
303.598	0.62
304.062	0.62
304.526	0.62
304.99	0.62
305.454	0.61
305.919	0.61
306.383	0.61
306.847	0.61
307.31	0.61
307.774	0.61
308.238	0.61
308.702	0.61
309.166	0.61
309.63	0.61
310.094	0.61
310.557	0.6
311.021	0.6
311.485	0.6
311.948	0.6
312.412	0.6
312.876	0.6
313.339	0.6
313.803	0.6
314.266	0.6
314.73	0.6
315.193	0.6
315.657	0.59
316.12	0.59
316.584	0.59
317.047	0.59
317.51	0.59
317.973	0.59
318.437	0.59
318.9	0.59
319.363	0.59
319.826	0.59
320.29	0.58
320.753	0.58
321.216	0.58
321.679	0.58
322.142	0.58
322.605	0.58
323.068	0.58
323.531	0.58
323.994	0.58
324.457	0.57
324.92	0.57
325.382	0.57
325.845	0.57
326.308	0.57
326.771	0.57
327.233	0.57
327.696	0.57
328.159	0.57
328.622	0.57
329.084	0.56
329.547	0.56
330.009	0.56
330.472	0.56
330.934	0.56
331.397	0.56
331.859	0.56
332.322	0.56
332.784	0.56
333.246	0.56
333.709	0.55
334.171	0.55
334.633	0.55
335.096	0.55
335.558	0.55
336.02	0.55
336.482	0.55
336.944	0.55
337.406	0.55
337.868	0.54
338.331	0.54
338.793	0.54
339.255	0.54
339.717	0.54
340.178	0.54
340.64	0.54
341.102	0.54
341.564	0.54
342.026	0.54
342.488	0.54
342.949	0.54
343.411	0.53
343.873	0.53
344.335	0.53
344.796	0.53
345.258	0.53
345.719	0.53
346.181	0.53
346.643	0.53
347.104	0.53
347.566	0.53
348.027	0.53
348.488	0.52
348.95	0.52
349.411	0.52
349.873	0.52
350.334	0.52
350.795	0.52
351.256	0.52
351.718	0.52
352.179	0.52
352.64	0.52
353.101	0.52
353.562	0.51
354.023	0.51
354.484	0.51
354.945	0.51
355.406	0.51
355.867	0.51
356.328	0.51
356.789	0.51
357.25	0.5
357.711	0.5
358.172	0.5
358.633	0.51
359.093	0.51
359.554	0.51
360.015	0.51
360.476	0.51
360.936	0.51
361.397	0.51
361.858	0.51
362.318	0.51
362.779	0.51
363.239	0.51
363.7	0.51
364.16	0.51
364.621	0.51
365.081	0.51
365.541	0.51
366.002	0.51
366.462	0.51
366.922	0.51
367.383	0.51
367.843	0.51
368.303	0.51
368.763	0.51
369.223	0.51
369.684	0.51
370.144	0.5
370.604	0.5
371.064	0.5
371.524	0.5
371.984	0.5
372.444	0.5
372.904	0.5
373.363	0.5
373.823	0.5
374.283	0.5
374.743	0.5
375.203	0.5
375.663	0.5
376.122	0.5
376.582	0.5
377.042	0.5
377.501	0.5
377.961	0.5
378.42	0.5
378.88	0.5
379.34	0.5
379.799	0.5
380.259	0.5
380.718	0.5
381.177	0.5
381.637	0.5
382.096	0.5
382.555	0.5
383.015	0.5
383.474	0.5
383.933	0.5
384.393	0.5
384.852	0.5
385.311	0.5
385.77	0.5
386.229	0.5
386.688	0.5
387.147	0.5
387.606	0.5
388.065	0.5
388.524	0.5
388.983	0.5
389.442	0.5
389.901	0.5
390.36	0.5
390.819	0.5
391.277	0.5
391.736	0.5
392.195	0.5
392.654	0.5
393.112	0.5
393.571	0.5
394.03	0.5
394.488	0.5
394.947	0.5
395.405	0.5
395.864	0.5
396.322	0.5
396.781	0.5
397.239	0.5
397.698	0.5
398.156	0.5
398.614	0.5
399.073	0.5
399.531	0.5
399.989	0.5
400.447	0.5
400.905	0.49
401.364	0.49
401.822	0.49
402.28	0.49
402.738	0.49
403.196	0.49
403.654	0.49
404.112	0.49
404.57	0.49
405.028	0.49
405.486	0.49
405.944	0.49
406.402	0.49
406.859	0.49
407.317	0.49
407.775	0.49
408.233	0.49
408.691	0.49
409.148	0.48
409.606	0.48
410.064	0.48
410.521	0.48
410.979	0.48
411.436	0.48
411.894	0.48
412.351	0.48
412.809	0.48
413.266	0.48
413.724	0.48
414.181	0.48
414.638	0.48
415.096	0.48
415.553	0.48
416.01	0.48
416.467	0.48
416.925	0.48
417.382	0.48
417.839	0.48
418.296	0.48
418.753	0.48
419.21	0.48
419.667	0.48
420.124	0.48
420.581	0.48
421.038	0.48
421.495	0.48
421.952	0.48
422.409	0.48
422.866	0.48
423.322	0.48
423.779	0.48
424.236	0.48
424.693	0.48
425.149	0.47
425.606	0.47
426.063	0.47
426.519	0.47
426.976	0.47
427.433	0.47
427.889	0.47
428.346	0.47
428.802	0.47
429.258	0.47
429.715	0.48
430.171	0.48
430.628	0.47
431.084	0.47
431.54	0.47
431.997	0.47
432.453	0.47
432.909	0.47
433.365	0.47
433.821	0.47
434.277	0.47
434.734	0.47
435.19	0.47
435.646	0.47
436.102	0.47
436.558	0.47
437.014	0.47
437.47	0.47
437.925	0.47
438.381	0.47
438.837	0.47
439.293	0.46
439.749	0.46
440.205	0.46
440.66	0.46
441.116	0.46
441.572	0.46
442.027	0.46
442.483	0.46
442.939	0.46
443.394	0.46
443.85	0.46
444.305	0.46
444.761	0.46
445.216	0.46
445.672	0.46
446.127	0.46
446.582	0.46
447.038	0.46
447.493	0.46
447.948	0.46
448.403	0.46
448.859	0.46
449.314	0.46
449.769	0.46
450.224	0.46
450.679	0.46
451.134	0.46
451.589	0.46
452.044	0.46
452.499	0.46
452.954	0.46
453.409	0.46
453.864	0.45
454.319	0.45
454.774	0.45
455.229	0.45
455.684	0.45
456.138	0.45
456.593	0.45
457.048	0.45
457.503	0.45
457.957	0.45
458.412	0.45
458.866	0.45
459.321	0.45
459.776	0.45
460.23	0.45
460.685	0.45
461.139	0.45
461.593	0.45
462.048	0.45
462.502	0.45
462.957	0.45
463.411	0.45
463.865	0.45
464.319	0.45
464.774	0.45
465.228	0.45
465.682	0.45
466.136	0.45
466.59	0.45
467.044	0.45
467.499	0.45
467.953	0.44
468.407	0.44
468.861	0.44
469.315	0.44
469.768	0.44
470.222	0.44
470.676	0.44
471.13	0.44
471.584	0.43
472.038	0.43
472.491	0.44
472.945	0.44
473.399	0.44
473.852	0.44
474.306	0.44
474.76	0.44
475.213	0.44
475.667	0.44
476.12	0.44
476.574	0.44
477.027	0.44
477.481	0.44
477.934	0.44
478.388	0.44
478.841	0.45
479.294	0.45
479.748	0.45
480.201	0.45
480.654	0.45
481.107	0.45
481.561	0.45
482.014	0.45
482.467	0.45
482.92	0.46
483.373	0.46
483.826	0.46
484.279	0.47
484.732	0.47
485.185	0.47
485.638	0.47
486.091	0.47
486.544	0.47
486.997	0.47
487.449	0.47
487.902	0.47
488.355	0.47
488.808	0.47
489.26	0.47
489.713	0.47
490.166	0.47
490.618	0.47
491.071	0.47
491.523	0.47
491.976	0.47
492.429	0.47
492.881	0.47
493.333	0.47
493.786	0.47
494.238	0.48
494.691	0.48
495.143	0.48
495.595	0.48
496.048	0.48
496.5	0.49
496.952	0.49
497.404	0.49
497.856	0.49
498.309	0.49
498.761	0.49
499.213	0.49
499.665	0.49
500.117	0.5
500.569	0.5
501.021	0.5
501.473	0.5
501.925	0.51
502.377	0.51
502.828	0.51
503.28	0.51
503.732	0.51
504.184	0.52
504.636	0.52
505.087	0.52
505.539	0.52
505.991	0.52
506.442	0.52
506.894	0.52
507.345	0.52
507.797	0.52
508.249	0.52
508.7	0.52
509.151	0.53
509.603	0.53
510.054	0.53
510.506	0.53
510.957	0.53
511.408	0.53
511.86	0.53
512.311	0.53
512.762	0.53
513.213	0.53
513.665	0.53
514.116	0.53
514.567	0.53
515.018	0.53
515.469	0.53
515.92	0.53
516.371	0.53
516.822	0.53
517.273	0.53
517.724	0.53
518.175	0.53
518.626	0.53
519.076	0.53
519.527	0.53
519.978	0.53
520.429	0.52
520.88	0.52
521.33	0.52
521.781	0.52
522.232	0.51
522.682	0.51
523.133	0.52
523.583	0.52
524.034	0.52
524.484	0.53
524.935	0.53
525.385	0.54
525.836	0.54
526.286	0.55
526.736	0.56
527.187	0.56
527.637	0.56
528.087	0.57
528.538	0.57
528.988	0.57
529.438	0.57
529.888	0.58
530.338	0.58
530.788	0.58
531.238	0.58
531.688	0.58
532.139	0.58
532.589	0.58
533.038	0.59
533.488	0.59
533.938	0.59
534.388	0.59
534.838	0.59
535.288	0.59
535.738	0.6
536.187	0.6
536.637	0.6
537.087	0.6
537.537	0.6
537.986	0.6
538.436	0.6
538.885	0.6
539.335	0.6
539.785	0.6
540.234	0.6
540.684	0.6
541.133	0.6
541.582	0.6
542.032	0.6
542.481	0.6
542.931	0.6
543.38	0.61
543.829	0.61
544.278	0.61
544.728	0.61
545.177	0.61
545.626	0.61
546.075	0.61
546.524	0.62
546.973	0.62
547.422	0.61
547.871	0.61
548.32	0.61
548.769	0.61
549.218	0.61
549.667	0.61
550.116	0.61
550.565	0.61
551.014	0.61
551.463	0.61
551.911	0.61
552.36	0.61
552.809	0.61
553.258	0.61
553.706	0.62
554.155	0.62
554.603	0.62
555.052	0.61
555.501	0.61
555.949	0.61
556.398	0.61
556.846	0.61
557.294	0.6
557.743	0.6
558.191	0.6
558.64	0.6
559.088	0.6
559.536	0.6
559.985	0.61
560.433	0.61
560.881	0.61
561.329	0.61
561.777	0.61
562.225	0.61
562.674	0.61
563.122	0.61
563.57	0.61
564.018	0.61
564.466	0.61
564.914	0.61
565.362	0.61
565.809	0.61
566.257	0.61
566.705	0.61
567.153	0.61
567.601	0.61
568.048	0.62
568.496	0.62
568.944	0.63
569.392	0.63
569.839	0.64
570.287	0.64
570.734	0.64
571.182	0.64
571.63	0.65
572.077	0.65
572.525	0.65
572.972	0.65
573.419	0.65
573.867	0.65
574.314	0.65
574.761	0.65
575.209	0.65
575.656	0.66
576.103	0.66
576.551	0.66
576.998	0.66
577.445	0.65
577.892	0.65
578.339	0.65
578.786	0.65
579.233	0.65
579.68	0.65
580.127	0.65
580.574	0.65
581.021	0.65
581.468	0.65
581.915	0.64
582.362	0.64
582.809	0.64
583.255	0.64
583.702	0.64
584.149	0.63
584.596	0.63
585.042	0.62
585.489	0.62
585.936	0.62
586.382	0.62
586.829	0.62
587.275	0.62
587.722	0.61
588.168	0.61
588.615	0.6
589.061	0.6
589.508	0.59
589.954	0.59
590.4	0.59
590.847	0.59
591.293	0.58
591.739	0.58
592.185	0.58
592.632	0.58
593.078	0.58
593.524	0.58
593.97	0.58
594.416	0.57
594.862	0.57
595.308	0.57
595.754	0.57
596.2	0.56
596.646	0.56
597.092	0.56
597.538	0.56
597.984	0.56
598.43	0.56
598.876	0.56
599.321	0.56
599.767	0.56
600.213	0.56
600.659	0.55
601.104	0.55
601.55	0.55
601.995	0.54
602.441	0.54
602.887	0.54
603.332	0.53
603.778	0.53
604.223	0.53
604.668	0.53
605.114	0.53
605.559	0.53
606.005	0.53
606.45	0.53
606.895	0.53
607.341	0.52
607.786	0.52
608.231	0.52
608.676	0.52
609.121	0.51
609.566	0.51
610.012	0.51
610.457	0.5
610.902	0.5
611.347	0.5
611.792	0.5
612.237	0.5
612.682	0.5
613.127	0.5
613.571	0.5
614.016	0.49
614.461	0.49
614.906	0.49
615.351	0.49
615.795	0.49
616.24	0.48
616.685	0.48
617.129	0.48
617.574	0.47
618.019	0.47
618.463	0.47
618.908	0.47
619.352	0.46
619.797	0.46
620.241	0.46
620.686	0.46
621.13	0.46
621.574	0.46
622.019	0.46
622.463	0.46
622.907	0.46
623.352	0.46
623.796	0.46
624.24	0.46
624.684	0.46
625.128	0.45
625.572	0.45
626.016	0.45
626.461	0.45
626.905	0.45
627.349	0.45
627.793	0.45
628.236	0.45
628.68	0.45
629.124	0.45
629.568	0.45
630.012	0.45
630.456	0.45
630.9	0.45
631.343	0.45
631.787	0.45
632.231	0.44
632.674	0.44
633.118	0.44
633.562	0.44
634.005	0.44
634.449	0.44
634.892	0.45
635.336	0.45
635.779	0.45
636.223	0.45
636.666	0.45
637.109	0.45
637.553	0.45
637.996	0.45
638.439	0.45
638.883	0.45
639.326	0.45
639.769	0.46
640.212	0.46
640.655	0.46
641.099	0.46
641.542	0.46
641.985	0.46
642.428	0.47
642.871	0.47
643.314	0.47
643.757	0.47
644.2	0.47
644.643	0.47
645.085	0.47
645.528	0.48
645.971	0.48
646.414	0.48
646.857	0.49
647.299	0.49
647.742	0.49
648.185	0.5
648.627	0.5
649.07	0.5
649.513	0.51
649.955	0.51
650.398	0.51
650.84	0.52
651.283	0.52
651.725	0.52
652.168	0.52
652.61	0.53
653.052	0.53
653.495	0.53
653.937	0.47
654.379	0.43
654.821	0.44
655.264	0.45
655.706	0.45
656.148	0.45
656.59	0.46
657.032	0.46
657.474	0.46
657.916	0.46
658.358	0.46
658.8	0.52
659.242	0.58
659.684	0.58
660.126	0.58
660.568	0.58
661.01	0.59
661.452	0.59
661.894	0.59
662.335	0.6
662.777	0.6
663.219	0.6
663.661	0.61
664.102	0.61
664.544	0.61
664.985	0.62
665.427	0.62
665.869	0.62
666.31	0.63
666.752	0.63
667.193	0.64
667.634	0.64
668.076	0.64
668.517	0.64
668.959	0.65
669.4	0.65
669.841	0.66
670.282	0.66
670.724	0.67
671.165	0.67
671.606	0.67
672.047	0.68
672.488	0.68
672.929	0.68
673.37	0.68
673.811	0.69
674.252	0.69
674.693	0.69
675.134	0.69
675.575	0.69
676.016	0.69
676.457	0.69
676.898	0.7
677.339	0.7
677.78	0.7
678.22	0.71
678.661	0.71
679.102	0.71
679.542	0.71
679.983	0.71
680.424	0.71
680.864	0.72
681.305	0.72
681.745	0.72
682.186	0.72
682.626	0.72
683.067	0.72
683.507	0.73
683.948	0.73
684.388	0.73
684.828	0.73
685.269	0.73
685.709	0.74
686.149	0.74
686.589	0.74
687.029	0.74
687.47	0.74
687.91	0.74
688.35	0.74
688.79	0.74
689.23	0.74
689.67	0.74
690.11	0.74
690.55	0.74
690.99	0.74
691.43	0.74
691.87	0.74
692.31	0.74
692.749	0.74
693.189	0.75
693.629	0.75
694.069	0.75
694.508	0.74
694.948	0.75
695.388	0.75
695.827	0.75
696.267	0.75
696.706	0.75
697.146	0.75
697.586	0.75
698.025	0.75
698.464	0.74
698.904	0.74
699.343	0.74
699.783	0.74
700.222	0.74
700.661	0.74
701.101	0.74
701.54	0.73
701.979	0.73
702.418	0.73
702.857	0.73
703.297	0.73
703.736	0.73
704.175	0.73
704.614	0.73
705.053	0.73
705.492	0.73
705.931	0.73
706.37	0.73
706.809	0.73
707.248	0.72
707.687	0.72
708.125	0.72
708.564	0.72
709.003	0.72
709.442	0.72
709.88	0.71
710.319	0.71
710.758	0.71
711.196	0.7
711.635	0.7
712.074	0.7
712.512	0.7
712.951	0.7
713.389	0.69
713.828	0.69
714.266	0.69
714.705	0.69
715.143	0.68
715.581	0.68
716.02	0.68
716.458	0.67
716.896	0.67
717.334	0.67
717.773	0.67
718.211	0.66
718.649	0.66
719.087	0.66
719.525	0.66
719.963	0.66
720.401	0.65
720.839	0.65
721.277	0.65
721.715	0.64
722.153	0.64
722.591	0.64
723.029	0.63
723.467	0.63
723.905	0.63
724.342	0.63
724.78	0.62
725.218	0.62
725.656	0.62
726.093	0.62
726.531	0.61
726.969	0.61
727.406	0.61
727.844	0.61
728.281	0.61
728.719	0.61
729.156	0.6
729.594	0.6
730.031	0.6
730.469	0.6
730.906	0.6
731.343	0.59
731.781	0.59
732.218	0.59
732.655	0.59
733.092	0.59
733.53	0.58
733.967	0.58
734.404	0.58
734.841	0.58
735.278	0.57
735.715	0.57
736.152	0.57
736.589	0.56
737.026	0.56
737.463	0.56
737.9	0.56
738.337	0.55
738.774	0.55
739.211	0.54
739.647	0.54
740.084	0.54
740.521	0.53
740.958	0.53
741.394	0.53
741.831	0.52
742.268	0.52
742.704	0.51
743.141	0.51
743.577	0.5
744.014	0.5
744.45	0.49
744.887	0.49
745.323	0.49
745.76	0.48
746.196	0.48
746.632	0.48
747.069	0.48
747.505	0.47
747.941	0.47
748.378	0.47
748.814	0.47
749.25	0.47
749.686	0.47
750.122	0.47
750.558	0.47
750.994	0.46
751.43	0.46
751.866	0.46
752.302	0.46
752.738	0.46
753.174	0.46
753.61	0.46
754.046	0.45
754.482	0.45
754.918	0.45
755.354	0.45
755.789	0.45
756.225	0.45
756.661	0.45
757.096	0.45
757.532	0.44
757.968	0.44
758.403	0.44
758.839	0.44
759.274	0.43
759.71	0.43
760.145	0.42
760.581	0.42
761.016	0.41
761.452	0.41
761.887	0.41
762.322	0.4
762.758	0.4
763.193	0.4
763.628	0.39
764.063	0.39
764.499	0.38
764.934	0.38
765.369	0.37
765.804	0.37
766.239	0.37
766.674	0.36
767.109	0.36
767.544	0.35
767.979	0.34
768.414	0.34
768.849	0.33
769.284	0.33
769.719	0.33
770.154	0.32
770.588	0.32
771.023	0.31
771.458	0.3
771.893	0.3
772.327	0.29
772.762	0.29
773.197	0.28
773.631	0.27
774.066	0.27
774.5	0.26
774.935	0.25
775.369	0.25
775.804	0.24
776.238	0.23
776.673	0.22
777.107	0.22
777.541	0.21
777.976	0.2
778.41	0.19
778.844	0.18
779.279	0.18
779.713	0.17
780.147	0.16
780.581	0.15
781.015	0.14
781.449	0.13
781.883	0.11
782.317	0.1
782.751	0.08
783.185	0.07
783.619	0.06
784.053	0.04
784.487	0.02
784.921	0
785.355	-0.01
785.789	-0.02
786.223	-0.03
786.656	-0.03
787.09	-0.04
787.524	-0.04
787.957	-0.05
788.391	-0.05
788.825	-0.06
789.258	-0.06
789.692	-0.06
790.125	-0.05
790.559	-0.06
790.992	-0.06
791.426	-0.06
791.859	-0.06
792.293	-0.05
792.726	-0.04
793.159	-0.04
793.593	-0.04
794.026	-0.04
794.459	-0.04
794.892	-0.05
795.326	-0.05
795.759	-0.05
796.192	-0.05
796.625	-0.06
797.058	-0.06
797.491	-0.07
797.924	-0.08
798.357	-0.08
798.79	-0.08
799.223	-0.08
799.656	-0.08
800.089	-0.08
800.522	-0.08
800.955	-0.09
801.387	-0.09
801.82	-0.09
802.253	-0.09
802.686	-0.09
803.118	-0.09
803.551	-0.09
803.984	-0.08
804.416	-0.08
804.849	-0.07
805.281	-0.07
805.714	-0.07
806.146	-0.07
806.579	-0.07
807.011	-0.07
807.444	-0.07
807.876	-0.07
808.308	-0.07
808.741	-0.07
809.173	-0.08
809.605	-0.08
810.037	-0.08
810.47	-0.08
810.902	-0.08
811.334	-0.08
811.766	-0.08
812.198	-0.08
812.63	-0.08
813.062	-0.08
813.494	-0.08
813.926	-0.08
814.358	-0.08
814.79	-0.07
815.222	-0.07
815.654	-0.07
816.086	-0.07
816.518	-0.08
816.949	-0.08
817.381	-0.08
817.813	-0.08
818.245	-0.07
818.676	-0.07
819.108	-0.06
819.54	-0.05
819.971	-0.05
820.403	-0.04
820.834	-0.03
821.266	-0.02
821.697	-0
822.129	0.01
822.56	0.03
822.991	0.04
823.423	0.05
823.854	0.06
824.286	0.07
824.717	0.09
825.148	0.1
825.579	0.11
826.01	0.12
826.442	0.13
826.873	0.13
827.304	0.14
827.735	0.15
828.166	0.15
828.597	0.16
829.028	0.16
829.459	0.17
829.89	0.17
830.321	0.17
830.752	0.18
831.183	0.18
831.613	0.19
832.044	0.19
832.475	0.19
832.906	0.19
833.336	0.2
833.767	0.2
834.198	0.2
834.628	0.2
835.059	0.21
835.49	0.21
835.92	0.21
836.351	0.21
836.781	0.21
837.212	0.22
837.642	0.22
838.072	0.22
838.503	0.22
838.933	0.22
839.364	0.22
839.794	0.22
840.224	0.22
840.654	0.22
841.085	0.22
841.515	0.22
841.945	0.22
842.375	0.22
842.805	0.22
843.235	0.22
843.665	0.22
844.095	0.22
844.525	0.22
844.955	0.22
845.385	0.21
845.815	0.21
846.245	0.21
846.675	0.21
847.105	0.21
847.534	0.21
847.964	0.21
848.394	0.21
848.824	0.22
849.253	0.22
849.683	0.22
850.112	0.22
850.542	0.22
850.972	0.22
851.401	0.22
851.831	0.22
852.26	0.22
852.69	0.22
853.119	0.22
853.548	0.22
853.978	0.22
854.407	0.22
854.836	0.22
855.266	0.22
855.695	0.22
856.124	0.22
856.553	0.21
856.983	0.21
857.412	0.21
857.841	0.21
858.27	0.21
858.699	0.21
859.128	0.21
859.557	0.21
859.986	0.21
860.415	0.2
860.844	0.2
861.273	0.2
861.702	0.2
862.13	0.2
862.559	0.2
862.988	0.2
863.417	0.2
863.845	0.2
864.274	0.2
864.703	0.2
865.131	0.2
865.56	0.2
865.989	0.2
866.417	0.2
866.846	0.2
867.274	0.2
867.703	0.2
868.131	0.2
868.559	0.2
868.988	0.2
869.416	0.2
869.844	0.2
870.273	0.2
870.701	0.2
871.129	0.2
871.557	0.2
871.986	0.2
872.414	0.19
872.842	0.19
873.27	0.19
873.698	0.19
874.126	0.19
874.554	0.19
874.982	0.19
875.41	0.19
875.838	0.19
876.266	0.19
876.694	0.19
877.122	0.19
877.549	0.19
877.977	0.19
878.405	0.19
878.833	0.19
879.26	0.19
879.688	0.19
880.116	0.19
880.543	0.19
880.971	0.19
881.399	0.19
881.826	0.19
882.254	0.19
882.681	0.19
883.109	0.19
883.536	0.19
883.963	0.19
884.391	0.19
884.818	0.19
885.245	0.19
885.673	0.19
886.1	0.19
886.527	0.19
886.954	0.19
887.381	0.19
887.809	0.19
888.236	0.19
888.663	0.19
889.09	0.19
889.517	0.19
889.944	0.19
890.371	0.19
890.798	0.19
891.225	0.18
891.652	0.18
892.078	0.18
892.505	0.18
892.932	0.18
893.359	0.18
893.786	0.18
894.212	0.18
894.639	0.18
895.066	0.18
895.492	0.18
895.919	0.18
896.346	0.18
896.772	0.18
897.199	0.18
897.625	0.18
898.052	0.18
898.478	0.18
898.904	0.18
899.331	0.18
899.757	0.17
900.183	0.17
900.61	0.18
901.036	0.18
901.462	0.18
901.888	0.18
902.315	0.18
902.741	0.18
903.167	0.18
903.593	0.18
904.019	0.18
904.445	0.18
904.871	0.18
905.297	0.17
905.723	0.17
906.149	0.17
906.575	0.17
907.001	0.17
907.427	0.17
907.852	0.17
908.278	0.17
908.704	0.17
909.13	0.17
909.555	0.17
909.981	0.17
910.407	0.17
910.832	0.17
911.258	0.17
911.684	0.17
912.109	0.17
912.535	0.17
912.96	0.17
913.386	0.17
913.811	0.17
914.236	0.17
914.662	0.17
915.087	0.17
915.512	0.17
915.938	0.17
916.363	0.17
916.788	0.17
917.213	0.17
917.639	0.17
918.064	0.17
918.489	0.17
918.914	0.17
919.339	0.17
919.764	0.17
920.189	0.17
920.614	0.17
921.039	0.17
921.464	0.17
921.889	0.17
922.314	0.17
922.738	0.17
923.163	0.16
923.588	0.16
924.013	0.16
924.437	0.16
924.862	0.16
925.287	0.16
925.711	0.16
926.136	0.16
926.561	0.16
926.985	0.16
927.41	0.16
927.834	0.16
928.259	0.16
928.683	0.16
929.108	0.16
929.532	0.16
929.956	0.16
930.381	0.16
930.805	0.15
931.229	0.15
931.653	0.15
932.078	0.15
932.502	0.15
932.926	0.15
933.35	0.15
933.774	0.14
934.198	0.14
934.622	0.14
935.046	0.14
935.47	0.14
935.894	0.14
936.318	0.14
936.742	0.14
937.166	0.14
937.59	0.14
938.014	0.14
938.437	0.14
938.861	0.15
939.285	0.15
939.709	0.15
940.132	0.15
940.556	0.15
940.98	0.15
941.403	0.15
941.827	0.15
942.25	0.15
942.674	0.15
943.097	0.15
943.521	0.15
943.944	0.15
944.368	0.15
944.791	0.15
945.214	0.15
945.638	0.15
946.061	0.15
946.484	0.14
946.907	0.14
947.331	0.14
947.754	0.14
948.177	0.14
948.6	0.14
949.023	0.14
949.446	0.14
949.869	0.14
950.292	0.14
950.715	0.14
951.138	0.14
951.561	0.14
951.984	0.13
952.407	0.13
952.83	0.13
953.252	0.13
953.675	0.13
954.098	0.13
954.521	0.13
954.943	0.13
955.366	0.13
955.789	0.13
956.211	0.13
956.634	0.13
957.056	0.13
957.479	0.13
957.902	0.13
958.324	0.13
958.746	0.13
959.169	0.13
959.591	0.13
960.014	0.13
960.436	0.13
960.858	0.13
961.281	0.13
961.703	0.13
962.125	0.13
962.547	0.13
962.969	0.13
963.391	0.13
963.814	0.14
964.236	0.14
964.658	0.14
965.08	0.14
965.502	0.14
965.924	0.14
966.346	0.14
966.768	0.14
967.189	0.14
967.611	0.14
968.033	0.13
968.455	0.13
968.877	0.13
969.298	0.13
969.72	0.13
970.142	0.13
970.563	0.13
970.985	0.13
971.407	0.13
971.828	0.13
972.25	0.13
972.671	0.13
973.093	0.13
973.514	0.13
973.936	0.13
974.357	0.13
974.778	0.13
975.2	0.13
975.621	0.13
976.042	0.13
976.464	0.13
976.885	0.13
977.306	0.13
977.727	0.13
978.148	0.13
978.57	0.13
978.991	0.13
979.412	0.13
979.833	0.13
980.254	0.12
980.675	0.12
981.096	0.12
981.517	0.12
981.937	0.12
982.358	0.12
982.779	0.12
983.2	0.12
983.621	0.12
984.042	0.12
984.462	0.12
984.883	0.12
985.304	0.12
985.724	0.12
986.145	0.12
986.565	0.12
986.986	0.12
987.407	0.12
987.827	0.12
988.248	0.12
988.668	0.12
989.088	0.12
989.509	0.12
989.929	0.12
990.35	0.12
990.77	0.12
991.19	0.12
991.61	0.12
992.031	0.12
992.451	0.12
992.871	0.12
993.291	0.11
993.711	0.11
994.131	0.11
994.551	0.11
994.971	0.11
995.391	0.11
995.811	0.11
996.231	0.11
996.651	0.11
997.071	0.11
997.491	0.11
997.911	0.11
998.331	0.11
998.75	0.11
999.17	0.11
999.59	0.11
1000.009	0.11
1000.429	0.11
1000.849	0.11
1001.268	0.11
1001.688	0.11
1002.107	0.11
1002.527	0.11
1002.946	0.11
1003.366	0.11
1003.785	0.11
1004.205	0.11
1004.624	0.11
1005.044	0.11
1005.463	0.11
1005.882	0.11
1006.301	0.11
1006.721	0.11
1007.14	0.11
1007.559	0.11
1007.978	0.11
1008.397	0.11
1008.816	0.11
1009.235	0.11
1009.655	0.11
1010.074	0.11
1010.492	0.1
1010.911	0.1
1011.33	0.1
1011.749	0.1
1012.168	0.1
1012.587	0.1
1013.006	0.1
1013.425	0.1
1013.843	0.1
1014.262	0.1
1014.681	0.1
1015.099	0.1
1015.518	0.1
1015.937	0.1
1016.355	0.1
1016.774	0.1
1017.192	0.1
1017.611	0.1
1018.029	0.1
1018.448	0.1
1018.866	0.1
1019.285	0.1
1019.703	0.1
1020.121	0.1
1020.54	0.1
1020.958	0.1
1021.376	0.1
1021.794	0.1
1022.213	0.1
1022.631	0.11
1023.049	0.11
1023.467	0.11
1023.885	0.11
1024.303	0.11
1024.721	0.11
1025.139	0.11
1025.557	0.11
1025.975	0.11
1026.393	0.11
1026.811	0.11
1027.229	0.11
1027.647	0.11
1028.065	0.11
1028.482	0.11
1028.9	0.11
1029.318	0.11
1029.735	0.11
1030.153	0.11
1030.571	0.12
1030.988	0.12
1031.406	0.12
1031.823	0.12
1032.241	0.12
1032.659	0.12
1033.076	0.12
1033.493	0.12
1033.911	0.12
1034.328	0.12
1034.746	0.11
1035.163	0.11
1035.58	0.11
1035.997	0.11
1036.415	0.11
1036.832	0.11
1037.249	0.11
1037.666	0.11
1038.083	0.11
1038.501	0.11
1038.918	0.11
1039.335	0.11
1039.752	0.11
1040.169	0.11
1040.586	0.11
1041.003	0.11
1041.419	0.11
1041.836	0.11
1042.253	0.11
1042.67	0.11
1043.087	0.11
1043.504	0.11
1043.92	0.11
1044.337	0.11
1044.754	0.11
1045.17	0.11
1045.587	0.11
1046.004	0.11
1046.42	0.11
1046.837	0.11
1047.253	0.11
1047.67	0.11
1048.086	0.11
1048.503	0.11
1048.919	0.11
1049.335	0.11
1049.752	0.11
1050.168	0.11
1050.584	0.11
1051.001	0.11
1051.417	0.11
1051.833	0.11
1052.249	0.11
1052.665	0.11
1053.081	0.11
1053.497	0.11
1053.914	0.11
1054.33	0.11
1054.746	0.11
1055.162	0.11
1055.578	0.11
1055.993	0.11
1056.409	0.11
1056.825	0.11
1057.241	0.11
1057.657	0.11
1058.073	0.11
1058.488	0.11
1058.904	0.11
1059.32	0.11
1059.736	0.11
1060.151	0.11
1060.567	0.11
1060.982	0.11
1061.398	0.11
1061.813	0.11
1062.229	0.11
1062.644	0.11
1063.06	0.11
1063.475	0.11
1063.891	0.11
1064.306	0.11
1064.721	0.11
1065.137	0.11
1065.552	0.11
1065.967	0.11
1066.382	0.11
1066.798	0.11
1067.213	0.11
1067.628	0.11
1068.043	0.11
1068.458	0.11
1068.873	0.11
1069.288	0.11
1069.703	0.11
1070.118	0.12
1070.533	0.12
1070.948	0.12
1071.363	0.12
1071.778	0.12
1072.193	0.12
1072.607	0.12
1073.022	0.12
1073.437	0.12
1073.852	0.12
1074.266	0.12
1074.681	0.12
1075.096	0.12
1075.51	0.12
1075.925	0.12
1076.339	0.12
1076.754	0.12
1077.168	0.12
1077.583	0.12
1077.997	0.12
1078.412	0.12
1078.826	0.12
1079.24	0.12
1079.655	0.13
1080.069	0.13
1080.483	0.13
1080.897	0.13
1081.312	0.13
1081.726	0.13
1082.14	0.13
1082.554	0.13
1082.968	0.14
1083.382	0.14
1083.796	0.14
1084.21	0.14
1084.624	0.14
1085.038	0.15
1085.452	0.15
1085.866	0.15
1086.28	0.15
1086.694	0.15
1087.108	0.15
1087.521	0.16
1087.935	0.16
1088.349	0.16
1088.763	0.16
1089.176	0.17
1089.59	0.17
1090.004	0.17
1090.417	0.18
1090.831	0.18
1091.244	0.18
1091.658	0.19
1092.071	0.19
1092.485	0.2
1092.898	0.21
1093.312	0.21
1093.725	0.22
1094.138	0.23
1094.552	0.23
1094.965	0.24
1095.378	0.25
1095.791	0.26
1096.205	0.27
1096.618	0.28
1097.031	0.29
1097.444	0.3
1097.857	0.31
1098.27	0.32
1098.683	0.33
1099.096	0.35
1099.509	0.36
1099.922	0.38
1100.335	0.4
1100.748	0.42
1101.161	0.44
1101.574	0.47
1101.986	0.5
1102.399	0.54
1102.812	0.59
1103.225	0.64
1103.637	0.69
1104.05	0.76
1104.463	0.85
1104.875	0.96
1105.288	1.13
1105.7	1.38
1106.113	2.83
1106.525	-0
1106.938	-0
1107.35	-0
1107.763	-0
1108.175	-0
1108.588	-0
1109	-0
1109.412	-0
1109.824	-0
1110.237	-0
1110.649	-0
1111.061	-0
