Data from unagg-15c-2a-1h_Absorbance__278__00705.txt Node

Date: Mon May 06 09:42:00 CEST 2024
User: Laser008
Spectrometer: MAYP115816
Trigger mode: 0
Integration Time (sec): 2.000000E-1
Scans to average: 10
Electric dark correction enabled: true
Nonlinearity correction enabled: true
Boxcar width: 5
XAxis mode: Wavelengths
Number of Pixels in Spectrum: 2068
>>>>>Begin Spectral Data<<<<<
198.914	-1.88
199.384	-1.74
199.855	-1.59
200.325	-1.47
200.796	-1.39
201.266	-1.34
201.737	-1.27
202.207	-1.2
202.677	-1.15
203.147	-1.11
203.618	-1.08
204.088	-1.05
204.558	-1.03
205.028	-1.02
205.498	-1.02
205.968	-1.01
206.439	-1.01
206.909	-1.01
207.379	-1.01
207.849	-1
208.319	-1
208.789	-1
209.258	-1
209.728	-0.99
210.198	-0.99
210.668	-0.99
211.138	-0.99
211.608	-0.99
212.077	-0.99
212.547	-0.99
213.017	-0.99
213.486	-0.99
213.956	-0.98
214.426	-0.99
214.895	-0.98
215.365	-0.98
215.834	-0.98
216.304	-0.98
216.773	-0.98
217.243	-0.97
217.712	-0.97
218.181	-0.97
218.651	-0.97
219.12	-0.96
219.589	-0.96
220.058	-0.96
220.528	-0.96
220.997	-0.96
221.466	-0.95
221.935	-0.95
222.404	-0.94
222.873	-0.94
223.342	-0.93
223.812	-0.93
224.281	-0.92
224.749	-0.91
225.218	-0.9
225.687	-0.89
226.156	-0.88
226.625	-0.86
227.094	-0.85
227.563	-0.83
228.031	-0.81
228.5	-0.79
228.969	-0.77
229.438	-0.74
229.906	-0.71
230.375	-0.67
230.844	-0.64
231.312	-0.6
231.781	-0.55
232.249	-0.51
232.718	-0.47
233.186	-0.42
233.655	-0.37
234.123	-0.33
234.591	-0.28
235.06	-0.23
235.528	-0.19
235.996	-0.14
236.465	-0.1
236.933	-0.06
237.401	-0.02
237.869	0.02
238.337	0.05
238.805	0.08
239.274	0.11
239.742	0.14
240.21	0.17
240.678	0.2
241.146	0.22
241.614	0.24
242.081	0.26
242.549	0.28
243.017	0.3
243.485	0.32
243.953	0.33
244.421	0.35
244.888	0.36
245.356	0.37
245.824	0.39
246.291	0.4
246.759	0.41
247.227	0.42
247.694	0.43
248.162	0.44
248.629	0.45
249.097	0.45
249.564	0.46
250.032	0.47
250.499	0.48
250.967	0.48
251.434	0.49
251.901	0.5
252.369	0.5
252.836	0.51
253.303	0.51
253.77	0.52
254.237	0.52
254.705	0.53
255.172	0.53
255.639	0.54
256.106	0.54
256.573	0.54
257.04	0.55
257.507	0.55
257.974	0.55
258.441	0.55
258.908	0.56
259.375	0.56
259.841	0.56
260.308	0.56
260.775	0.56
261.242	0.56
261.709	0.56
262.175	0.57
262.642	0.57
263.109	0.57
263.575	0.57
264.042	0.57
264.508	0.57
264.975	0.57
265.441	0.57
265.908	0.57
266.374	0.57
266.841	0.57
267.307	0.56
267.773	0.56
268.24	0.56
268.706	0.56
269.172	0.56
269.639	0.56
270.105	0.56
270.571	0.55
271.037	0.55
271.503	0.55
271.969	0.55
272.435	0.55
272.902	0.54
273.368	0.54
273.834	0.54
274.3	0.54
274.765	0.54
275.231	0.53
275.697	0.53
276.163	0.53
276.629	0.52
277.095	0.52
277.56	0.52
278.026	0.52
278.492	0.51
278.958	0.51
279.423	0.51
279.889	0.5
280.354	0.5
280.82	0.5
281.286	0.5
281.751	0.5
282.217	0.49
282.682	0.49
283.147	0.49
283.613	0.49
284.078	0.49
284.544	0.48
285.009	0.48
285.474	0.48
285.939	0.48
286.405	0.48
286.87	0.47
287.335	0.47
287.8	0.47
288.265	0.47
288.73	0.47
289.195	0.46
289.66	0.46
290.125	0.46
290.59	0.46
291.055	0.46
291.52	0.46
291.985	0.45
292.45	0.45
292.915	0.45
293.38	0.45
293.844	0.45
294.309	0.45
294.774	0.45
295.239	0.45
295.703	0.45
296.168	0.44
296.632	0.44
297.097	0.44
297.562	0.44
298.026	0.44
298.491	0.44
298.955	0.44
299.419	0.44
299.884	0.44
300.348	0.44
300.813	0.44
301.277	0.44
301.741	0.44
302.205	0.44
302.67	0.44
303.134	0.44
303.598	0.44
304.062	0.43
304.526	0.43
304.99	0.43
305.454	0.43
305.919	0.43
306.383	0.43
306.847	0.43
307.31	0.43
307.774	0.43
308.238	0.43
308.702	0.43
309.166	0.43
309.63	0.43
310.094	0.43
310.557	0.43
311.021	0.43
311.485	0.43
311.948	0.43
312.412	0.43
312.876	0.43
313.339	0.43
313.803	0.43
314.266	0.43
314.73	0.43
315.193	0.43
315.657	0.43
316.12	0.43
316.584	0.42
317.047	0.42
317.51	0.42
317.973	0.42
318.437	0.42
318.9	0.42
319.363	0.42
319.826	0.42
320.29	0.42
320.753	0.42
321.216	0.42
321.679	0.42
322.142	0.42
322.605	0.42
323.068	0.42
323.531	0.42
323.994	0.42
324.457	0.42
324.92	0.42
325.382	0.42
325.845	0.42
326.308	0.42
326.771	0.41
327.233	0.41
327.696	0.41
328.159	0.41
328.622	0.41
329.084	0.41
329.547	0.41
330.009	0.41
330.472	0.41
330.934	0.41
331.397	0.41
331.859	0.41
332.322	0.41
332.784	0.41
333.246	0.41
333.709	0.41
334.171	0.41
334.633	0.41
335.096	0.4
335.558	0.4
336.02	0.4
336.482	0.4
336.944	0.4
337.406	0.4
337.868	0.4
338.331	0.4
338.793	0.4
339.255	0.4
339.717	0.4
340.178	0.4
340.64	0.4
341.102	0.4
341.564	0.4
342.026	0.4
342.488	0.4
342.949	0.4
343.411	0.4
343.873	0.4
344.335	0.39
344.796	0.39
345.258	0.39
345.719	0.39
346.181	0.39
346.643	0.39
347.104	0.39
347.566	0.39
348.027	0.39
348.488	0.39
348.95	0.39
349.411	0.39
349.873	0.39
350.334	0.39
350.795	0.39
351.256	0.39
351.718	0.39
352.179	0.39
352.64	0.38
353.101	0.38
353.562	0.38
354.023	0.38
354.484	0.38
354.945	0.38
355.406	0.38
355.867	0.38
356.328	0.38
356.789	0.38
357.25	0.38
357.711	0.38
358.172	0.38
358.633	0.38
359.093	0.38
359.554	0.38
360.015	0.38
360.476	0.38
360.936	0.38
361.397	0.38
361.858	0.38
362.318	0.38
362.779	0.38
363.239	0.38
363.7	0.38
364.16	0.38
364.621	0.38
365.081	0.38
365.541	0.38
366.002	0.38
366.462	0.38
366.922	0.38
367.383	0.38
367.843	0.38
368.303	0.38
368.763	0.38
369.223	0.38
369.684	0.38
370.144	0.38
370.604	0.38
371.064	0.38
371.524	0.38
371.984	0.38
372.444	0.38
372.904	0.38
373.363	0.38
373.823	0.38
374.283	0.38
374.743	0.38
375.203	0.38
375.663	0.38
376.122	0.38
376.582	0.38
377.042	0.38
377.501	0.38
377.961	0.38
378.42	0.38
378.88	0.38
379.34	0.38
379.799	0.38
380.259	0.38
380.718	0.38
381.177	0.38
381.637	0.38
382.096	0.38
382.555	0.38
383.015	0.38
383.474	0.38
383.933	0.38
384.393	0.38
384.852	0.38
385.311	0.38
385.77	0.38
386.229	0.38
386.688	0.38
387.147	0.38
387.606	0.38
388.065	0.38
388.524	0.38
388.983	0.38
389.442	0.38
389.901	0.38
390.36	0.38
390.819	0.38
391.277	0.38
391.736	0.38
392.195	0.38
392.654	0.38
393.112	0.38
393.571	0.38
394.03	0.38
394.488	0.38
394.947	0.38
395.405	0.38
395.864	0.38
396.322	0.38
396.781	0.38
397.239	0.38
397.698	0.38
398.156	0.38
398.614	0.38
399.073	0.38
399.531	0.38
399.989	0.38
400.447	0.38
400.905	0.38
401.364	0.38
401.822	0.38
402.28	0.38
402.738	0.38
403.196	0.38
403.654	0.38
404.112	0.38
404.57	0.38
405.028	0.38
405.486	0.38
405.944	0.38
406.402	0.38
406.859	0.38
407.317	0.38
407.775	0.38
408.233	0.38
408.691	0.38
409.148	0.37
409.606	0.37
410.064	0.37
410.521	0.37
410.979	0.37
411.436	0.37
411.894	0.37
412.351	0.37
412.809	0.37
413.266	0.37
413.724	0.37
414.181	0.37
414.638	0.37
415.096	0.37
415.553	0.37
416.01	0.37
416.467	0.37
416.925	0.37
417.382	0.37
417.839	0.37
418.296	0.37
418.753	0.37
419.21	0.37
419.667	0.37
420.124	0.37
420.581	0.37
421.038	0.37
421.495	0.37
421.952	0.37
422.409	0.37
422.866	0.37
423.322	0.37
423.779	0.37
424.236	0.37
424.693	0.37
425.149	0.37
425.606	0.37
426.063	0.37
426.519	0.37
426.976	0.37
427.433	0.37
427.889	0.37
428.346	0.37
428.802	0.37
429.258	0.37
429.715	0.37
430.171	0.37
430.628	0.37
431.084	0.37
431.54	0.37
431.997	0.37
432.453	0.37
432.909	0.37
433.365	0.37
433.821	0.37
434.277	0.37
434.734	0.37
435.19	0.37
435.646	0.37
436.102	0.37
436.558	0.37
437.014	0.36
437.47	0.36
437.925	0.36
438.381	0.36
438.837	0.36
439.293	0.36
439.749	0.36
440.205	0.36
440.66	0.36
441.116	0.36
441.572	0.36
442.027	0.36
442.483	0.36
442.939	0.36
443.394	0.36
443.85	0.36
444.305	0.36
444.761	0.36
445.216	0.36
445.672	0.36
446.127	0.36
446.582	0.36
447.038	0.36
447.493	0.36
447.948	0.36
448.403	0.36
448.859	0.36
449.314	0.36
449.769	0.36
450.224	0.36
450.679	0.36
451.134	0.36
451.589	0.36
452.044	0.36
452.499	0.36
452.954	0.36
453.409	0.36
453.864	0.36
454.319	0.36
454.774	0.35
455.229	0.35
455.684	0.35
456.138	0.35
456.593	0.35
457.048	0.35
457.503	0.35
457.957	0.35
458.412	0.35
458.866	0.35
459.321	0.35
459.776	0.35
460.23	0.35
460.685	0.35
461.139	0.35
461.593	0.35
462.048	0.35
462.502	0.35
462.957	0.35
463.411	0.35
463.865	0.35
464.319	0.35
464.774	0.35
465.228	0.35
465.682	0.35
466.136	0.35
466.59	0.35
467.044	0.35
467.499	0.35
467.953	0.35
468.407	0.34
468.861	0.34
469.315	0.34
469.768	0.34
470.222	0.34
470.676	0.34
471.13	0.34
471.584	0.34
472.038	0.34
472.491	0.34
472.945	0.34
473.399	0.34
473.852	0.34
474.306	0.34
474.76	0.34
475.213	0.34
475.667	0.34
476.12	0.34
476.574	0.34
477.027	0.34
477.481	0.34
477.934	0.34
478.388	0.34
478.841	0.34
479.294	0.34
479.748	0.34
480.201	0.34
480.654	0.34
481.107	0.34
481.561	0.34
482.014	0.34
482.467	0.34
482.92	0.35
483.373	0.35
483.826	0.35
484.279	0.35
484.732	0.35
485.185	0.35
485.638	0.35
486.091	0.36
486.544	0.36
486.997	0.36
487.449	0.36
487.902	0.36
488.355	0.35
488.808	0.35
489.26	0.35
489.713	0.35
490.166	0.35
490.618	0.35
491.071	0.35
491.523	0.35
491.976	0.35
492.429	0.35
492.881	0.35
493.333	0.35
493.786	0.35
494.238	0.35
494.691	0.35
495.143	0.35
495.595	0.36
496.048	0.36
496.5	0.36
496.952	0.36
497.404	0.36
497.856	0.36
498.309	0.36
498.761	0.36
499.213	0.36
499.665	0.36
500.117	0.36
500.569	0.36
501.021	0.36
501.473	0.37
501.925	0.37
502.377	0.37
502.828	0.37
503.28	0.37
503.732	0.37
504.184	0.37
504.636	0.37
505.087	0.37
505.539	0.37
505.991	0.37
506.442	0.38
506.894	0.38
507.345	0.38
507.797	0.38
508.249	0.38
508.7	0.38
509.151	0.38
509.603	0.38
510.054	0.38
510.506	0.38
510.957	0.38
511.408	0.38
511.86	0.38
512.311	0.38
512.762	0.38
513.213	0.38
513.665	0.38
514.116	0.38
514.567	0.38
515.018	0.38
515.469	0.38
515.92	0.38
516.371	0.38
516.822	0.38
517.273	0.39
517.724	0.39
518.175	0.39
518.626	0.39
519.076	0.38
519.527	0.38
519.978	0.38
520.429	0.38
520.88	0.38
521.33	0.37
521.781	0.37
522.232	0.37
522.682	0.37
523.133	0.37
523.583	0.38
524.034	0.38
524.484	0.39
524.935	0.39
525.385	0.39
525.836	0.4
526.286	0.4
526.736	0.41
527.187	0.41
527.637	0.41
528.087	0.42
528.538	0.42
528.988	0.42
529.438	0.42
529.888	0.42
530.338	0.43
530.788	0.43
531.238	0.43
531.688	0.43
532.139	0.43
532.589	0.43
533.038	0.43
533.488	0.44
533.938	0.44
534.388	0.44
534.838	0.44
535.288	0.44
535.738	0.44
536.187	0.44
536.637	0.45
537.087	0.45
537.537	0.45
537.986	0.45
538.436	0.45
538.885	0.45
539.335	0.45
539.785	0.45
540.234	0.45
540.684	0.46
541.133	0.46
541.582	0.46
542.032	0.46
542.481	0.46
542.931	0.46
543.38	0.46
543.829	0.46
544.278	0.46
544.728	0.46
545.177	0.47
545.626	0.47
546.075	0.47
546.524	0.47
546.973	0.47
547.422	0.47
547.871	0.47
548.32	0.47
548.769	0.47
549.218	0.47
549.667	0.47
550.116	0.48
550.565	0.48
551.014	0.48
551.463	0.48
551.911	0.48
552.36	0.48
552.809	0.48
553.258	0.48
553.706	0.49
554.155	0.49
554.603	0.49
555.052	0.49
555.501	0.49
555.949	0.49
556.398	0.48
556.846	0.48
557.294	0.48
557.743	0.48
558.191	0.48
558.64	0.48
559.088	0.49
559.536	0.49
559.985	0.49
560.433	0.49
560.881	0.49
561.329	0.5
561.777	0.5
562.225	0.5
562.674	0.5
563.122	0.5
563.57	0.5
564.018	0.5
564.466	0.5
564.914	0.5
565.362	0.5
565.809	0.5
566.257	0.5
566.705	0.5
567.153	0.51
567.601	0.51
568.048	0.51
568.496	0.52
568.944	0.52
569.392	0.53
569.839	0.53
570.287	0.54
570.734	0.54
571.182	0.54
571.63	0.55
572.077	0.55
572.525	0.55
572.972	0.55
573.419	0.55
573.867	0.56
574.314	0.56
574.761	0.56
575.209	0.56
575.656	0.56
576.103	0.56
576.551	0.56
576.998	0.57
577.445	0.57
577.892	0.56
578.339	0.57
578.786	0.57
579.233	0.57
579.68	0.57
580.127	0.57
580.574	0.57
581.021	0.57
581.468	0.57
581.915	0.57
582.362	0.57
582.809	0.57
583.255	0.57
583.702	0.57
584.149	0.56
584.596	0.56
585.042	0.56
585.489	0.56
585.936	0.56
586.382	0.56
586.829	0.56
587.275	0.56
587.722	0.55
588.168	0.55
588.615	0.55
589.061	0.54
589.508	0.54
589.954	0.54
590.4	0.54
590.847	0.54
591.293	0.54
591.739	0.54
592.185	0.54
592.632	0.54
593.078	0.54
593.524	0.54
593.97	0.54
594.416	0.54
594.862	0.54
595.308	0.53
595.754	0.53
596.2	0.53
596.646	0.53
597.092	0.53
597.538	0.53
597.984	0.53
598.43	0.53
598.876	0.53
599.321	0.53
599.767	0.53
600.213	0.53
600.659	0.53
601.104	0.53
601.55	0.52
601.995	0.52
602.441	0.52
602.887	0.52
603.332	0.52
603.778	0.51
604.223	0.51
604.668	0.52
605.114	0.52
605.559	0.52
606.005	0.52
606.45	0.51
606.895	0.51
607.341	0.51
607.786	0.51
608.231	0.51
608.676	0.5
609.121	0.5
609.566	0.5
610.012	0.49
610.457	0.49
610.902	0.49
611.347	0.49
611.792	0.49
612.237	0.49
612.682	0.49
613.127	0.49
613.571	0.48
614.016	0.48
614.461	0.48
614.906	0.48
615.351	0.48
615.795	0.47
616.24	0.47
616.685	0.47
617.129	0.47
617.574	0.46
618.019	0.46
618.463	0.46
618.908	0.45
619.352	0.45
619.797	0.45
620.241	0.45
620.686	0.45
621.13	0.45
621.574	0.45
622.019	0.45
622.463	0.44
622.907	0.44
623.352	0.44
623.796	0.44
624.24	0.44
624.684	0.44
625.128	0.44
625.572	0.43
626.016	0.43
626.461	0.43
626.905	0.43
627.349	0.43
627.793	0.43
628.236	0.43
628.68	0.42
629.124	0.42
629.568	0.42
630.012	0.42
630.456	0.42
630.9	0.41
631.343	0.41
631.787	0.41
632.231	0.41
632.674	0.41
633.118	0.41
633.562	0.4
634.005	0.4
634.449	0.4
634.892	0.4
635.336	0.4
635.779	0.4
636.223	0.4
636.666	0.4
637.109	0.4
637.553	0.4
637.996	0.4
638.439	0.4
638.883	0.39
639.326	0.39
639.769	0.39
640.212	0.39
640.655	0.39
641.099	0.39
641.542	0.39
641.985	0.39
642.428	0.39
642.871	0.39
643.314	0.39
643.757	0.39
644.2	0.39
644.643	0.39
645.085	0.39
645.528	0.39
645.971	0.39
646.414	0.39
646.857	0.39
647.299	0.39
647.742	0.39
648.185	0.39
648.627	0.39
649.07	0.4
649.513	0.4
649.955	0.4
650.398	0.4
650.84	0.4
651.283	0.4
651.725	0.4
652.168	0.4
652.61	0.4
653.052	0.41
653.495	0.4
653.937	0.32
654.379	0.28
654.821	0.29
655.264	0.29
655.706	0.29
656.148	0.29
656.59	0.29
657.032	0.29
657.474	0.29
657.916	0.29
658.358	0.29
658.8	0.35
659.242	0.42
659.684	0.42
660.126	0.42
660.568	0.42
661.01	0.42
661.452	0.42
661.894	0.42
662.335	0.42
662.777	0.42
663.219	0.42
663.661	0.42
664.102	0.42
664.544	0.43
664.985	0.43
665.427	0.43
665.869	0.43
666.31	0.43
666.752	0.43
667.193	0.43
667.634	0.43
668.076	0.43
668.517	0.44
668.959	0.44
669.4	0.44
669.841	0.44
670.282	0.45
670.724	0.45
671.165	0.45
671.606	0.45
672.047	0.45
672.488	0.45
672.929	0.46
673.37	0.46
673.811	0.46
674.252	0.46
674.693	0.46
675.134	0.46
675.575	0.46
676.016	0.46
676.457	0.46
676.898	0.46
677.339	0.46
677.78	0.46
678.22	0.47
678.661	0.47
679.102	0.47
679.542	0.47
679.983	0.47
680.424	0.47
680.864	0.47
681.305	0.47
681.745	0.47
682.186	0.47
682.626	0.48
683.067	0.48
683.507	0.48
683.948	0.48
684.388	0.48
684.828	0.48
685.269	0.49
685.709	0.49
686.149	0.49
686.589	0.49
687.029	0.49
687.47	0.49
687.91	0.49
688.35	0.49
688.79	0.49
689.23	0.5
689.67	0.5
690.11	0.5
690.55	0.5
690.99	0.5
691.43	0.5
691.87	0.51
692.31	0.51
692.749	0.51
693.189	0.51
693.629	0.51
694.069	0.51
694.508	0.51
694.948	0.52
695.388	0.52
695.827	0.52
696.267	0.52
696.706	0.52
697.146	0.52
697.586	0.53
698.025	0.53
698.464	0.53
698.904	0.53
699.343	0.53
699.783	0.53
700.222	0.53
700.661	0.53
701.101	0.53
701.54	0.53
701.979	0.53
702.418	0.53
702.857	0.53
703.297	0.53
703.736	0.53
704.175	0.53
704.614	0.54
705.053	0.54
705.492	0.54
705.931	0.54
706.37	0.54
706.809	0.54
707.248	0.54
707.687	0.55
708.125	0.55
708.564	0.55
709.003	0.55
709.442	0.55
709.88	0.55
710.319	0.55
710.758	0.55
711.196	0.55
711.635	0.55
712.074	0.55
712.512	0.55
712.951	0.55
713.389	0.55
713.828	0.55
714.266	0.55
714.705	0.55
715.143	0.55
715.581	0.55
716.02	0.55
716.458	0.55
716.896	0.55
717.334	0.55
717.773	0.55
718.211	0.55
718.649	0.55
719.087	0.55
719.525	0.55
719.963	0.55
720.401	0.55
720.839	0.55
721.277	0.55
721.715	0.55
722.153	0.55
722.591	0.55
723.029	0.55
723.467	0.55
723.905	0.55
724.342	0.55
724.78	0.55
725.218	0.55
725.656	0.55
726.093	0.55
726.531	0.55
726.969	0.55
727.406	0.55
727.844	0.55
728.281	0.55
728.719	0.55
729.156	0.55
729.594	0.55
730.031	0.55
730.469	0.56
730.906	0.56
731.343	0.56
731.781	0.56
732.218	0.56
732.655	0.56
733.092	0.56
733.53	0.56
733.967	0.56
734.404	0.56
734.841	0.56
735.278	0.56
735.715	0.55
736.152	0.55
736.589	0.55
737.026	0.55
737.463	0.55
737.9	0.55
738.337	0.55
738.774	0.55
739.211	0.55
739.647	0.54
740.084	0.54
740.521	0.54
740.958	0.54
741.394	0.54
741.831	0.54
742.268	0.53
742.704	0.53
743.141	0.53
743.577	0.53
744.014	0.52
744.45	0.52
744.887	0.52
745.323	0.52
745.76	0.52
746.196	0.51
746.632	0.51
747.069	0.51
747.505	0.52
747.941	0.52
748.378	0.52
748.814	0.52
749.25	0.52
749.686	0.52
750.122	0.52
750.558	0.52
750.994	0.52
751.43	0.52
751.866	0.52
752.302	0.52
752.738	0.52
753.174	0.52
753.61	0.52
754.046	0.52
754.482	0.52
754.918	0.52
755.354	0.53
755.789	0.53
756.225	0.53
756.661	0.52
757.096	0.52
757.532	0.52
757.968	0.52
758.403	0.52
758.839	0.52
759.274	0.52
759.71	0.52
760.145	0.51
760.581	0.51
761.016	0.51
761.452	0.5
761.887	0.5
762.322	0.5
762.758	0.5
763.193	0.49
763.628	0.49
764.063	0.49
764.499	0.48
764.934	0.48
765.369	0.47
765.804	0.47
766.239	0.47
766.674	0.47
767.109	0.46
767.544	0.45
767.979	0.45
768.414	0.44
768.849	0.44
769.284	0.44
769.719	0.43
770.154	0.43
770.588	0.43
771.023	0.42
771.458	0.41
771.893	0.41
772.327	0.4
772.762	0.4
773.197	0.39
773.631	0.38
774.066	0.38
774.5	0.37
774.935	0.36
775.369	0.36
775.804	0.35
776.238	0.34
776.673	0.33
777.107	0.33
777.541	0.32
777.976	0.31
778.41	0.3
778.844	0.29
779.279	0.28
779.713	0.28
780.147	0.27
780.581	0.26
781.015	0.25
781.449	0.23
781.883	0.22
782.317	0.2
782.751	0.19
783.185	0.17
783.619	0.15
784.053	0.13
784.487	0.11
784.921	0.1
785.355	0.08
785.789	0.06
786.223	0.04
786.656	0.03
787.09	0.02
787.524	0
787.957	-0.01
788.391	-0.02
788.825	-0.03
789.258	-0.04
789.692	-0.05
790.125	-0.05
790.559	-0.05
790.992	-0.06
791.426	-0.06
791.859	-0.06
792.293	-0.05
792.726	-0.04
793.159	-0.04
793.593	-0.04
794.026	-0.04
794.459	-0.04
794.892	-0.05
795.326	-0.05
795.759	-0.05
796.192	-0.05
796.625	-0.06
797.058	-0.06
797.491	-0.07
797.924	-0.08
798.357	-0.08
798.79	-0.08
799.223	-0.08
799.656	-0.08
800.089	-0.08
800.522	-0.09
800.955	-0.09
801.387	-0.09
801.82	-0.09
802.253	-0.09
802.686	-0.09
803.118	-0.09
803.551	-0.09
803.984	-0.08
804.416	-0.08
804.849	-0.07
805.281	-0.07
805.714	-0.07
806.146	-0.07
806.579	-0.07
807.011	-0.07
807.444	-0.07
807.876	-0.07
808.308	-0.07
808.741	-0.07
809.173	-0.08
809.605	-0.08
810.037	-0.08
810.47	-0.08
810.902	-0.09
811.334	-0.09
811.766	-0.08
812.198	-0.08
812.63	-0.08
813.062	-0.08
813.494	-0.08
813.926	-0.08
814.358	-0.08
814.79	-0.08
815.222	-0.07
815.654	-0.07
816.086	-0.07
816.518	-0.07
816.949	-0.07
817.381	-0.07
817.813	-0.06
818.245	-0.05
818.676	-0.03
819.108	-0.02
819.54	-0
819.971	0.01
820.403	0.03
820.834	0.05
821.266	0.08
821.697	0.1
822.129	0.12
822.56	0.14
822.991	0.15
823.423	0.17
823.854	0.18
824.286	0.2
824.717	0.21
825.148	0.23
825.579	0.25
826.01	0.26
826.442	0.27
826.873	0.28
827.304	0.29
827.735	0.3
828.166	0.31
828.597	0.32
829.028	0.33
829.459	0.33
829.89	0.34
830.321	0.34
830.752	0.35
831.183	0.36
831.613	0.36
832.044	0.37
832.475	0.37
832.906	0.38
833.336	0.38
833.767	0.38
834.198	0.39
834.628	0.39
835.059	0.39
835.49	0.4
835.92	0.4
836.351	0.4
836.781	0.4
837.212	0.41
837.642	0.41
838.072	0.41
838.503	0.41
838.933	0.41
839.364	0.41
839.794	0.41
840.224	0.41
840.654	0.42
841.085	0.42
841.515	0.42
841.945	0.42
842.375	0.42
842.805	0.42
843.235	0.42
843.665	0.42
844.095	0.42
844.525	0.42
844.955	0.42
845.385	0.42
845.815	0.42
846.245	0.42
846.675	0.42
847.105	0.42
847.534	0.42
847.964	0.42
848.394	0.42
848.824	0.43
849.253	0.43
849.683	0.43
850.112	0.43
850.542	0.43
850.972	0.43
851.401	0.43
851.831	0.43
852.26	0.43
852.69	0.43
853.119	0.43
853.548	0.43
853.978	0.43
854.407	0.43
854.836	0.43
855.266	0.43
855.695	0.43
856.124	0.43
856.553	0.43
856.983	0.43
857.412	0.43
857.841	0.43
858.27	0.43
858.699	0.43
859.128	0.42
859.557	0.42
859.986	0.42
860.415	0.42
860.844	0.42
861.273	0.42
861.702	0.42
862.13	0.42
862.559	0.42
862.988	0.42
863.417	0.42
863.845	0.42
864.274	0.42
864.703	0.42
865.131	0.42
865.56	0.42
865.989	0.42
866.417	0.42
866.846	0.42
867.274	0.42
867.703	0.42
868.131	0.42
868.559	0.42
868.988	0.42
869.416	0.42
869.844	0.41
870.273	0.41
870.701	0.41
871.129	0.41
871.557	0.41
871.986	0.41
872.414	0.41
872.842	0.41
873.27	0.41
873.698	0.41
874.126	0.41
874.554	0.41
874.982	0.41
875.41	0.4
875.838	0.4
876.266	0.4
876.694	0.4
877.122	0.4
877.549	0.4
877.977	0.4
878.405	0.4
878.833	0.4
879.26	0.4
879.688	0.4
880.116	0.4
880.543	0.4
880.971	0.4
881.399	0.4
881.826	0.4
882.254	0.4
882.681	0.4
883.109	0.4
883.536	0.4
883.963	0.4
884.391	0.4
884.818	0.4
885.245	0.4
885.673	0.4
886.1	0.4
886.527	0.4
886.954	0.4
887.381	0.4
887.809	0.4
888.236	0.4
888.663	0.4
889.09	0.39
889.517	0.39
889.944	0.39
890.371	0.39
890.798	0.39
891.225	0.39
891.652	0.39
892.078	0.39
892.505	0.39
892.932	0.39
893.359	0.39
893.786	0.39
894.212	0.39
894.639	0.39
895.066	0.39
895.492	0.39
895.919	0.39
896.346	0.39
896.772	0.39
897.199	0.38
897.625	0.38
898.052	0.38
898.478	0.38
898.904	0.38
899.331	0.38
899.757	0.38
900.183	0.38
900.61	0.38
901.036	0.38
901.462	0.38
901.888	0.38
902.315	0.38
902.741	0.38
903.167	0.38
903.593	0.38
904.019	0.37
904.445	0.37
904.871	0.37
905.297	0.37
905.723	0.37
906.149	0.37
906.575	0.37
907.001	0.37
907.427	0.37
907.852	0.37
908.278	0.37
908.704	0.37
909.13	0.37
909.555	0.37
909.981	0.36
910.407	0.36
910.832	0.36
911.258	0.36
911.684	0.36
912.109	0.36
912.535	0.36
912.96	0.37
913.386	0.37
913.811	0.37
914.236	0.37
914.662	0.37
915.087	0.37
915.512	0.37
915.938	0.37
916.363	0.37
916.788	0.37
917.213	0.36
917.639	0.36
918.064	0.36
918.489	0.36
918.914	0.36
919.339	0.36
919.764	0.36
920.189	0.36
920.614	0.36
921.039	0.36
921.464	0.36
921.889	0.35
922.314	0.35
922.738	0.35
923.163	0.35
923.588	0.35
924.013	0.35
924.437	0.35
924.862	0.35
925.287	0.35
925.711	0.35
926.136	0.35
926.561	0.35
926.985	0.35
927.41	0.35
927.834	0.35
928.259	0.35
928.683	0.35
929.108	0.35
929.532	0.34
929.956	0.34
930.381	0.34
930.805	0.34
931.229	0.34
931.653	0.34
932.078	0.34
932.502	0.34
932.926	0.33
933.35	0.33
933.774	0.33
934.198	0.33
934.622	0.33
935.046	0.33
935.47	0.33
935.894	0.33
936.318	0.33
936.742	0.33
937.166	0.33
937.59	0.33
938.014	0.33
938.437	0.33
938.861	0.33
939.285	0.33
939.709	0.33
940.132	0.33
940.556	0.33
940.98	0.33
941.403	0.33
941.827	0.33
942.25	0.33
942.674	0.33
943.097	0.33
943.521	0.33
943.944	0.33
944.368	0.33
944.791	0.33
945.214	0.33
945.638	0.33
946.061	0.32
946.484	0.32
946.907	0.32
947.331	0.32
947.754	0.32
948.177	0.32
948.6	0.32
949.023	0.32
949.446	0.32
949.869	0.32
950.292	0.31
950.715	0.31
951.138	0.31
951.561	0.31
951.984	0.31
952.407	0.31
952.83	0.31
953.252	0.31
953.675	0.31
954.098	0.31
954.521	0.31
954.943	0.31
955.366	0.31
955.789	0.31
956.211	0.31
956.634	0.31
957.056	0.31
957.479	0.31
957.902	0.31
958.324	0.3
958.746	0.3
959.169	0.3
959.591	0.3
960.014	0.3
960.436	0.3
960.858	0.3
961.281	0.3
961.703	0.3
962.125	0.3
962.547	0.3
962.969	0.3
963.391	0.3
963.814	0.3
964.236	0.3
964.658	0.3
965.08	0.3
965.502	0.3
965.924	0.3
966.346	0.3
966.768	0.3
967.189	0.3
967.611	0.3
968.033	0.3
968.455	0.3
968.877	0.3
969.298	0.3
969.72	0.3
970.142	0.3
970.563	0.3
970.985	0.29
971.407	0.29
971.828	0.29
972.25	0.29
972.671	0.29
973.093	0.29
973.514	0.29
973.936	0.3
974.357	0.3
974.778	0.3
975.2	0.3
975.621	0.3
976.042	0.3
976.464	0.29
976.885	0.29
977.306	0.29
977.727	0.29
978.148	0.29
978.57	0.29
978.991	0.29
979.412	0.29
979.833	0.29
980.254	0.29
980.675	0.29
981.096	0.29
981.517	0.28
981.937	0.28
982.358	0.28
982.779	0.28
983.2	0.28
983.621	0.28
984.042	0.28
984.462	0.28
984.883	0.28
985.304	0.28
985.724	0.28
986.145	0.28
986.565	0.28
986.986	0.28
987.407	0.28
987.827	0.28
988.248	0.28
988.668	0.28
989.088	0.28
989.509	0.28
989.929	0.28
990.35	0.28
990.77	0.28
991.19	0.27
991.61	0.27
992.031	0.27
992.451	0.27
992.871	0.27
993.291	0.27
993.711	0.27
994.131	0.27
994.551	0.27
994.971	0.27
995.391	0.26
995.811	0.26
996.231	0.26
996.651	0.26
997.071	0.26
997.491	0.26
997.911	0.26
998.331	0.26
998.75	0.26
999.17	0.26
999.59	0.26
1000.009	0.26
1000.429	0.26
1000.849	0.26
1001.268	0.26
1001.688	0.26
1002.107	0.26
1002.527	0.26
1002.946	0.26
1003.366	0.26
1003.785	0.26
1004.205	0.26
1004.624	0.26
1005.044	0.26
1005.463	0.26
1005.882	0.26
1006.301	0.26
1006.721	0.26
1007.14	0.26
1007.559	0.26
1007.978	0.26
1008.397	0.26
1008.816	0.26
1009.235	0.26
1009.655	0.26
1010.074	0.26
1010.492	0.25
1010.911	0.25
1011.33	0.25
1011.749	0.25
1012.168	0.25
1012.587	0.25
1013.006	0.25
1013.425	0.25
1013.843	0.25
1014.262	0.25
1014.681	0.25
1015.099	0.25
1015.518	0.25
1015.937	0.25
1016.355	0.25
1016.774	0.25
1017.192	0.25
1017.611	0.25
1018.029	0.25
1018.448	0.25
1018.866	0.25
1019.285	0.25
1019.703	0.25
1020.121	0.25
1020.54	0.25
1020.958	0.25
1021.376	0.25
1021.794	0.25
1022.213	0.25
1022.631	0.25
1023.049	0.25
1023.467	0.25
1023.885	0.25
1024.303	0.25
1024.721	0.25
1025.139	0.25
1025.557	0.25
1025.975	0.25
1026.393	0.25
1026.811	0.26
1027.229	0.26
1027.647	0.26
1028.065	0.26
1028.482	0.26
1028.9	0.26
1029.318	0.26
1029.735	0.26
1030.153	0.26
1030.571	0.26
1030.988	0.26
1031.406	0.26
1031.823	0.26
1032.241	0.26
1032.659	0.26
1033.076	0.26
1033.493	0.26
1033.911	0.26
1034.328	0.26
1034.746	0.26
1035.163	0.26
1035.58	0.26
1035.997	0.26
1036.415	0.25
1036.832	0.25
1037.249	0.25
1037.666	0.25
1038.083	0.25
1038.501	0.25
1038.918	0.25
1039.335	0.25
1039.752	0.25
1040.169	0.25
1040.586	0.25
1041.003	0.25
1041.419	0.25
1041.836	0.25
1042.253	0.25
1042.67	0.25
1043.087	0.25
1043.504	0.25
1043.92	0.25
1044.337	0.25
1044.754	0.25
1045.17	0.25
1045.587	0.25
1046.004	0.25
1046.42	0.25
1046.837	0.25
1047.253	0.25
1047.67	0.25
1048.086	0.25
1048.503	0.25
1048.919	0.25
1049.335	0.25
1049.752	0.25
1050.168	0.25
1050.584	0.25
1051.001	0.25
1051.417	0.25
1051.833	0.24
1052.249	0.25
1052.665	0.25
1053.081	0.25
1053.497	0.25
1053.914	0.25
1054.33	0.25
1054.746	0.25
1055.162	0.25
1055.578	0.25
1055.993	0.25
1056.409	0.25
1056.825	0.25
1057.241	0.25
1057.657	0.25
1058.073	0.25
1058.488	0.25
1058.904	0.25
1059.32	0.25
1059.736	0.25
1060.151	0.25
1060.567	0.25
1060.982	0.25
1061.398	0.25
1061.813	0.25
1062.229	0.25
1062.644	0.25
1063.06	0.25
1063.475	0.25
1063.891	0.25
1064.306	0.25
1064.721	0.25
1065.137	0.25
1065.552	0.25
1065.967	0.25
1066.382	0.25
1066.798	0.25
1067.213	0.25
1067.628	0.25
1068.043	0.25
1068.458	0.25
1068.873	0.25
1069.288	0.25
1069.703	0.25
1070.118	0.25
1070.533	0.25
1070.948	0.25
1071.363	0.25
1071.778	0.25
1072.193	0.25
1072.607	0.26
1073.022	0.26
1073.437	0.26
1073.852	0.26
1074.266	0.26
1074.681	0.26
1075.096	0.26
1075.51	0.26
1075.925	0.26
1076.339	0.26
1076.754	0.26
1077.168	0.26
1077.583	0.26
1077.997	0.26
1078.412	0.26
1078.826	0.26
1079.24	0.26
1079.655	0.26
1080.069	0.26
1080.483	0.26
1080.897	0.27
1081.312	0.27
1081.726	0.27
1082.14	0.27
1082.554	0.27
1082.968	0.27
1083.382	0.28
1083.796	0.28
1084.21	0.28
1084.624	0.28
1085.038	0.29
1085.452	0.29
1085.866	0.29
1086.28	0.29
1086.694	0.29
1087.108	0.3
1087.521	0.3
1087.935	0.3
1088.349	0.3
1088.763	0.31
1089.176	0.31
1089.59	0.31
1090.004	0.32
1090.417	0.32
1090.831	0.33
1091.244	0.33
1091.658	0.34
1092.071	0.35
1092.485	0.35
1092.898	0.36
1093.312	0.37
1093.725	0.38
1094.138	0.39
1094.552	0.39
1094.965	0.4
1095.378	0.42
1095.791	0.43
1096.205	0.44
1096.618	0.45
1097.031	0.47
1097.444	0.48
1097.857	0.5
1098.27	0.51
1098.683	0.53
1099.096	0.55
1099.509	0.58
1099.922	0.6
1100.335	0.63
1100.748	0.67
1101.161	0.7
1101.574	0.75
1101.986	0.81
1102.399	0.88
1102.812	0.97
1103.225	1.09
1103.637	1.27
1104.05	1.6
1104.463	-0
1104.875	-0
1105.288	-0
1105.7	-0
1106.113	-0
1106.525	-0
1106.938	-0
1107.35	-0
1107.763	-0
1108.175	-0
1108.588	-0
1109	-0
1109.412	-0
1109.824	-0
1110.237	-0
1110.649	-0
1111.061	-0
