Data from unagg-15c-2a-1h_Absorbance__1100__01527.txt Node

Date: Mon May 06 10:09:24 CEST 2024
User: Laser008
Spectrometer: MAYP115816
Trigger mode: 0
Integration Time (sec): 2.000000E-1
Scans to average: 10
Electric dark correction enabled: true
Nonlinearity correction enabled: true
Boxcar width: 5
XAxis mode: Wavelengths
Number of Pixels in Spectrum: 2068
>>>>>Begin Spectral Data<<<<<
198.914	-1.81
199.384	-1.67
199.855	-1.53
200.325	-1.4
200.796	-1.33
201.266	-1.27
201.737	-1.2
202.207	-1.14
202.677	-1.09
203.147	-1.05
203.618	-1.02
204.088	-1
204.558	-0.98
205.028	-0.97
205.498	-0.96
205.968	-0.96
206.439	-0.96
206.909	-0.95
207.379	-0.95
207.849	-0.95
208.319	-0.95
208.789	-0.94
209.258	-0.94
209.728	-0.94
210.198	-0.94
210.668	-0.94
211.138	-0.94
211.608	-0.94
212.077	-0.94
212.547	-0.94
213.017	-0.94
213.486	-0.94
213.956	-0.93
214.426	-0.94
214.895	-0.93
215.365	-0.93
215.834	-0.93
216.304	-0.93
216.773	-0.93
217.243	-0.92
217.712	-0.92
218.181	-0.92
218.651	-0.92
219.12	-0.91
219.589	-0.91
220.058	-0.91
220.528	-0.91
220.997	-0.9
221.466	-0.9
221.935	-0.9
222.404	-0.89
222.873	-0.89
223.342	-0.88
223.812	-0.88
224.281	-0.87
224.749	-0.86
225.218	-0.85
225.687	-0.84
226.156	-0.83
226.625	-0.82
227.094	-0.8
227.563	-0.78
228.031	-0.77
228.5	-0.74
228.969	-0.72
229.438	-0.69
229.906	-0.67
230.375	-0.63
230.844	-0.6
231.312	-0.56
231.781	-0.52
232.249	-0.48
232.718	-0.43
233.186	-0.39
233.655	-0.35
234.123	-0.3
234.591	-0.26
235.06	-0.22
235.528	-0.18
235.996	-0.14
236.465	-0.1
236.933	-0.07
237.401	-0.03
237.869	-0
238.337	0.03
238.805	0.05
239.274	0.08
239.742	0.1
240.21	0.12
240.678	0.14
241.146	0.16
241.614	0.18
242.081	0.2
242.549	0.21
243.017	0.22
243.485	0.24
243.953	0.25
244.421	0.26
244.888	0.27
245.356	0.28
245.824	0.29
246.291	0.3
246.759	0.31
247.227	0.32
247.694	0.32
248.162	0.33
248.629	0.34
249.097	0.35
249.564	0.35
250.032	0.36
250.499	0.37
250.967	0.37
251.434	0.38
251.901	0.38
252.369	0.39
252.836	0.39
253.303	0.4
253.77	0.4
254.237	0.4
254.705	0.41
255.172	0.41
255.639	0.42
256.106	0.42
256.573	0.42
257.04	0.42
257.507	0.43
257.974	0.43
258.441	0.43
258.908	0.43
259.375	0.43
259.841	0.43
260.308	0.43
260.775	0.43
261.242	0.43
261.709	0.44
262.175	0.44
262.642	0.44
263.109	0.44
263.575	0.43
264.042	0.43
264.508	0.43
264.975	0.43
265.441	0.43
265.908	0.43
266.374	0.43
266.841	0.43
267.307	0.43
267.773	0.42
268.24	0.42
268.706	0.42
269.172	0.42
269.639	0.42
270.105	0.41
270.571	0.41
271.037	0.41
271.503	0.41
271.969	0.4
272.435	0.4
272.902	0.4
273.368	0.39
273.834	0.39
274.3	0.39
274.765	0.39
275.231	0.38
275.697	0.38
276.163	0.38
276.629	0.37
277.095	0.37
277.56	0.37
278.026	0.36
278.492	0.36
278.958	0.36
279.423	0.35
279.889	0.35
280.354	0.35
280.82	0.34
281.286	0.34
281.751	0.34
282.217	0.33
282.682	0.33
283.147	0.33
283.613	0.33
284.078	0.32
284.544	0.32
285.009	0.32
285.474	0.31
285.939	0.31
286.405	0.31
286.87	0.31
287.335	0.3
287.8	0.3
288.265	0.3
288.73	0.3
289.195	0.29
289.66	0.29
290.125	0.29
290.59	0.29
291.055	0.29
291.52	0.29
291.985	0.28
292.45	0.28
292.915	0.28
293.38	0.28
293.844	0.28
294.309	0.28
294.774	0.27
295.239	0.27
295.703	0.27
296.168	0.27
296.632	0.27
297.097	0.27
297.562	0.27
298.026	0.27
298.491	0.27
298.955	0.27
299.419	0.26
299.884	0.26
300.348	0.26
300.813	0.26
301.277	0.26
301.741	0.26
302.205	0.26
302.67	0.26
303.134	0.26
303.598	0.26
304.062	0.26
304.526	0.26
304.99	0.26
305.454	0.26
305.919	0.26
306.383	0.26
306.847	0.26
307.31	0.26
307.774	0.26
308.238	0.26
308.702	0.26
309.166	0.26
309.63	0.26
310.094	0.26
310.557	0.26
311.021	0.26
311.485	0.26
311.948	0.26
312.412	0.26
312.876	0.25
313.339	0.25
313.803	0.25
314.266	0.25
314.73	0.25
315.193	0.25
315.657	0.25
316.12	0.25
316.584	0.25
317.047	0.25
317.51	0.25
317.973	0.25
318.437	0.25
318.9	0.25
319.363	0.25
319.826	0.25
320.29	0.25
320.753	0.25
321.216	0.25
321.679	0.25
322.142	0.25
322.605	0.25
323.068	0.25
323.531	0.25
323.994	0.25
324.457	0.25
324.92	0.25
325.382	0.25
325.845	0.25
326.308	0.25
326.771	0.25
327.233	0.25
327.696	0.25
328.159	0.25
328.622	0.25
329.084	0.25
329.547	0.24
330.009	0.24
330.472	0.24
330.934	0.24
331.397	0.24
331.859	0.24
332.322	0.24
332.784	0.24
333.246	0.24
333.709	0.24
334.171	0.24
334.633	0.24
335.096	0.24
335.558	0.24
336.02	0.24
336.482	0.24
336.944	0.24
337.406	0.24
337.868	0.24
338.331	0.24
338.793	0.24
339.255	0.24
339.717	0.24
340.178	0.24
340.64	0.24
341.102	0.24
341.564	0.24
342.026	0.24
342.488	0.24
342.949	0.23
343.411	0.23
343.873	0.23
344.335	0.23
344.796	0.23
345.258	0.23
345.719	0.23
346.181	0.23
346.643	0.23
347.104	0.23
347.566	0.23
348.027	0.23
348.488	0.23
348.95	0.23
349.411	0.23
349.873	0.23
350.334	0.23
350.795	0.23
351.256	0.23
351.718	0.23
352.179	0.23
352.64	0.23
353.101	0.23
353.562	0.23
354.023	0.23
354.484	0.23
354.945	0.22
355.406	0.22
355.867	0.22
356.328	0.22
356.789	0.22
357.25	0.22
357.711	0.22
358.172	0.22
358.633	0.22
359.093	0.22
359.554	0.22
360.015	0.22
360.476	0.22
360.936	0.22
361.397	0.23
361.858	0.23
362.318	0.23
362.779	0.23
363.239	0.23
363.7	0.23
364.16	0.23
364.621	0.23
365.081	0.23
365.541	0.23
366.002	0.23
366.462	0.23
366.922	0.23
367.383	0.23
367.843	0.22
368.303	0.22
368.763	0.22
369.223	0.22
369.684	0.22
370.144	0.22
370.604	0.22
371.064	0.22
371.524	0.22
371.984	0.22
372.444	0.22
372.904	0.22
373.363	0.22
373.823	0.22
374.283	0.22
374.743	0.22
375.203	0.22
375.663	0.22
376.122	0.22
376.582	0.23
377.042	0.23
377.501	0.23
377.961	0.23
378.42	0.23
378.88	0.23
379.34	0.23
379.799	0.23
380.259	0.23
380.718	0.23
381.177	0.23
381.637	0.23
382.096	0.23
382.555	0.23
383.015	0.23
383.474	0.23
383.933	0.23
384.393	0.23
384.852	0.23
385.311	0.23
385.77	0.23
386.229	0.23
386.688	0.23
387.147	0.23
387.606	0.23
388.065	0.23
388.524	0.23
388.983	0.23
389.442	0.23
389.901	0.23
390.36	0.23
390.819	0.23
391.277	0.23
391.736	0.23
392.195	0.23
392.654	0.23
393.112	0.23
393.571	0.23
394.03	0.23
394.488	0.23
394.947	0.23
395.405	0.23
395.864	0.23
396.322	0.23
396.781	0.23
397.239	0.23
397.698	0.23
398.156	0.23
398.614	0.23
399.073	0.23
399.531	0.23
399.989	0.23
400.447	0.23
400.905	0.23
401.364	0.23
401.822	0.23
402.28	0.23
402.738	0.23
403.196	0.23
403.654	0.23
404.112	0.23
404.57	0.23
405.028	0.23
405.486	0.23
405.944	0.23
406.402	0.23
406.859	0.23
407.317	0.23
407.775	0.23
408.233	0.23
408.691	0.23
409.148	0.23
409.606	0.23
410.064	0.23
410.521	0.23
410.979	0.23
411.436	0.23
411.894	0.22
412.351	0.22
412.809	0.22
413.266	0.22
413.724	0.22
414.181	0.22
414.638	0.22
415.096	0.22
415.553	0.22
416.01	0.22
416.467	0.22
416.925	0.22
417.382	0.22
417.839	0.22
418.296	0.22
418.753	0.22
419.21	0.22
419.667	0.22
420.124	0.22
420.581	0.22
421.038	0.22
421.495	0.22
421.952	0.22
422.409	0.22
422.866	0.23
423.322	0.23
423.779	0.23
424.236	0.22
424.693	0.22
425.149	0.22
425.606	0.22
426.063	0.22
426.519	0.22
426.976	0.22
427.433	0.22
427.889	0.22
428.346	0.22
428.802	0.23
429.258	0.23
429.715	0.23
430.171	0.23
430.628	0.23
431.084	0.23
431.54	0.23
431.997	0.22
432.453	0.22
432.909	0.22
433.365	0.22
433.821	0.22
434.277	0.22
434.734	0.22
435.19	0.22
435.646	0.22
436.102	0.22
436.558	0.22
437.014	0.22
437.47	0.22
437.925	0.22
438.381	0.22
438.837	0.22
439.293	0.22
439.749	0.22
440.205	0.22
440.66	0.22
441.116	0.22
441.572	0.22
442.027	0.22
442.483	0.22
442.939	0.22
443.394	0.22
443.85	0.22
444.305	0.22
444.761	0.22
445.216	0.22
445.672	0.22
446.127	0.22
446.582	0.22
447.038	0.22
447.493	0.22
447.948	0.22
448.403	0.22
448.859	0.22
449.314	0.22
449.769	0.22
450.224	0.22
450.679	0.22
451.134	0.22
451.589	0.22
452.044	0.22
452.499	0.22
452.954	0.22
453.409	0.22
453.864	0.22
454.319	0.22
454.774	0.22
455.229	0.22
455.684	0.22
456.138	0.22
456.593	0.22
457.048	0.22
457.503	0.22
457.957	0.22
458.412	0.21
458.866	0.21
459.321	0.21
459.776	0.21
460.23	0.21
460.685	0.21
461.139	0.21
461.593	0.21
462.048	0.21
462.502	0.21
462.957	0.21
463.411	0.21
463.865	0.21
464.319	0.21
464.774	0.21
465.228	0.21
465.682	0.21
466.136	0.21
466.59	0.21
467.044	0.21
467.499	0.21
467.953	0.21
468.407	0.21
468.861	0.21
469.315	0.21
469.768	0.21
470.222	0.21
470.676	0.21
471.13	0.21
471.584	0.21
472.038	0.2
472.491	0.21
472.945	0.21
473.399	0.21
473.852	0.21
474.306	0.21
474.76	0.21
475.213	0.21
475.667	0.21
476.12	0.21
476.574	0.21
477.027	0.21
477.481	0.21
477.934	0.21
478.388	0.21
478.841	0.21
479.294	0.21
479.748	0.21
480.201	0.21
480.654	0.21
481.107	0.21
481.561	0.21
482.014	0.21
482.467	0.21
482.92	0.21
483.373	0.21
483.826	0.21
484.279	0.22
484.732	0.22
485.185	0.22
485.638	0.22
486.091	0.22
486.544	0.22
486.997	0.22
487.449	0.22
487.902	0.22
488.355	0.22
488.808	0.22
489.26	0.21
489.713	0.21
490.166	0.21
490.618	0.21
491.071	0.21
491.523	0.21
491.976	0.21
492.429	0.21
492.881	0.21
493.333	0.21
493.786	0.22
494.238	0.22
494.691	0.22
495.143	0.22
495.595	0.22
496.048	0.22
496.5	0.22
496.952	0.22
497.404	0.22
497.856	0.22
498.309	0.22
498.761	0.22
499.213	0.22
499.665	0.22
500.117	0.22
500.569	0.22
501.021	0.23
501.473	0.23
501.925	0.23
502.377	0.23
502.828	0.23
503.28	0.23
503.732	0.23
504.184	0.23
504.636	0.23
505.087	0.23
505.539	0.23
505.991	0.23
506.442	0.23
506.894	0.23
507.345	0.23
507.797	0.23
508.249	0.23
508.7	0.23
509.151	0.23
509.603	0.23
510.054	0.23
510.506	0.23
510.957	0.24
511.408	0.24
511.86	0.24
512.311	0.24
512.762	0.24
513.213	0.24
513.665	0.24
514.116	0.24
514.567	0.24
515.018	0.24
515.469	0.24
515.92	0.24
516.371	0.24
516.822	0.24
517.273	0.24
517.724	0.24
518.175	0.24
518.626	0.24
519.076	0.24
519.527	0.24
519.978	0.24
520.429	0.23
520.88	0.23
521.33	0.23
521.781	0.23
522.232	0.23
522.682	0.23
523.133	0.23
523.583	0.23
524.034	0.24
524.484	0.24
524.935	0.24
525.385	0.24
525.836	0.25
526.286	0.25
526.736	0.25
527.187	0.25
527.637	0.26
528.087	0.26
528.538	0.26
528.988	0.26
529.438	0.26
529.888	0.26
530.338	0.26
530.788	0.26
531.238	0.27
531.688	0.27
532.139	0.27
532.589	0.27
533.038	0.27
533.488	0.27
533.938	0.27
534.388	0.27
534.838	0.27
535.288	0.27
535.738	0.27
536.187	0.27
536.637	0.28
537.087	0.28
537.537	0.28
537.986	0.28
538.436	0.28
538.885	0.28
539.335	0.28
539.785	0.28
540.234	0.28
540.684	0.28
541.133	0.28
541.582	0.28
542.032	0.28
542.481	0.28
542.931	0.28
543.38	0.28
543.829	0.29
544.278	0.29
544.728	0.29
545.177	0.29
545.626	0.29
546.075	0.29
546.524	0.29
546.973	0.29
547.422	0.29
547.871	0.29
548.32	0.29
548.769	0.29
549.218	0.29
549.667	0.29
550.116	0.29
550.565	0.29
551.014	0.29
551.463	0.3
551.911	0.3
552.36	0.3
552.809	0.3
553.258	0.3
553.706	0.3
554.155	0.3
554.603	0.3
555.052	0.3
555.501	0.3
555.949	0.3
556.398	0.3
556.846	0.3
557.294	0.3
557.743	0.3
558.191	0.3
558.64	0.3
559.088	0.3
559.536	0.3
559.985	0.3
560.433	0.31
560.881	0.31
561.329	0.31
561.777	0.31
562.225	0.31
562.674	0.31
563.122	0.31
563.57	0.31
564.018	0.31
564.466	0.31
564.914	0.31
565.362	0.31
565.809	0.31
566.257	0.31
566.705	0.31
567.153	0.31
567.601	0.32
568.048	0.32
568.496	0.32
568.944	0.32
569.392	0.32
569.839	0.33
570.287	0.33
570.734	0.33
571.182	0.33
571.63	0.33
572.077	0.33
572.525	0.34
572.972	0.34
573.419	0.34
573.867	0.34
574.314	0.34
574.761	0.34
575.209	0.34
575.656	0.34
576.103	0.34
576.551	0.34
576.998	0.34
577.445	0.34
577.892	0.35
578.339	0.35
578.786	0.35
579.233	0.35
579.68	0.35
580.127	0.35
580.574	0.35
581.021	0.35
581.468	0.35
581.915	0.35
582.362	0.35
582.809	0.35
583.255	0.35
583.702	0.35
584.149	0.34
584.596	0.34
585.042	0.34
585.489	0.34
585.936	0.34
586.382	0.34
586.829	0.34
587.275	0.34
587.722	0.34
588.168	0.34
588.615	0.34
589.061	0.33
589.508	0.33
589.954	0.33
590.4	0.33
590.847	0.33
591.293	0.33
591.739	0.33
592.185	0.33
592.632	0.33
593.078	0.33
593.524	0.33
593.97	0.33
594.416	0.33
594.862	0.33
595.308	0.33
595.754	0.33
596.2	0.33
596.646	0.33
597.092	0.33
597.538	0.33
597.984	0.33
598.43	0.33
598.876	0.33
599.321	0.33
599.767	0.33
600.213	0.33
600.659	0.33
601.104	0.33
601.55	0.32
601.995	0.32
602.441	0.32
602.887	0.32
603.332	0.32
603.778	0.32
604.223	0.32
604.668	0.32
605.114	0.32
605.559	0.32
606.005	0.32
606.45	0.32
606.895	0.32
607.341	0.32
607.786	0.32
608.231	0.32
608.676	0.32
609.121	0.31
609.566	0.31
610.012	0.31
610.457	0.31
610.902	0.31
611.347	0.31
611.792	0.31
612.237	0.31
612.682	0.31
613.127	0.31
613.571	0.31
614.016	0.31
614.461	0.3
614.906	0.3
615.351	0.3
615.795	0.3
616.24	0.3
616.685	0.3
617.129	0.29
617.574	0.29
618.019	0.29
618.463	0.29
618.908	0.29
619.352	0.29
619.797	0.29
620.241	0.29
620.686	0.29
621.13	0.29
621.574	0.29
622.019	0.28
622.463	0.28
622.907	0.28
623.352	0.28
623.796	0.28
624.24	0.28
624.684	0.28
625.128	0.28
625.572	0.28
626.016	0.28
626.461	0.28
626.905	0.28
627.349	0.28
627.793	0.28
628.236	0.27
628.68	0.27
629.124	0.27
629.568	0.27
630.012	0.27
630.456	0.27
630.9	0.27
631.343	0.27
631.787	0.27
632.231	0.26
632.674	0.26
633.118	0.26
633.562	0.26
634.005	0.26
634.449	0.26
634.892	0.26
635.336	0.26
635.779	0.26
636.223	0.26
636.666	0.26
637.109	0.26
637.553	0.26
637.996	0.26
638.439	0.26
638.883	0.26
639.326	0.25
639.769	0.25
640.212	0.25
640.655	0.25
641.099	0.26
641.542	0.26
641.985	0.26
642.428	0.26
642.871	0.26
643.314	0.25
643.757	0.25
644.2	0.25
644.643	0.25
645.085	0.25
645.528	0.25
645.971	0.25
646.414	0.25
646.857	0.25
647.299	0.25
647.742	0.25
648.185	0.25
648.627	0.26
649.07	0.26
649.513	0.26
649.955	0.26
650.398	0.26
650.84	0.26
651.283	0.26
651.725	0.26
652.168	0.26
652.61	0.26
653.052	0.26
653.495	0.25
653.937	0.2
654.379	0.16
654.821	0.17
655.264	0.17
655.706	0.17
656.148	0.17
656.59	0.17
657.032	0.17
657.474	0.17
657.916	0.17
658.358	0.17
658.8	0.21
659.242	0.27
659.684	0.27
660.126	0.27
660.568	0.27
661.01	0.27
661.452	0.27
661.894	0.27
662.335	0.27
662.777	0.27
663.219	0.27
663.661	0.27
664.102	0.27
664.544	0.28
664.985	0.28
665.427	0.28
665.869	0.28
666.31	0.28
666.752	0.28
667.193	0.28
667.634	0.28
668.076	0.28
668.517	0.28
668.959	0.28
669.4	0.29
669.841	0.29
670.282	0.29
670.724	0.29
671.165	0.29
671.606	0.29
672.047	0.29
672.488	0.29
672.929	0.3
673.37	0.3
673.811	0.3
674.252	0.3
674.693	0.3
675.134	0.3
675.575	0.3
676.016	0.3
676.457	0.3
676.898	0.3
677.339	0.3
677.78	0.3
678.22	0.3
678.661	0.3
679.102	0.3
679.542	0.3
679.983	0.3
680.424	0.3
680.864	0.3
681.305	0.3
681.745	0.3
682.186	0.3
682.626	0.31
683.067	0.31
683.507	0.31
683.948	0.31
684.388	0.31
684.828	0.31
685.269	0.31
685.709	0.31
686.149	0.31
686.589	0.31
687.029	0.31
687.47	0.31
687.91	0.31
688.35	0.31
688.79	0.32
689.23	0.32
689.67	0.32
690.11	0.32
690.55	0.32
690.99	0.32
691.43	0.32
691.87	0.32
692.31	0.32
692.749	0.32
693.189	0.33
693.629	0.33
694.069	0.33
694.508	0.33
694.948	0.33
695.388	0.33
695.827	0.33
696.267	0.33
696.706	0.33
697.146	0.33
697.586	0.34
698.025	0.34
698.464	0.34
698.904	0.34
699.343	0.34
699.783	0.34
700.222	0.34
700.661	0.34
701.101	0.34
701.54	0.34
701.979	0.34
702.418	0.34
702.857	0.34
703.297	0.34
703.736	0.34
704.175	0.34
704.614	0.34
705.053	0.34
705.492	0.34
705.931	0.35
706.37	0.35
706.809	0.35
707.248	0.35
707.687	0.35
708.125	0.35
708.564	0.35
709.003	0.35
709.442	0.35
709.88	0.35
710.319	0.35
710.758	0.35
711.196	0.35
711.635	0.35
712.074	0.35
712.512	0.35
712.951	0.35
713.389	0.35
713.828	0.35
714.266	0.35
714.705	0.35
715.143	0.35
715.581	0.35
716.02	0.35
716.458	0.35
716.896	0.35
717.334	0.35
717.773	0.35
718.211	0.35
718.649	0.35
719.087	0.35
719.525	0.35
719.963	0.35
720.401	0.35
720.839	0.35
721.277	0.35
721.715	0.35
722.153	0.35
722.591	0.35
723.029	0.35
723.467	0.35
723.905	0.35
724.342	0.35
724.78	0.35
725.218	0.35
725.656	0.35
726.093	0.35
726.531	0.35
726.969	0.35
727.406	0.35
727.844	0.35
728.281	0.35
728.719	0.35
729.156	0.35
729.594	0.35
730.031	0.35
730.469	0.35
730.906	0.35
731.343	0.35
731.781	0.35
732.218	0.35
732.655	0.35
733.092	0.35
733.53	0.35
733.967	0.35
734.404	0.35
734.841	0.35
735.278	0.35
735.715	0.35
736.152	0.35
736.589	0.35
737.026	0.35
737.463	0.35
737.9	0.35
738.337	0.35
738.774	0.35
739.211	0.35
739.647	0.35
740.084	0.35
740.521	0.35
740.958	0.35
741.394	0.35
741.831	0.34
742.268	0.34
742.704	0.34
743.141	0.34
743.577	0.34
744.014	0.34
744.45	0.34
744.887	0.33
745.323	0.33
745.76	0.33
746.196	0.33
746.632	0.33
747.069	0.33
747.505	0.33
747.941	0.33
748.378	0.33
748.814	0.33
749.25	0.33
749.686	0.33
750.122	0.33
750.558	0.33
750.994	0.33
751.43	0.33
751.866	0.33
752.302	0.33
752.738	0.33
753.174	0.33
753.61	0.33
754.046	0.33
754.482	0.33
754.918	0.33
755.354	0.33
755.789	0.33
756.225	0.33
756.661	0.33
757.096	0.33
757.532	0.33
757.968	0.33
758.403	0.33
758.839	0.33
759.274	0.33
759.71	0.33
760.145	0.33
760.581	0.33
761.016	0.32
761.452	0.32
761.887	0.32
762.322	0.32
762.758	0.32
763.193	0.32
763.628	0.31
764.063	0.31
764.499	0.31
764.934	0.31
765.369	0.3
765.804	0.3
766.239	0.3
766.674	0.3
767.109	0.3
767.544	0.29
767.979	0.29
768.414	0.29
768.849	0.28
769.284	0.28
769.719	0.28
770.154	0.28
770.588	0.27
771.023	0.27
771.458	0.26
771.893	0.26
772.327	0.26
772.762	0.25
773.197	0.25
773.631	0.24
774.066	0.24
774.5	0.24
774.935	0.23
775.369	0.23
775.804	0.22
776.238	0.22
776.673	0.21
777.107	0.21
777.541	0.2
777.976	0.2
778.41	0.19
778.844	0.19
779.279	0.18
779.713	0.17
780.147	0.17
780.581	0.16
781.015	0.15
781.449	0.14
781.883	0.13
782.317	0.12
782.751	0.11
783.185	0.1
783.619	0.08
784.053	0.07
784.487	0.05
784.921	0.04
785.355	0.02
785.789	0.01
786.223	-0
786.656	-0.01
787.09	-0.01
787.524	-0.02
787.957	-0.03
788.391	-0.04
788.825	-0.05
789.258	-0.05
789.692	-0.05
790.125	-0.05
790.559	-0.06
790.992	-0.06
791.426	-0.06
791.859	-0.06
792.293	-0.05
792.726	-0.04
793.159	-0.04
793.593	-0.04
794.026	-0.04
794.459	-0.04
794.892	-0.05
795.326	-0.05
795.759	-0.05
796.192	-0.05
796.625	-0.06
797.058	-0.07
797.491	-0.07
797.924	-0.08
798.357	-0.08
798.79	-0.08
799.223	-0.08
799.656	-0.08
800.089	-0.08
800.522	-0.09
800.955	-0.09
801.387	-0.09
801.82	-0.09
802.253	-0.09
802.686	-0.09
803.118	-0.09
803.551	-0.09
803.984	-0.08
804.416	-0.08
804.849	-0.07
805.281	-0.07
805.714	-0.07
806.146	-0.07
806.579	-0.07
807.011	-0.07
807.444	-0.07
807.876	-0.07
808.308	-0.07
808.741	-0.07
809.173	-0.08
809.605	-0.08
810.037	-0.08
810.47	-0.08
810.902	-0.09
811.334	-0.09
811.766	-0.08
812.198	-0.08
812.63	-0.08
813.062	-0.08
813.494	-0.08
813.926	-0.08
814.358	-0.08
814.79	-0.08
815.222	-0.07
815.654	-0.07
816.086	-0.07
816.518	-0.08
816.949	-0.08
817.381	-0.08
817.813	-0.07
818.245	-0.06
818.676	-0.05
819.108	-0.04
819.54	-0.02
819.971	-0.01
820.403	-0
820.834	0.02
821.266	0.03
821.697	0.05
822.129	0.07
822.56	0.08
822.991	0.09
823.423	0.11
823.854	0.12
824.286	0.13
824.717	0.14
825.148	0.15
825.579	0.16
826.01	0.17
826.442	0.18
826.873	0.19
827.304	0.2
827.735	0.2
828.166	0.21
828.597	0.22
829.028	0.22
829.459	0.23
829.89	0.23
830.321	0.23
830.752	0.24
831.183	0.24
831.613	0.25
832.044	0.25
832.475	0.25
832.906	0.26
833.336	0.26
833.767	0.26
834.198	0.26
834.628	0.27
835.059	0.27
835.49	0.27
835.92	0.27
836.351	0.27
836.781	0.28
837.212	0.28
837.642	0.28
838.072	0.28
838.503	0.28
838.933	0.28
839.364	0.28
839.794	0.28
840.224	0.28
840.654	0.28
841.085	0.28
841.515	0.28
841.945	0.28
842.375	0.29
842.805	0.29
843.235	0.29
843.665	0.29
844.095	0.29
844.525	0.29
844.955	0.29
845.385	0.29
845.815	0.29
846.245	0.29
846.675	0.29
847.105	0.29
847.534	0.29
847.964	0.29
848.394	0.29
848.824	0.29
849.253	0.29
849.683	0.29
850.112	0.29
850.542	0.29
850.972	0.29
851.401	0.3
851.831	0.3
852.26	0.3
852.69	0.3
853.119	0.3
853.548	0.3
853.978	0.3
854.407	0.3
854.836	0.3
855.266	0.3
855.695	0.3
856.124	0.3
856.553	0.3
856.983	0.29
857.412	0.29
857.841	0.29
858.27	0.29
858.699	0.29
859.128	0.29
859.557	0.29
859.986	0.29
860.415	0.29
860.844	0.29
861.273	0.28
861.702	0.28
862.13	0.28
862.559	0.28
862.988	0.28
863.417	0.28
863.845	0.28
864.274	0.28
864.703	0.28
865.131	0.28
865.56	0.28
865.989	0.28
866.417	0.28
866.846	0.28
867.274	0.28
867.703	0.28
868.131	0.28
868.559	0.28
868.988	0.28
869.416	0.28
869.844	0.28
870.273	0.28
870.701	0.28
871.129	0.28
871.557	0.28
871.986	0.28
872.414	0.28
872.842	0.28
873.27	0.28
873.698	0.28
874.126	0.28
874.554	0.28
874.982	0.28
875.41	0.28
875.838	0.28
876.266	0.28
876.694	0.28
877.122	0.28
877.549	0.28
877.977	0.28
878.405	0.28
878.833	0.28
879.26	0.28
879.688	0.28
880.116	0.28
880.543	0.28
880.971	0.28
881.399	0.28
881.826	0.28
882.254	0.28
882.681	0.28
883.109	0.28
883.536	0.28
883.963	0.28
884.391	0.28
884.818	0.28
885.245	0.28
885.673	0.28
886.1	0.28
886.527	0.28
886.954	0.28
887.381	0.28
887.809	0.28
888.236	0.28
888.663	0.28
889.09	0.28
889.517	0.28
889.944	0.28
890.371	0.28
890.798	0.28
891.225	0.27
891.652	0.27
892.078	0.27
892.505	0.27
892.932	0.27
893.359	0.27
893.786	0.27
894.212	0.27
894.639	0.27
895.066	0.27
895.492	0.27
895.919	0.27
896.346	0.27
896.772	0.27
897.199	0.27
897.625	0.27
898.052	0.27
898.478	0.27
898.904	0.27
899.331	0.27
899.757	0.27
900.183	0.27
900.61	0.27
901.036	0.27
901.462	0.27
901.888	0.27
902.315	0.27
902.741	0.27
903.167	0.27
903.593	0.27
904.019	0.27
904.445	0.27
904.871	0.26
905.297	0.26
905.723	0.26
906.149	0.26
906.575	0.26
907.001	0.26
907.427	0.26
907.852	0.26
908.278	0.26
908.704	0.26
909.13	0.26
909.555	0.26
909.981	0.26
910.407	0.26
910.832	0.26
911.258	0.26
911.684	0.26
912.109	0.26
912.535	0.26
912.96	0.26
913.386	0.26
913.811	0.26
914.236	0.26
914.662	0.26
915.087	0.26
915.512	0.26
915.938	0.26
916.363	0.26
916.788	0.26
917.213	0.26
917.639	0.26
918.064	0.26
918.489	0.26
918.914	0.26
919.339	0.26
919.764	0.26
920.189	0.26
920.614	0.26
921.039	0.26
921.464	0.26
921.889	0.26
922.314	0.26
922.738	0.25
923.163	0.25
923.588	0.25
924.013	0.25
924.437	0.25
924.862	0.25
925.287	0.25
925.711	0.25
926.136	0.25
926.561	0.25
926.985	0.25
927.41	0.25
927.834	0.25
928.259	0.25
928.683	0.25
929.108	0.25
929.532	0.25
929.956	0.25
930.381	0.25
930.805	0.24
931.229	0.24
931.653	0.24
932.078	0.24
932.502	0.24
932.926	0.24
933.35	0.24
933.774	0.24
934.198	0.24
934.622	0.23
935.046	0.23
935.47	0.23
935.894	0.23
936.318	0.23
936.742	0.23
937.166	0.23
937.59	0.23
938.014	0.23
938.437	0.23
938.861	0.24
939.285	0.24
939.709	0.24
940.132	0.24
940.556	0.24
940.98	0.24
941.403	0.24
941.827	0.24
942.25	0.24
942.674	0.24
943.097	0.24
943.521	0.24
943.944	0.24
944.368	0.23
944.791	0.23
945.214	0.23
945.638	0.23
946.061	0.23
946.484	0.23
946.907	0.23
947.331	0.23
947.754	0.23
948.177	0.23
948.6	0.23
949.023	0.23
949.446	0.23
949.869	0.23
950.292	0.22
950.715	0.22
951.138	0.22
951.561	0.22
951.984	0.22
952.407	0.22
952.83	0.22
953.252	0.22
953.675	0.22
954.098	0.22
954.521	0.22
954.943	0.22
955.366	0.22
955.789	0.22
956.211	0.22
956.634	0.22
957.056	0.22
957.479	0.22
957.902	0.22
958.324	0.22
958.746	0.22
959.169	0.22
959.591	0.22
960.014	0.22
960.436	0.22
960.858	0.22
961.281	0.22
961.703	0.22
962.125	0.22
962.547	0.22
962.969	0.22
963.391	0.22
963.814	0.22
964.236	0.22
964.658	0.22
965.08	0.22
965.502	0.22
965.924	0.22
966.346	0.22
966.768	0.22
967.189	0.22
967.611	0.22
968.033	0.22
968.455	0.22
968.877	0.22
969.298	0.22
969.72	0.22
970.142	0.22
970.563	0.22
970.985	0.22
971.407	0.21
971.828	0.21
972.25	0.21
972.671	0.22
973.093	0.22
973.514	0.22
973.936	0.22
974.357	0.22
974.778	0.22
975.2	0.22
975.621	0.22
976.042	0.22
976.464	0.22
976.885	0.22
977.306	0.22
977.727	0.21
978.148	0.21
978.57	0.21
978.991	0.21
979.412	0.21
979.833	0.21
980.254	0.21
980.675	0.21
981.096	0.21
981.517	0.21
981.937	0.21
982.358	0.2
982.779	0.2
983.2	0.2
983.621	0.2
984.042	0.2
984.462	0.2
984.883	0.2
985.304	0.2
985.724	0.2
986.145	0.2
986.565	0.2
986.986	0.2
987.407	0.2
987.827	0.2
988.248	0.2
988.668	0.2
989.088	0.2
989.509	0.2
989.929	0.2
990.35	0.2
990.77	0.2
991.19	0.2
991.61	0.2
992.031	0.2
992.451	0.2
992.871	0.2
993.291	0.2
993.711	0.2
994.131	0.2
994.551	0.19
994.971	0.19
995.391	0.19
995.811	0.19
996.231	0.19
996.651	0.19
997.071	0.19
997.491	0.19
997.911	0.19
998.331	0.19
998.75	0.19
999.17	0.19
999.59	0.19
1000.009	0.19
1000.429	0.19
1000.849	0.19
1001.268	0.19
1001.688	0.19
1002.107	0.19
1002.527	0.2
1002.946	0.2
1003.366	0.2
1003.785	0.2
1004.205	0.2
1004.624	0.2
1005.044	0.2
1005.463	0.19
1005.882	0.19
1006.301	0.19
1006.721	0.19
1007.14	0.19
1007.559	0.19
1007.978	0.19
1008.397	0.19
1008.816	0.19
1009.235	0.19
1009.655	0.19
1010.074	0.19
1010.492	0.19
1010.911	0.19
1011.33	0.19
1011.749	0.19
1012.168	0.19
1012.587	0.19
1013.006	0.19
1013.425	0.18
1013.843	0.18
1014.262	0.18
1014.681	0.18
1015.099	0.18
1015.518	0.18
1015.937	0.18
1016.355	0.18
1016.774	0.18
1017.192	0.18
1017.611	0.18
1018.029	0.18
1018.448	0.18
1018.866	0.18
1019.285	0.18
1019.703	0.18
1020.121	0.18
1020.54	0.18
1020.958	0.18
1021.376	0.18
1021.794	0.19
1022.213	0.19
1022.631	0.19
1023.049	0.19
1023.467	0.19
1023.885	0.19
1024.303	0.19
1024.721	0.19
1025.139	0.19
1025.557	0.19
1025.975	0.19
1026.393	0.19
1026.811	0.19
1027.229	0.19
1027.647	0.19
1028.065	0.19
1028.482	0.19
1028.9	0.2
1029.318	0.2
1029.735	0.2
1030.153	0.2
1030.571	0.2
1030.988	0.2
1031.406	0.2
1031.823	0.2
1032.241	0.2
1032.659	0.2
1033.076	0.2
1033.493	0.2
1033.911	0.2
1034.328	0.2
1034.746	0.2
1035.163	0.19
1035.58	0.19
1035.997	0.19
1036.415	0.19
1036.832	0.19
1037.249	0.19
1037.666	0.19
1038.083	0.19
1038.501	0.19
1038.918	0.19
1039.335	0.19
1039.752	0.19
1040.169	0.19
1040.586	0.19
1041.003	0.19
1041.419	0.19
1041.836	0.18
1042.253	0.18
1042.67	0.18
1043.087	0.18
1043.504	0.18
1043.92	0.18
1044.337	0.18
1044.754	0.18
1045.17	0.18
1045.587	0.18
1046.004	0.18
1046.42	0.18
1046.837	0.18
1047.253	0.18
1047.67	0.18
1048.086	0.18
1048.503	0.18
1048.919	0.18
1049.335	0.18
1049.752	0.18
1050.168	0.18
1050.584	0.18
1051.001	0.18
1051.417	0.18
1051.833	0.17
1052.249	0.18
1052.665	0.17
1053.081	0.18
1053.497	0.18
1053.914	0.18
1054.33	0.18
1054.746	0.18
1055.162	0.18
1055.578	0.18
1055.993	0.18
1056.409	0.18
1056.825	0.18
1057.241	0.18
1057.657	0.18
1058.073	0.18
1058.488	0.18
1058.904	0.18
1059.32	0.18
1059.736	0.18
1060.151	0.18
1060.567	0.18
1060.982	0.18
1061.398	0.18
1061.813	0.18
1062.229	0.18
1062.644	0.18
1063.06	0.18
1063.475	0.18
1063.891	0.18
1064.306	0.18
1064.721	0.18
1065.137	0.18
1065.552	0.18
1065.967	0.18
1066.382	0.18
1066.798	0.18
1067.213	0.18
1067.628	0.18
1068.043	0.18
1068.458	0.18
1068.873	0.18
1069.288	0.18
1069.703	0.18
1070.118	0.18
1070.533	0.18
1070.948	0.18
1071.363	0.18
1071.778	0.18
1072.193	0.18
1072.607	0.18
1073.022	0.18
1073.437	0.18
1073.852	0.18
1074.266	0.18
1074.681	0.18
1075.096	0.18
1075.51	0.18
1075.925	0.18
1076.339	0.18
1076.754	0.18
1077.168	0.18
1077.583	0.18
1077.997	0.18
1078.412	0.18
1078.826	0.18
1079.24	0.18
1079.655	0.18
1080.069	0.18
1080.483	0.18
1080.897	0.18
1081.312	0.19
1081.726	0.19
1082.14	0.19
1082.554	0.19
1082.968	0.19
1083.382	0.19
1083.796	0.19
1084.21	0.2
1084.624	0.2
1085.038	0.2
1085.452	0.2
1085.866	0.2
1086.28	0.2
1086.694	0.2
1087.108	0.21
1087.521	0.21
1087.935	0.21
1088.349	0.21
1088.763	0.21
1089.176	0.21
1089.59	0.22
1090.004	0.22
1090.417	0.22
1090.831	0.22
1091.244	0.23
1091.658	0.23
1092.071	0.24
1092.485	0.24
1092.898	0.24
1093.312	0.25
1093.725	0.25
1094.138	0.26
1094.552	0.26
1094.965	0.27
1095.378	0.27
1095.791	0.28
1096.205	0.29
1096.618	0.3
1097.031	0.3
1097.444	0.31
1097.857	0.32
1098.27	0.32
1098.683	0.33
1099.096	0.34
1099.509	0.36
1099.922	0.37
1100.335	0.38
1100.748	0.39
1101.161	0.4
1101.574	0.42
1101.986	0.44
1102.399	0.46
1102.812	0.49
1103.225	0.52
1103.637	0.55
1104.05	0.58
1104.463	0.63
1104.875	0.67
1105.288	0.72
1105.7	0.78
1106.113	0.86
1106.525	0.97
1106.938	1.19
1107.35	1.8
1107.763	-0
1108.175	-0
1108.588	-0
1109	-0
1109.412	-0
1109.824	-0
1110.237	-0
1110.649	-0
1111.061	-0
