Data from unagg-15c-2a-1h_Absorbance__51__00478.txt Node

Date: Mon May 06 09:34:26 CEST 2024
User: Laser008
Spectrometer: MAYP115816
Trigger mode: 0
Integration Time (sec): 2.000000E-1
Scans to average: 10
Electric dark correction enabled: true
Nonlinearity correction enabled: true
Boxcar width: 5
XAxis mode: Wavelengths
Number of Pixels in Spectrum: 2068
>>>>>Begin Spectral Data<<<<<
198.914	-1.63
199.384	-1.49
199.855	-1.35
200.325	-1.23
200.796	-1.15
201.266	-1.1
201.737	-1.03
202.207	-0.97
202.677	-0.92
203.147	-0.88
203.618	-0.85
204.088	-0.83
204.558	-0.81
205.028	-0.79
205.498	-0.79
205.968	-0.79
206.439	-0.79
206.909	-0.78
207.379	-0.78
207.849	-0.78
208.319	-0.78
208.789	-0.77
209.258	-0.77
209.728	-0.77
210.198	-0.77
210.668	-0.77
211.138	-0.77
211.608	-0.77
212.077	-0.77
212.547	-0.77
213.017	-0.77
213.486	-0.76
213.956	-0.76
214.426	-0.77
214.895	-0.76
215.365	-0.76
215.834	-0.76
216.304	-0.76
216.773	-0.75
217.243	-0.75
217.712	-0.75
218.181	-0.75
218.651	-0.75
219.12	-0.74
219.589	-0.74
220.058	-0.74
220.528	-0.74
220.997	-0.73
221.466	-0.73
221.935	-0.73
222.404	-0.72
222.873	-0.72
223.342	-0.71
223.812	-0.71
224.281	-0.7
224.749	-0.69
225.218	-0.68
225.687	-0.67
226.156	-0.66
226.625	-0.64
227.094	-0.63
227.563	-0.61
228.031	-0.59
228.5	-0.56
228.969	-0.54
229.438	-0.51
229.906	-0.48
230.375	-0.44
230.844	-0.41
231.312	-0.36
231.781	-0.32
232.249	-0.27
232.718	-0.23
233.186	-0.18
233.655	-0.13
234.123	-0.08
234.591	-0.03
235.06	0.02
235.528	0.07
235.996	0.12
236.465	0.17
236.933	0.21
237.401	0.26
237.869	0.3
238.337	0.34
238.805	0.38
239.274	0.42
239.742	0.45
240.21	0.49
240.678	0.52
241.146	0.55
241.614	0.58
242.081	0.6
242.549	0.63
243.017	0.65
243.485	0.67
243.953	0.69
244.421	0.71
244.888	0.73
245.356	0.74
245.824	0.76
246.291	0.77
246.759	0.79
247.227	0.8
247.694	0.81
248.162	0.82
248.629	0.83
249.097	0.84
249.564	0.85
250.032	0.86
250.499	0.87
250.967	0.88
251.434	0.89
251.901	0.9
252.369	0.9
252.836	0.91
253.303	0.91
253.77	0.92
254.237	0.93
254.705	0.93
255.172	0.94
255.639	0.94
256.106	0.94
256.573	0.95
257.04	0.95
257.507	0.95
257.974	0.96
258.441	0.96
258.908	0.96
259.375	0.96
259.841	0.96
260.308	0.97
260.775	0.97
261.242	0.97
261.709	0.97
262.175	0.97
262.642	0.97
263.109	0.97
263.575	0.97
264.042	0.97
264.508	0.97
264.975	0.97
265.441	0.97
265.908	0.97
266.374	0.97
266.841	0.97
267.307	0.97
267.773	0.97
268.24	0.97
268.706	0.96
269.172	0.96
269.639	0.96
270.105	0.96
270.571	0.96
271.037	0.96
271.503	0.95
271.969	0.95
272.435	0.95
272.902	0.95
273.368	0.94
273.834	0.94
274.3	0.94
274.765	0.94
275.231	0.93
275.697	0.93
276.163	0.93
276.629	0.93
277.095	0.92
277.56	0.92
278.026	0.91
278.492	0.91
278.958	0.9
279.423	0.9
279.889	0.9
280.354	0.9
280.82	0.89
281.286	0.89
281.751	0.89
282.217	0.89
282.682	0.88
283.147	0.88
283.613	0.88
284.078	0.88
284.544	0.87
285.009	0.87
285.474	0.87
285.939	0.86
286.405	0.86
286.87	0.86
287.335	0.85
287.8	0.85
288.265	0.85
288.73	0.84
289.195	0.84
289.66	0.84
290.125	0.84
290.59	0.83
291.055	0.83
291.52	0.83
291.985	0.82
292.45	0.82
292.915	0.82
293.38	0.82
293.844	0.81
294.309	0.81
294.774	0.81
295.239	0.81
295.703	0.8
296.168	0.8
296.632	0.8
297.097	0.8
297.562	0.79
298.026	0.79
298.491	0.79
298.955	0.79
299.419	0.79
299.884	0.78
300.348	0.78
300.813	0.78
301.277	0.78
301.741	0.78
302.205	0.77
302.67	0.77
303.134	0.77
303.598	0.77
304.062	0.77
304.526	0.76
304.99	0.76
305.454	0.76
305.919	0.76
306.383	0.76
306.847	0.76
307.31	0.75
307.774	0.75
308.238	0.75
308.702	0.75
309.166	0.75
309.63	0.74
310.094	0.74
310.557	0.74
311.021	0.74
311.485	0.74
311.948	0.74
312.412	0.73
312.876	0.73
313.339	0.73
313.803	0.73
314.266	0.73
314.73	0.73
315.193	0.72
315.657	0.72
316.12	0.72
316.584	0.72
317.047	0.72
317.51	0.72
317.973	0.71
318.437	0.71
318.9	0.71
319.363	0.71
319.826	0.71
320.29	0.71
320.753	0.7
321.216	0.7
321.679	0.7
322.142	0.7
322.605	0.7
323.068	0.7
323.531	0.69
323.994	0.69
324.457	0.69
324.92	0.69
325.382	0.69
325.845	0.69
326.308	0.68
326.771	0.68
327.233	0.68
327.696	0.68
328.159	0.68
328.622	0.68
329.084	0.68
329.547	0.67
330.009	0.67
330.472	0.67
330.934	0.67
331.397	0.67
331.859	0.67
332.322	0.67
332.784	0.66
333.246	0.66
333.709	0.66
334.171	0.66
334.633	0.66
335.096	0.66
335.558	0.66
336.02	0.65
336.482	0.65
336.944	0.65
337.406	0.65
337.868	0.65
338.331	0.65
338.793	0.65
339.255	0.65
339.717	0.64
340.178	0.64
340.64	0.64
341.102	0.64
341.564	0.64
342.026	0.64
342.488	0.64
342.949	0.64
343.411	0.64
343.873	0.64
344.335	0.63
344.796	0.63
345.258	0.63
345.719	0.63
346.181	0.63
346.643	0.63
347.104	0.63
347.566	0.63
348.027	0.63
348.488	0.63
348.95	0.63
349.411	0.62
349.873	0.62
350.334	0.62
350.795	0.62
351.256	0.62
351.718	0.62
352.179	0.62
352.64	0.62
353.101	0.62
353.562	0.62
354.023	0.62
354.484	0.61
354.945	0.61
355.406	0.61
355.867	0.61
356.328	0.61
356.789	0.61
357.25	0.61
357.711	0.61
358.172	0.61
358.633	0.61
359.093	0.61
359.554	0.61
360.015	0.61
360.476	0.61
360.936	0.61
361.397	0.61
361.858	0.61
362.318	0.61
362.779	0.61
363.239	0.61
363.7	0.61
364.16	0.61
364.621	0.61
365.081	0.61
365.541	0.61
366.002	0.61
366.462	0.61
366.922	0.61
367.383	0.61
367.843	0.6
368.303	0.6
368.763	0.6
369.223	0.6
369.684	0.6
370.144	0.6
370.604	0.6
371.064	0.6
371.524	0.6
371.984	0.6
372.444	0.6
372.904	0.6
373.363	0.6
373.823	0.6
374.283	0.6
374.743	0.6
375.203	0.6
375.663	0.6
376.122	0.6
376.582	0.6
377.042	0.6
377.501	0.6
377.961	0.6
378.42	0.6
378.88	0.6
379.34	0.59
379.799	0.59
380.259	0.59
380.718	0.59
381.177	0.59
381.637	0.59
382.096	0.59
382.555	0.59
383.015	0.59
383.474	0.59
383.933	0.59
384.393	0.59
384.852	0.59
385.311	0.59
385.77	0.59
386.229	0.59
386.688	0.59
387.147	0.59
387.606	0.59
388.065	0.59
388.524	0.58
388.983	0.58
389.442	0.58
389.901	0.58
390.36	0.58
390.819	0.58
391.277	0.58
391.736	0.58
392.195	0.58
392.654	0.58
393.112	0.58
393.571	0.58
394.03	0.58
394.488	0.58
394.947	0.58
395.405	0.58
395.864	0.58
396.322	0.58
396.781	0.58
397.239	0.58
397.698	0.58
398.156	0.58
398.614	0.58
399.073	0.58
399.531	0.58
399.989	0.57
400.447	0.57
400.905	0.57
401.364	0.57
401.822	0.57
402.28	0.57
402.738	0.57
403.196	0.57
403.654	0.57
404.112	0.57
404.57	0.57
405.028	0.57
405.486	0.57
405.944	0.57
406.402	0.57
406.859	0.57
407.317	0.56
407.775	0.56
408.233	0.56
408.691	0.56
409.148	0.56
409.606	0.56
410.064	0.56
410.521	0.56
410.979	0.56
411.436	0.56
411.894	0.56
412.351	0.56
412.809	0.56
413.266	0.56
413.724	0.56
414.181	0.56
414.638	0.56
415.096	0.56
415.553	0.55
416.01	0.55
416.467	0.55
416.925	0.55
417.382	0.55
417.839	0.55
418.296	0.55
418.753	0.55
419.21	0.55
419.667	0.55
420.124	0.55
420.581	0.55
421.038	0.55
421.495	0.55
421.952	0.55
422.409	0.55
422.866	0.55
423.322	0.55
423.779	0.55
424.236	0.55
424.693	0.55
425.149	0.55
425.606	0.55
426.063	0.55
426.519	0.55
426.976	0.55
427.433	0.55
427.889	0.55
428.346	0.55
428.802	0.55
429.258	0.55
429.715	0.55
430.171	0.55
430.628	0.55
431.084	0.55
431.54	0.55
431.997	0.55
432.453	0.55
432.909	0.55
433.365	0.55
433.821	0.54
434.277	0.54
434.734	0.54
435.19	0.54
435.646	0.54
436.102	0.54
436.558	0.54
437.014	0.54
437.47	0.54
437.925	0.54
438.381	0.54
438.837	0.54
439.293	0.54
439.749	0.54
440.205	0.54
440.66	0.54
441.116	0.54
441.572	0.54
442.027	0.54
442.483	0.54
442.939	0.54
443.394	0.54
443.85	0.54
444.305	0.54
444.761	0.54
445.216	0.54
445.672	0.54
446.127	0.54
446.582	0.54
447.038	0.54
447.493	0.54
447.948	0.54
448.403	0.54
448.859	0.54
449.314	0.54
449.769	0.54
450.224	0.54
450.679	0.54
451.134	0.54
451.589	0.54
452.044	0.54
452.499	0.54
452.954	0.54
453.409	0.54
453.864	0.54
454.319	0.54
454.774	0.54
455.229	0.54
455.684	0.54
456.138	0.54
456.593	0.54
457.048	0.54
457.503	0.54
457.957	0.54
458.412	0.54
458.866	0.54
459.321	0.54
459.776	0.54
460.23	0.54
460.685	0.54
461.139	0.54
461.593	0.54
462.048	0.54
462.502	0.54
462.957	0.54
463.411	0.54
463.865	0.54
464.319	0.54
464.774	0.54
465.228	0.54
465.682	0.54
466.136	0.54
466.59	0.54
467.044	0.54
467.499	0.54
467.953	0.54
468.407	0.54
468.861	0.54
469.315	0.54
469.768	0.54
470.222	0.54
470.676	0.54
471.13	0.54
471.584	0.54
472.038	0.54
472.491	0.54
472.945	0.54
473.399	0.54
473.852	0.54
474.306	0.55
474.76	0.55
475.213	0.55
475.667	0.55
476.12	0.55
476.574	0.55
477.027	0.55
477.481	0.56
477.934	0.56
478.388	0.56
478.841	0.56
479.294	0.56
479.748	0.56
480.201	0.56
480.654	0.57
481.107	0.57
481.561	0.57
482.014	0.57
482.467	0.57
482.92	0.58
483.373	0.58
483.826	0.58
484.279	0.59
484.732	0.59
485.185	0.59
485.638	0.6
486.091	0.6
486.544	0.6
486.997	0.6
487.449	0.6
487.902	0.6
488.355	0.6
488.808	0.6
489.26	0.6
489.713	0.61
490.166	0.61
490.618	0.61
491.071	0.61
491.523	0.61
491.976	0.61
492.429	0.62
492.881	0.62
493.333	0.62
493.786	0.63
494.238	0.63
494.691	0.63
495.143	0.64
495.595	0.64
496.048	0.64
496.5	0.65
496.952	0.65
497.404	0.65
497.856	0.66
498.309	0.66
498.761	0.66
499.213	0.66
499.665	0.67
500.117	0.67
500.569	0.67
501.021	0.68
501.473	0.68
501.925	0.68
502.377	0.69
502.828	0.69
503.28	0.69
503.732	0.7
504.184	0.7
504.636	0.7
505.087	0.7
505.539	0.71
505.991	0.71
506.442	0.71
506.894	0.71
507.345	0.72
507.797	0.72
508.249	0.72
508.7	0.72
509.151	0.72
509.603	0.73
510.054	0.73
510.506	0.73
510.957	0.73
511.408	0.73
511.86	0.74
512.311	0.74
512.762	0.74
513.213	0.74
513.665	0.74
514.116	0.74
514.567	0.74
515.018	0.74
515.469	0.74
515.92	0.74
516.371	0.74
516.822	0.74
517.273	0.75
517.724	0.75
518.175	0.75
518.626	0.75
519.076	0.74
519.527	0.74
519.978	0.74
520.429	0.74
520.88	0.73
521.33	0.73
521.781	0.73
522.232	0.73
522.682	0.73
523.133	0.73
523.583	0.73
524.034	0.73
524.484	0.74
524.935	0.74
525.385	0.75
525.836	0.75
526.286	0.75
526.736	0.76
527.187	0.76
527.637	0.76
528.087	0.77
528.538	0.77
528.988	0.77
529.438	0.77
529.888	0.77
530.338	0.77
530.788	0.77
531.238	0.77
531.688	0.77
532.139	0.77
532.589	0.77
533.038	0.77
533.488	0.77
533.938	0.77
534.388	0.76
534.838	0.76
535.288	0.76
535.738	0.76
536.187	0.76
536.637	0.76
537.087	0.76
537.537	0.76
537.986	0.75
538.436	0.75
538.885	0.75
539.335	0.75
539.785	0.74
540.234	0.74
540.684	0.74
541.133	0.73
541.582	0.73
542.032	0.73
542.481	0.73
542.931	0.72
543.38	0.72
543.829	0.72
544.278	0.71
544.728	0.71
545.177	0.71
545.626	0.71
546.075	0.71
546.524	0.7
546.973	0.7
547.422	0.69
547.871	0.69
548.32	0.69
548.769	0.68
549.218	0.68
549.667	0.67
550.116	0.67
550.565	0.67
551.014	0.66
551.463	0.66
551.911	0.65
552.36	0.65
552.809	0.65
553.258	0.64
553.706	0.64
554.155	0.64
554.603	0.63
555.052	0.63
555.501	0.62
555.949	0.61
556.398	0.61
556.846	0.6
557.294	0.6
557.743	0.59
558.191	0.59
558.64	0.58
559.088	0.58
559.536	0.58
559.985	0.57
560.433	0.57
560.881	0.57
561.329	0.57
561.777	0.56
562.225	0.56
562.674	0.56
563.122	0.55
563.57	0.55
564.018	0.54
564.466	0.54
564.914	0.53
565.362	0.53
565.809	0.52
566.257	0.52
566.705	0.51
567.153	0.51
567.601	0.51
568.048	0.5
568.496	0.5
568.944	0.5
569.392	0.5
569.839	0.5
570.287	0.49
570.734	0.49
571.182	0.49
571.63	0.49
572.077	0.48
572.525	0.48
572.972	0.48
573.419	0.48
573.867	0.47
574.314	0.47
574.761	0.47
575.209	0.46
575.656	0.46
576.103	0.46
576.551	0.45
576.998	0.45
577.445	0.45
577.892	0.45
578.339	0.44
578.786	0.44
579.233	0.44
579.68	0.43
580.127	0.43
580.574	0.43
581.021	0.42
581.468	0.42
581.915	0.42
582.362	0.42
582.809	0.41
583.255	0.41
583.702	0.41
584.149	0.4
584.596	0.4
585.042	0.39
585.489	0.39
585.936	0.39
586.382	0.39
586.829	0.39
587.275	0.38
587.722	0.38
588.168	0.38
588.615	0.37
589.061	0.37
589.508	0.37
589.954	0.36
590.4	0.36
590.847	0.36
591.293	0.36
591.739	0.35
592.185	0.35
592.632	0.35
593.078	0.35
593.524	0.35
593.97	0.35
594.416	0.35
594.862	0.34
595.308	0.34
595.754	0.34
596.2	0.34
596.646	0.34
597.092	0.34
597.538	0.34
597.984	0.34
598.43	0.34
598.876	0.33
599.321	0.33
599.767	0.33
600.213	0.33
600.659	0.33
601.104	0.33
601.55	0.33
601.995	0.32
602.441	0.32
602.887	0.32
603.332	0.32
603.778	0.32
604.223	0.32
604.668	0.32
605.114	0.32
605.559	0.32
606.005	0.32
606.45	0.32
606.895	0.32
607.341	0.32
607.786	0.32
608.231	0.32
608.676	0.32
609.121	0.32
609.566	0.32
610.012	0.31
610.457	0.31
610.902	0.31
611.347	0.31
611.792	0.31
612.237	0.32
612.682	0.32
613.127	0.32
613.571	0.32
614.016	0.32
614.461	0.32
614.906	0.32
615.351	0.32
615.795	0.32
616.24	0.31
616.685	0.31
617.129	0.31
617.574	0.31
618.019	0.31
618.463	0.31
618.908	0.31
619.352	0.32
619.797	0.32
620.241	0.32
620.686	0.32
621.13	0.32
621.574	0.32
622.019	0.32
622.463	0.32
622.907	0.32
623.352	0.33
623.796	0.33
624.24	0.33
624.684	0.33
625.128	0.33
625.572	0.33
626.016	0.33
626.461	0.34
626.905	0.34
627.349	0.34
627.793	0.34
628.236	0.34
628.68	0.35
629.124	0.35
629.568	0.35
630.012	0.35
630.456	0.35
630.9	0.36
631.343	0.36
631.787	0.36
632.231	0.36
632.674	0.36
633.118	0.37
633.562	0.37
634.005	0.37
634.449	0.37
634.892	0.38
635.336	0.38
635.779	0.38
636.223	0.38
636.666	0.39
637.109	0.39
637.553	0.39
637.996	0.4
638.439	0.4
638.883	0.4
639.326	0.41
639.769	0.41
640.212	0.41
640.655	0.42
641.099	0.42
641.542	0.43
641.985	0.43
642.428	0.43
642.871	0.44
643.314	0.44
643.757	0.45
644.2	0.45
644.643	0.45
645.085	0.46
645.528	0.46
645.971	0.47
646.414	0.47
646.857	0.48
647.299	0.48
647.742	0.49
648.185	0.49
648.627	0.5
649.07	0.5
649.513	0.51
649.955	0.51
650.398	0.52
650.84	0.52
651.283	0.53
651.725	0.53
652.168	0.54
652.61	0.55
653.052	0.55
653.495	0.55
653.937	0.48
654.379	0.45
654.821	0.46
655.264	0.46
655.706	0.46
656.148	0.47
656.59	0.47
657.032	0.48
657.474	0.48
657.916	0.48
658.358	0.48
658.8	0.56
659.242	0.63
659.684	0.64
660.126	0.64
660.568	0.64
661.01	0.65
661.452	0.65
661.894	0.66
662.335	0.66
662.777	0.67
663.219	0.68
663.661	0.68
664.102	0.69
664.544	0.69
664.985	0.7
665.427	0.7
665.869	0.71
666.31	0.71
666.752	0.72
667.193	0.72
667.634	0.73
668.076	0.73
668.517	0.74
668.959	0.74
669.4	0.75
669.841	0.75
670.282	0.76
670.724	0.77
671.165	0.77
671.606	0.77
672.047	0.78
672.488	0.78
672.929	0.78
673.37	0.79
673.811	0.79
674.252	0.79
674.693	0.79
675.134	0.8
675.575	0.8
676.016	0.8
676.457	0.8
676.898	0.81
677.339	0.81
677.78	0.81
678.22	0.81
678.661	0.82
679.102	0.82
679.542	0.82
679.983	0.82
680.424	0.82
680.864	0.82
681.305	0.82
681.745	0.82
682.186	0.82
682.626	0.83
683.067	0.83
683.507	0.83
683.948	0.83
684.388	0.83
684.828	0.83
685.269	0.84
685.709	0.84
686.149	0.84
686.589	0.84
687.029	0.84
687.47	0.84
687.91	0.84
688.35	0.83
688.79	0.83
689.23	0.83
689.67	0.83
690.11	0.83
690.55	0.83
690.99	0.83
691.43	0.83
691.87	0.83
692.31	0.83
692.749	0.83
693.189	0.82
693.629	0.82
694.069	0.82
694.508	0.82
694.948	0.82
695.388	0.82
695.827	0.81
696.267	0.81
696.706	0.81
697.146	0.81
697.586	0.81
698.025	0.8
698.464	0.8
698.904	0.79
699.343	0.79
699.783	0.79
700.222	0.78
700.661	0.78
701.101	0.77
701.54	0.77
701.979	0.77
702.418	0.76
702.857	0.76
703.297	0.76
703.736	0.75
704.175	0.75
704.614	0.75
705.053	0.74
705.492	0.74
705.931	0.73
706.37	0.73
706.809	0.73
707.248	0.72
707.687	0.72
708.125	0.72
708.564	0.71
709.003	0.71
709.442	0.7
709.88	0.7
710.319	0.69
710.758	0.69
711.196	0.68
711.635	0.68
712.074	0.67
712.512	0.67
712.951	0.66
713.389	0.66
713.828	0.65
714.266	0.65
714.705	0.64
715.143	0.64
715.581	0.63
716.02	0.63
716.458	0.62
716.896	0.62
717.334	0.61
717.773	0.6
718.211	0.6
718.649	0.6
719.087	0.59
719.525	0.59
719.963	0.58
720.401	0.58
720.839	0.57
721.277	0.57
721.715	0.56
722.153	0.56
722.591	0.55
723.029	0.54
723.467	0.54
723.905	0.53
724.342	0.53
724.78	0.52
725.218	0.52
725.656	0.52
726.093	0.51
726.531	0.51
726.969	0.5
727.406	0.5
727.844	0.49
728.281	0.49
728.719	0.48
729.156	0.48
729.594	0.48
730.031	0.47
730.469	0.47
730.906	0.46
731.343	0.46
731.781	0.46
732.218	0.45
732.655	0.45
733.092	0.45
733.53	0.44
733.967	0.44
734.404	0.44
734.841	0.43
735.278	0.43
735.715	0.42
736.152	0.42
736.589	0.42
737.026	0.41
737.463	0.41
737.9	0.4
738.337	0.4
738.774	0.39
739.211	0.39
739.647	0.39
740.084	0.38
740.521	0.38
740.958	0.37
741.394	0.37
741.831	0.36
742.268	0.36
742.704	0.36
743.141	0.35
743.577	0.35
744.014	0.34
744.45	0.34
744.887	0.33
745.323	0.33
745.76	0.32
746.196	0.32
746.632	0.32
747.069	0.32
747.505	0.31
747.941	0.31
748.378	0.31
748.814	0.3
749.25	0.3
749.686	0.3
750.122	0.3
750.558	0.3
750.994	0.29
751.43	0.29
751.866	0.29
752.302	0.29
752.738	0.28
753.174	0.28
753.61	0.28
754.046	0.28
754.482	0.28
754.918	0.27
755.354	0.27
755.789	0.27
756.225	0.27
756.661	0.26
757.096	0.26
757.532	0.26
757.968	0.26
758.403	0.26
758.839	0.25
759.274	0.25
759.71	0.25
760.145	0.24
760.581	0.24
761.016	0.24
761.452	0.23
761.887	0.23
762.322	0.23
762.758	0.22
763.193	0.22
763.628	0.22
764.063	0.22
764.499	0.21
764.934	0.21
765.369	0.21
765.804	0.2
766.239	0.2
766.674	0.2
767.109	0.2
767.544	0.19
767.979	0.19
768.414	0.18
768.849	0.18
769.284	0.18
769.719	0.17
770.154	0.17
770.588	0.17
771.023	0.16
771.458	0.16
771.893	0.16
772.327	0.15
772.762	0.15
773.197	0.15
773.631	0.14
774.066	0.14
774.5	0.14
774.935	0.13
775.369	0.13
775.804	0.13
776.238	0.12
776.673	0.12
777.107	0.11
777.541	0.11
777.976	0.11
778.41	0.1
778.844	0.1
779.279	0.09
779.713	0.09
780.147	0.08
780.581	0.08
781.015	0.07
781.449	0.07
781.883	0.06
782.317	0.05
782.751	0.04
783.185	0.03
783.619	0.03
784.053	0.02
784.487	0.01
784.921	-0
785.355	-0.01
785.789	-0.02
786.223	-0.03
786.656	-0.03
787.09	-0.03
787.524	-0.04
787.957	-0.04
788.391	-0.05
788.825	-0.05
789.258	-0.06
789.692	-0.06
790.125	-0.06
790.559	-0.06
790.992	-0.06
791.426	-0.06
791.859	-0.06
792.293	-0.05
792.726	-0.05
793.159	-0.04
793.593	-0.04
794.026	-0.04
794.459	-0.05
794.892	-0.05
795.326	-0.05
795.759	-0.05
796.192	-0.05
796.625	-0.06
797.058	-0.07
797.491	-0.07
797.924	-0.08
798.357	-0.08
798.79	-0.08
799.223	-0.08
799.656	-0.08
800.089	-0.08
800.522	-0.09
800.955	-0.09
801.387	-0.09
801.82	-0.09
802.253	-0.09
802.686	-0.09
803.118	-0.09
803.551	-0.09
803.984	-0.09
804.416	-0.08
804.849	-0.08
805.281	-0.07
805.714	-0.07
806.146	-0.07
806.579	-0.07
807.011	-0.07
807.444	-0.07
807.876	-0.07
808.308	-0.07
808.741	-0.07
809.173	-0.08
809.605	-0.08
810.037	-0.08
810.47	-0.09
810.902	-0.09
811.334	-0.09
811.766	-0.08
812.198	-0.08
812.63	-0.08
813.062	-0.08
813.494	-0.08
813.926	-0.08
814.358	-0.08
814.79	-0.08
815.222	-0.07
815.654	-0.07
816.086	-0.07
816.518	-0.08
816.949	-0.08
817.381	-0.08
817.813	-0.08
818.245	-0.07
818.676	-0.06
819.108	-0.06
819.54	-0.05
819.971	-0.05
820.403	-0.04
820.834	-0.03
821.266	-0.02
821.697	-0.01
822.129	-0.01
822.56	0
822.991	0.01
823.423	0.01
823.854	0.02
824.286	0.02
824.717	0.03
825.148	0.03
825.579	0.04
826.01	0.04
826.442	0.04
826.873	0.05
827.304	0.05
827.735	0.05
828.166	0.05
828.597	0.06
829.028	0.06
829.459	0.06
829.89	0.06
830.321	0.06
830.752	0.06
831.183	0.07
831.613	0.07
832.044	0.07
832.475	0.07
832.906	0.07
833.336	0.07
833.767	0.08
834.198	0.08
834.628	0.08
835.059	0.08
835.49	0.08
835.92	0.08
836.351	0.08
836.781	0.08
837.212	0.09
837.642	0.09
838.072	0.09
838.503	0.09
838.933	0.09
839.364	0.09
839.794	0.09
840.224	0.09
840.654	0.09
841.085	0.09
841.515	0.08
841.945	0.08
842.375	0.08
842.805	0.08
843.235	0.08
843.665	0.08
844.095	0.08
844.525	0.08
844.955	0.08
845.385	0.08
845.815	0.08
846.245	0.08
846.675	0.08
847.105	0.08
847.534	0.08
847.964	0.08
848.394	0.08
848.824	0.08
849.253	0.08
849.683	0.08
850.112	0.08
850.542	0.08
850.972	0.08
851.401	0.08
851.831	0.08
852.26	0.08
852.69	0.08
853.119	0.08
853.548	0.08
853.978	0.08
854.407	0.08
854.836	0.08
855.266	0.08
855.695	0.08
856.124	0.08
856.553	0.07
856.983	0.07
857.412	0.07
857.841	0.07
858.27	0.07
858.699	0.07
859.128	0.07
859.557	0.07
859.986	0.07
860.415	0.07
860.844	0.07
861.273	0.07
861.702	0.06
862.13	0.06
862.559	0.06
862.988	0.06
863.417	0.06
863.845	0.06
864.274	0.06
864.703	0.06
865.131	0.06
865.56	0.06
865.989	0.06
866.417	0.06
866.846	0.06
867.274	0.06
867.703	0.06
868.131	0.06
868.559	0.06
868.988	0.06
869.416	0.06
869.844	0.06
870.273	0.06
870.701	0.06
871.129	0.06
871.557	0.06
871.986	0.06
872.414	0.06
872.842	0.06
873.27	0.06
873.698	0.06
874.126	0.06
874.554	0.06
874.982	0.06
875.41	0.06
875.838	0.06
876.266	0.06
876.694	0.06
877.122	0.06
877.549	0.06
877.977	0.06
878.405	0.06
878.833	0.06
879.26	0.06
879.688	0.06
880.116	0.06
880.543	0.06
880.971	0.06
881.399	0.06
881.826	0.06
882.254	0.06
882.681	0.06
883.109	0.06
883.536	0.06
883.963	0.06
884.391	0.06
884.818	0.06
885.245	0.06
885.673	0.07
886.1	0.07
886.527	0.07
886.954	0.07
887.381	0.07
887.809	0.07
888.236	0.07
888.663	0.07
889.09	0.07
889.517	0.07
889.944	0.06
890.371	0.06
890.798	0.06
891.225	0.06
891.652	0.06
892.078	0.06
892.505	0.06
892.932	0.06
893.359	0.06
893.786	0.06
894.212	0.06
894.639	0.06
895.066	0.06
895.492	0.06
895.919	0.06
896.346	0.06
896.772	0.06
897.199	0.06
897.625	0.06
898.052	0.06
898.478	0.06
898.904	0.06
899.331	0.06
899.757	0.06
900.183	0.06
900.61	0.06
901.036	0.06
901.462	0.06
901.888	0.06
902.315	0.06
902.741	0.06
903.167	0.06
903.593	0.06
904.019	0.06
904.445	0.06
904.871	0.06
905.297	0.06
905.723	0.06
906.149	0.06
906.575	0.06
907.001	0.06
907.427	0.06
907.852	0.06
908.278	0.06
908.704	0.06
909.13	0.06
909.555	0.06
909.981	0.06
910.407	0.06
910.832	0.06
911.258	0.06
911.684	0.06
912.109	0.06
912.535	0.06
912.96	0.06
913.386	0.06
913.811	0.06
914.236	0.06
914.662	0.06
915.087	0.06
915.512	0.06
915.938	0.06
916.363	0.06
916.788	0.06
917.213	0.06
917.639	0.06
918.064	0.06
918.489	0.06
918.914	0.06
919.339	0.06
919.764	0.06
920.189	0.06
920.614	0.06
921.039	0.06
921.464	0.06
921.889	0.06
922.314	0.06
922.738	0.06
923.163	0.06
923.588	0.06
924.013	0.06
924.437	0.06
924.862	0.06
925.287	0.06
925.711	0.06
926.136	0.06
926.561	0.06
926.985	0.06
927.41	0.06
927.834	0.06
928.259	0.06
928.683	0.06
929.108	0.06
929.532	0.06
929.956	0.06
930.381	0.06
930.805	0.06
931.229	0.05
931.653	0.05
932.078	0.05
932.502	0.05
932.926	0.05
933.35	0.05
933.774	0.05
934.198	0.05
934.622	0.04
935.046	0.04
935.47	0.04
935.894	0.04
936.318	0.04
936.742	0.04
937.166	0.04
937.59	0.05
938.014	0.05
938.437	0.05
938.861	0.05
939.285	0.05
939.709	0.05
940.132	0.05
940.556	0.05
940.98	0.05
941.403	0.05
941.827	0.05
942.25	0.05
942.674	0.05
943.097	0.05
943.521	0.05
943.944	0.05
944.368	0.05
944.791	0.05
945.214	0.05
945.638	0.05
946.061	0.05
946.484	0.05
946.907	0.05
947.331	0.05
947.754	0.05
948.177	0.05
948.6	0.04
949.023	0.04
949.446	0.04
949.869	0.04
950.292	0.04
950.715	0.04
951.138	0.04
951.561	0.04
951.984	0.04
952.407	0.04
952.83	0.04
953.252	0.04
953.675	0.04
954.098	0.04
954.521	0.04
954.943	0.04
955.366	0.04
955.789	0.04
956.211	0.04
956.634	0.04
957.056	0.04
957.479	0.04
957.902	0.04
958.324	0.04
958.746	0.04
959.169	0.04
959.591	0.04
960.014	0.04
960.436	0.04
960.858	0.04
961.281	0.04
961.703	0.04
962.125	0.05
962.547	0.05
962.969	0.05
963.391	0.05
963.814	0.05
964.236	0.05
964.658	0.05
965.08	0.05
965.502	0.05
965.924	0.05
966.346	0.05
966.768	0.05
967.189	0.05
967.611	0.05
968.033	0.05
968.455	0.05
968.877	0.05
969.298	0.05
969.72	0.05
970.142	0.05
970.563	0.05
970.985	0.04
971.407	0.04
971.828	0.04
972.25	0.04
972.671	0.05
973.093	0.05
973.514	0.05
973.936	0.05
974.357	0.05
974.778	0.05
975.2	0.05
975.621	0.05
976.042	0.05
976.464	0.05
976.885	0.05
977.306	0.05
977.727	0.05
978.148	0.05
978.57	0.05
978.991	0.05
979.412	0.04
979.833	0.04
980.254	0.04
980.675	0.04
981.096	0.04
981.517	0.04
981.937	0.04
982.358	0.04
982.779	0.04
983.2	0.04
983.621	0.04
984.042	0.04
984.462	0.04
984.883	0.04
985.304	0.04
985.724	0.04
986.145	0.04
986.565	0.04
986.986	0.04
987.407	0.04
987.827	0.04
988.248	0.04
988.668	0.04
989.088	0.04
989.509	0.04
989.929	0.04
990.35	0.04
990.77	0.04
991.19	0.04
991.61	0.04
992.031	0.04
992.451	0.04
992.871	0.04
993.291	0.04
993.711	0.03
994.131	0.03
994.551	0.03
994.971	0.03
995.391	0.03
995.811	0.03
996.231	0.03
996.651	0.03
997.071	0.03
997.491	0.03
997.911	0.03
998.331	0.03
998.75	0.03
999.17	0.03
999.59	0.03
1000.009	0.03
1000.429	0.03
1000.849	0.04
1001.268	0.04
1001.688	0.04
1002.107	0.04
1002.527	0.04
1002.946	0.04
1003.366	0.04
1003.785	0.04
1004.205	0.04
1004.624	0.04
1005.044	0.04
1005.463	0.04
1005.882	0.04
1006.301	0.03
1006.721	0.03
1007.14	0.03
1007.559	0.03
1007.978	0.03
1008.397	0.03
1008.816	0.03
1009.235	0.03
1009.655	0.03
1010.074	0.03
1010.492	0.03
1010.911	0.03
1011.33	0.03
1011.749	0.03
1012.168	0.03
1012.587	0.03
1013.006	0.03
1013.425	0.03
1013.843	0.03
1014.262	0.03
1014.681	0.03
1015.099	0.03
1015.518	0.03
1015.937	0.03
1016.355	0.03
1016.774	0.03
1017.192	0.03
1017.611	0.03
1018.029	0.03
1018.448	0.03
1018.866	0.03
1019.285	0.03
1019.703	0.03
1020.121	0.03
1020.54	0.03
1020.958	0.03
1021.376	0.03
1021.794	0.03
1022.213	0.03
1022.631	0.03
1023.049	0.03
1023.467	0.03
1023.885	0.03
1024.303	0.03
1024.721	0.03
1025.139	0.03
1025.557	0.03
1025.975	0.03
1026.393	0.04
1026.811	0.04
1027.229	0.04
1027.647	0.04
1028.065	0.04
1028.482	0.04
1028.9	0.04
1029.318	0.04
1029.735	0.04
1030.153	0.04
1030.571	0.04
1030.988	0.04
1031.406	0.04
1031.823	0.04
1032.241	0.05
1032.659	0.05
1033.076	0.04
1033.493	0.04
1033.911	0.04
1034.328	0.04
1034.746	0.04
1035.163	0.04
1035.58	0.04
1035.997	0.04
1036.415	0.04
1036.832	0.04
1037.249	0.04
1037.666	0.04
1038.083	0.03
1038.501	0.04
1038.918	0.04
1039.335	0.04
1039.752	0.04
1040.169	0.04
1040.586	0.04
1041.003	0.04
1041.419	0.04
1041.836	0.04
1042.253	0.04
1042.67	0.04
1043.087	0.03
1043.504	0.03
1043.92	0.03
1044.337	0.03
1044.754	0.03
1045.17	0.03
1045.587	0.03
1046.004	0.03
1046.42	0.03
1046.837	0.03
1047.253	0.03
1047.67	0.03
1048.086	0.03
1048.503	0.03
1048.919	0.03
1049.335	0.03
1049.752	0.03
1050.168	0.03
1050.584	0.03
1051.001	0.03
1051.417	0.03
1051.833	0.03
1052.249	0.03
1052.665	0.03
1053.081	0.03
1053.497	0.03
1053.914	0.03
1054.33	0.04
1054.746	0.04
1055.162	0.04
1055.578	0.04
1055.993	0.04
1056.409	0.03
1056.825	0.03
1057.241	0.03
1057.657	0.03
1058.073	0.03
1058.488	0.03
1058.904	0.03
1059.32	0.03
1059.736	0.03
1060.151	0.03
1060.567	0.03
1060.982	0.03
1061.398	0.03
1061.813	0.03
1062.229	0.03
1062.644	0.03
1063.06	0.03
1063.475	0.03
1063.891	0.03
1064.306	0.03
1064.721	0.03
1065.137	0.03
1065.552	0.03
1065.967	0.03
1066.382	0.03
1066.798	0.03
1067.213	0.03
1067.628	0.03
1068.043	0.03
1068.458	0.03
1068.873	0.03
1069.288	0.03
1069.703	0.03
1070.118	0.03
1070.533	0.03
1070.948	0.03
1071.363	0.03
1071.778	0.03
1072.193	0.03
1072.607	0.03
1073.022	0.03
1073.437	0.03
1073.852	0.03
1074.266	0.03
1074.681	0.03
1075.096	0.03
1075.51	0.03
1075.925	0.03
1076.339	0.03
1076.754	0.03
1077.168	0.03
1077.583	0.03
1077.997	0.03
1078.412	0.03
1078.826	0.03
1079.24	0.03
1079.655	0.03
1080.069	0.03
1080.483	0.03
1080.897	0.03
1081.312	0.03
1081.726	0.03
1082.14	0.03
1082.554	0.03
1082.968	0.03
1083.382	0.03
1083.796	0.04
1084.21	0.04
1084.624	0.04
1085.038	0.04
1085.452	0.04
1085.866	0.04
1086.28	0.04
1086.694	0.04
1087.108	0.04
1087.521	0.04
1087.935	0.04
1088.349	0.04
1088.763	0.04
1089.176	0.05
1089.59	0.05
1090.004	0.05
1090.417	0.05
1090.831	0.05
1091.244	0.05
1091.658	0.05
1092.071	0.06
1092.485	0.06
1092.898	0.06
1093.312	0.06
1093.725	0.07
1094.138	0.07
1094.552	0.07
1094.965	0.07
1095.378	0.08
1095.791	0.08
1096.205	0.08
1096.618	0.09
1097.031	0.09
1097.444	0.09
1097.857	0.09
1098.27	0.1
1098.683	0.1
1099.096	0.11
1099.509	0.11
1099.922	0.11
1100.335	0.12
1100.748	0.12
1101.161	0.13
1101.574	0.13
1101.986	0.14
1102.399	0.15
1102.812	0.15
1103.225	0.16
1103.637	0.17
1104.05	0.18
1104.463	0.19
1104.875	0.2
1105.288	0.21
1105.7	0.22
1106.113	0.24
1106.525	0.25
1106.938	0.27
1107.35	0.29
1107.763	0.37
1108.175	0.49
1108.588	0.7
1109	1.47
1109.412	-0
1109.824	-0
1110.237	-0
1110.649	-0
1111.061	-0
