Data from unagg-15c-2a-1h_Absorbance__1342__01769.txt Node

Date: Mon May 06 10:17:30 CEST 2024
User: Laser008
Spectrometer: MAYP115816
Trigger mode: 0
Integration Time (sec): 2.000000E-1
Scans to average: 10
Electric dark correction enabled: true
Nonlinearity correction enabled: true
Boxcar width: 5
XAxis mode: Wavelengths
Number of Pixels in Spectrum: 2068
>>>>>Begin Spectral Data<<<<<
198.914	-1.79
199.384	-1.65
199.855	-1.51
200.325	-1.39
200.796	-1.31
201.266	-1.26
201.737	-1.19
202.207	-1.13
202.677	-1.08
203.147	-1.03
203.618	-1.01
204.088	-0.98
204.558	-0.96
205.028	-0.95
205.498	-0.95
205.968	-0.94
206.439	-0.94
206.909	-0.94
207.379	-0.94
207.849	-0.93
208.319	-0.93
208.789	-0.93
209.258	-0.93
209.728	-0.92
210.198	-0.92
210.668	-0.92
211.138	-0.92
211.608	-0.92
212.077	-0.92
212.547	-0.92
213.017	-0.92
213.486	-0.92
213.956	-0.92
214.426	-0.92
214.895	-0.92
215.365	-0.92
215.834	-0.91
216.304	-0.91
216.773	-0.91
217.243	-0.91
217.712	-0.91
218.181	-0.9
218.651	-0.9
219.12	-0.9
219.589	-0.9
220.058	-0.9
220.528	-0.9
220.997	-0.89
221.466	-0.89
221.935	-0.89
222.404	-0.88
222.873	-0.88
223.342	-0.87
223.812	-0.87
224.281	-0.86
224.749	-0.85
225.218	-0.84
225.687	-0.83
226.156	-0.82
226.625	-0.8
227.094	-0.79
227.563	-0.77
228.031	-0.75
228.5	-0.73
228.969	-0.71
229.438	-0.68
229.906	-0.65
230.375	-0.62
230.844	-0.59
231.312	-0.55
231.781	-0.51
232.249	-0.47
232.718	-0.43
233.186	-0.39
233.655	-0.34
234.123	-0.3
234.591	-0.26
235.06	-0.22
235.528	-0.18
235.996	-0.14
236.465	-0.11
236.933	-0.08
237.401	-0.04
237.869	-0.01
238.337	0.01
238.805	0.04
239.274	0.06
239.742	0.08
240.21	0.1
240.678	0.12
241.146	0.14
241.614	0.16
242.081	0.17
242.549	0.18
243.017	0.2
243.485	0.21
243.953	0.22
244.421	0.23
244.888	0.24
245.356	0.25
245.824	0.26
246.291	0.27
246.759	0.27
247.227	0.28
247.694	0.29
248.162	0.3
248.629	0.3
249.097	0.31
249.564	0.32
250.032	0.32
250.499	0.33
250.967	0.33
251.434	0.34
251.901	0.34
252.369	0.35
252.836	0.35
253.303	0.36
253.77	0.36
254.237	0.37
254.705	0.37
255.172	0.37
255.639	0.38
256.106	0.38
256.573	0.38
257.04	0.39
257.507	0.39
257.974	0.39
258.441	0.39
258.908	0.39
259.375	0.39
259.841	0.39
260.308	0.39
260.775	0.4
261.242	0.4
261.709	0.4
262.175	0.4
262.642	0.4
263.109	0.4
263.575	0.39
264.042	0.39
264.508	0.39
264.975	0.39
265.441	0.39
265.908	0.39
266.374	0.39
266.841	0.39
267.307	0.38
267.773	0.38
268.24	0.38
268.706	0.38
269.172	0.38
269.639	0.37
270.105	0.37
270.571	0.37
271.037	0.37
271.503	0.36
271.969	0.36
272.435	0.36
272.902	0.35
273.368	0.35
273.834	0.35
274.3	0.34
274.765	0.34
275.231	0.34
275.697	0.33
276.163	0.33
276.629	0.33
277.095	0.32
277.56	0.32
278.026	0.32
278.492	0.31
278.958	0.31
279.423	0.31
279.889	0.3
280.354	0.3
280.82	0.3
281.286	0.29
281.751	0.29
282.217	0.29
282.682	0.28
283.147	0.28
283.613	0.28
284.078	0.27
284.544	0.27
285.009	0.27
285.474	0.27
285.939	0.26
286.405	0.26
286.87	0.26
287.335	0.25
287.8	0.25
288.265	0.25
288.73	0.25
289.195	0.25
289.66	0.24
290.125	0.24
290.59	0.24
291.055	0.24
291.52	0.24
291.985	0.23
292.45	0.23
292.915	0.23
293.38	0.23
293.844	0.23
294.309	0.23
294.774	0.22
295.239	0.22
295.703	0.22
296.168	0.22
296.632	0.22
297.097	0.22
297.562	0.22
298.026	0.22
298.491	0.22
298.955	0.22
299.419	0.21
299.884	0.21
300.348	0.21
300.813	0.21
301.277	0.21
301.741	0.21
302.205	0.21
302.67	0.21
303.134	0.21
303.598	0.21
304.062	0.21
304.526	0.21
304.99	0.21
305.454	0.21
305.919	0.21
306.383	0.21
306.847	0.21
307.31	0.21
307.774	0.21
308.238	0.21
308.702	0.21
309.166	0.21
309.63	0.21
310.094	0.21
310.557	0.21
311.021	0.21
311.485	0.21
311.948	0.21
312.412	0.21
312.876	0.2
313.339	0.2
313.803	0.2
314.266	0.2
314.73	0.2
315.193	0.2
315.657	0.2
316.12	0.2
316.584	0.2
317.047	0.2
317.51	0.2
317.973	0.2
318.437	0.2
318.9	0.2
319.363	0.2
319.826	0.2
320.29	0.2
320.753	0.2
321.216	0.2
321.679	0.2
322.142	0.2
322.605	0.2
323.068	0.2
323.531	0.2
323.994	0.2
324.457	0.2
324.92	0.2
325.382	0.2
325.845	0.2
326.308	0.2
326.771	0.2
327.233	0.2
327.696	0.2
328.159	0.2
328.622	0.2
329.084	0.2
329.547	0.2
330.009	0.2
330.472	0.2
330.934	0.19
331.397	0.19
331.859	0.19
332.322	0.19
332.784	0.19
333.246	0.19
333.709	0.19
334.171	0.19
334.633	0.19
335.096	0.19
335.558	0.19
336.02	0.19
336.482	0.19
336.944	0.19
337.406	0.19
337.868	0.19
338.331	0.19
338.793	0.19
339.255	0.19
339.717	0.19
340.178	0.19
340.64	0.19
341.102	0.19
341.564	0.19
342.026	0.19
342.488	0.19
342.949	0.19
343.411	0.19
343.873	0.19
344.335	0.19
344.796	0.19
345.258	0.19
345.719	0.19
346.181	0.18
346.643	0.18
347.104	0.18
347.566	0.18
348.027	0.18
348.488	0.18
348.95	0.18
349.411	0.18
349.873	0.18
350.334	0.18
350.795	0.18
351.256	0.18
351.718	0.18
352.179	0.18
352.64	0.18
353.101	0.18
353.562	0.18
354.023	0.18
354.484	0.18
354.945	0.18
355.406	0.18
355.867	0.18
356.328	0.18
356.789	0.18
357.25	0.18
357.711	0.18
358.172	0.18
358.633	0.18
359.093	0.18
359.554	0.18
360.015	0.18
360.476	0.18
360.936	0.18
361.397	0.18
361.858	0.18
362.318	0.18
362.779	0.18
363.239	0.18
363.7	0.18
364.16	0.18
364.621	0.18
365.081	0.18
365.541	0.18
366.002	0.18
366.462	0.18
366.922	0.18
367.383	0.18
367.843	0.18
368.303	0.18
368.763	0.18
369.223	0.18
369.684	0.18
370.144	0.18
370.604	0.18
371.064	0.18
371.524	0.18
371.984	0.18
372.444	0.18
372.904	0.18
373.363	0.18
373.823	0.18
374.283	0.18
374.743	0.18
375.203	0.18
375.663	0.18
376.122	0.18
376.582	0.18
377.042	0.18
377.501	0.18
377.961	0.18
378.42	0.18
378.88	0.18
379.34	0.18
379.799	0.18
380.259	0.18
380.718	0.18
381.177	0.18
381.637	0.18
382.096	0.18
382.555	0.18
383.015	0.18
383.474	0.18
383.933	0.18
384.393	0.18
384.852	0.18
385.311	0.18
385.77	0.18
386.229	0.18
386.688	0.18
387.147	0.18
387.606	0.18
388.065	0.18
388.524	0.18
388.983	0.18
389.442	0.18
389.901	0.18
390.36	0.18
390.819	0.18
391.277	0.18
391.736	0.18
392.195	0.18
392.654	0.18
393.112	0.18
393.571	0.18
394.03	0.18
394.488	0.18
394.947	0.18
395.405	0.18
395.864	0.18
396.322	0.18
396.781	0.18
397.239	0.18
397.698	0.18
398.156	0.18
398.614	0.18
399.073	0.18
399.531	0.18
399.989	0.18
400.447	0.18
400.905	0.18
401.364	0.18
401.822	0.18
402.28	0.18
402.738	0.18
403.196	0.18
403.654	0.18
404.112	0.18
404.57	0.18
405.028	0.18
405.486	0.18
405.944	0.18
406.402	0.18
406.859	0.18
407.317	0.18
407.775	0.18
408.233	0.18
408.691	0.18
409.148	0.18
409.606	0.18
410.064	0.18
410.521	0.18
410.979	0.18
411.436	0.18
411.894	0.18
412.351	0.18
412.809	0.18
413.266	0.18
413.724	0.18
414.181	0.18
414.638	0.18
415.096	0.18
415.553	0.18
416.01	0.18
416.467	0.18
416.925	0.18
417.382	0.18
417.839	0.18
418.296	0.18
418.753	0.18
419.21	0.18
419.667	0.18
420.124	0.18
420.581	0.18
421.038	0.18
421.495	0.18
421.952	0.18
422.409	0.18
422.866	0.18
423.322	0.18
423.779	0.18
424.236	0.18
424.693	0.18
425.149	0.18
425.606	0.18
426.063	0.18
426.519	0.18
426.976	0.18
427.433	0.18
427.889	0.18
428.346	0.18
428.802	0.18
429.258	0.18
429.715	0.18
430.171	0.18
430.628	0.18
431.084	0.18
431.54	0.18
431.997	0.18
432.453	0.18
432.909	0.18
433.365	0.18
433.821	0.18
434.277	0.18
434.734	0.18
435.19	0.18
435.646	0.18
436.102	0.18
436.558	0.18
437.014	0.18
437.47	0.18
437.925	0.18
438.381	0.18
438.837	0.18
439.293	0.18
439.749	0.18
440.205	0.18
440.66	0.18
441.116	0.18
441.572	0.18
442.027	0.18
442.483	0.18
442.939	0.18
443.394	0.18
443.85	0.18
444.305	0.18
444.761	0.18
445.216	0.18
445.672	0.18
446.127	0.18
446.582	0.18
447.038	0.18
447.493	0.18
447.948	0.18
448.403	0.18
448.859	0.18
449.314	0.18
449.769	0.18
450.224	0.18
450.679	0.18
451.134	0.18
451.589	0.17
452.044	0.17
452.499	0.17
452.954	0.17
453.409	0.17
453.864	0.17
454.319	0.17
454.774	0.17
455.229	0.17
455.684	0.17
456.138	0.17
456.593	0.17
457.048	0.17
457.503	0.17
457.957	0.17
458.412	0.17
458.866	0.17
459.321	0.17
459.776	0.17
460.23	0.17
460.685	0.17
461.139	0.17
461.593	0.17
462.048	0.17
462.502	0.17
462.957	0.17
463.411	0.17
463.865	0.17
464.319	0.17
464.774	0.17
465.228	0.17
465.682	0.17
466.136	0.17
466.59	0.17
467.044	0.17
467.499	0.17
467.953	0.17
468.407	0.17
468.861	0.17
469.315	0.17
469.768	0.17
470.222	0.17
470.676	0.16
471.13	0.16
471.584	0.16
472.038	0.16
472.491	0.16
472.945	0.16
473.399	0.17
473.852	0.17
474.306	0.17
474.76	0.17
475.213	0.17
475.667	0.17
476.12	0.17
476.574	0.17
477.027	0.17
477.481	0.17
477.934	0.17
478.388	0.17
478.841	0.17
479.294	0.17
479.748	0.17
480.201	0.17
480.654	0.17
481.107	0.17
481.561	0.17
482.014	0.17
482.467	0.17
482.92	0.17
483.373	0.17
483.826	0.17
484.279	0.17
484.732	0.17
485.185	0.17
485.638	0.18
486.091	0.18
486.544	0.18
486.997	0.18
487.449	0.18
487.902	0.18
488.355	0.17
488.808	0.17
489.26	0.17
489.713	0.17
490.166	0.17
490.618	0.17
491.071	0.17
491.523	0.17
491.976	0.17
492.429	0.17
492.881	0.17
493.333	0.17
493.786	0.17
494.238	0.17
494.691	0.17
495.143	0.18
495.595	0.18
496.048	0.18
496.5	0.18
496.952	0.18
497.404	0.18
497.856	0.18
498.309	0.18
498.761	0.18
499.213	0.18
499.665	0.18
500.117	0.18
500.569	0.18
501.021	0.18
501.473	0.18
501.925	0.18
502.377	0.18
502.828	0.18
503.28	0.18
503.732	0.18
504.184	0.18
504.636	0.18
505.087	0.19
505.539	0.19
505.991	0.19
506.442	0.19
506.894	0.19
507.345	0.19
507.797	0.19
508.249	0.19
508.7	0.19
509.151	0.19
509.603	0.19
510.054	0.19
510.506	0.19
510.957	0.19
511.408	0.19
511.86	0.19
512.311	0.19
512.762	0.19
513.213	0.19
513.665	0.19
514.116	0.19
514.567	0.19
515.018	0.19
515.469	0.19
515.92	0.19
516.371	0.19
516.822	0.19
517.273	0.19
517.724	0.19
518.175	0.19
518.626	0.19
519.076	0.19
519.527	0.19
519.978	0.19
520.429	0.19
520.88	0.19
521.33	0.19
521.781	0.19
522.232	0.19
522.682	0.19
523.133	0.19
523.583	0.19
524.034	0.19
524.484	0.19
524.935	0.2
525.385	0.2
525.836	0.2
526.286	0.2
526.736	0.2
527.187	0.21
527.637	0.21
528.087	0.21
528.538	0.21
528.988	0.21
529.438	0.21
529.888	0.21
530.338	0.21
530.788	0.21
531.238	0.21
531.688	0.21
532.139	0.22
532.589	0.22
533.038	0.22
533.488	0.22
533.938	0.22
534.388	0.22
534.838	0.22
535.288	0.22
535.738	0.22
536.187	0.22
536.637	0.22
537.087	0.22
537.537	0.22
537.986	0.22
538.436	0.22
538.885	0.23
539.335	0.23
539.785	0.23
540.234	0.23
540.684	0.23
541.133	0.23
541.582	0.23
542.032	0.23
542.481	0.23
542.931	0.23
543.38	0.23
543.829	0.23
544.278	0.23
544.728	0.23
545.177	0.23
545.626	0.24
546.075	0.24
546.524	0.24
546.973	0.24
547.422	0.24
547.871	0.24
548.32	0.24
548.769	0.24
549.218	0.24
549.667	0.24
550.116	0.24
550.565	0.24
551.014	0.24
551.463	0.24
551.911	0.24
552.36	0.24
552.809	0.24
553.258	0.24
553.706	0.24
554.155	0.24
554.603	0.24
555.052	0.24
555.501	0.24
555.949	0.24
556.398	0.24
556.846	0.24
557.294	0.24
557.743	0.24
558.191	0.24
558.64	0.24
559.088	0.24
559.536	0.25
559.985	0.25
560.433	0.25
560.881	0.25
561.329	0.25
561.777	0.25
562.225	0.25
562.674	0.25
563.122	0.25
563.57	0.25
564.018	0.25
564.466	0.25
564.914	0.25
565.362	0.25
565.809	0.25
566.257	0.25
566.705	0.25
567.153	0.25
567.601	0.26
568.048	0.26
568.496	0.26
568.944	0.26
569.392	0.26
569.839	0.27
570.287	0.27
570.734	0.27
571.182	0.27
571.63	0.27
572.077	0.27
572.525	0.27
572.972	0.27
573.419	0.27
573.867	0.27
574.314	0.27
574.761	0.27
575.209	0.28
575.656	0.28
576.103	0.28
576.551	0.28
576.998	0.28
577.445	0.28
577.892	0.28
578.339	0.28
578.786	0.28
579.233	0.28
579.68	0.28
580.127	0.28
580.574	0.28
581.021	0.28
581.468	0.28
581.915	0.28
582.362	0.28
582.809	0.28
583.255	0.28
583.702	0.28
584.149	0.28
584.596	0.28
585.042	0.28
585.489	0.28
585.936	0.28
586.382	0.28
586.829	0.28
587.275	0.28
587.722	0.27
588.168	0.27
588.615	0.27
589.061	0.27
589.508	0.27
589.954	0.27
590.4	0.27
590.847	0.27
591.293	0.27
591.739	0.27
592.185	0.27
592.632	0.27
593.078	0.27
593.524	0.27
593.97	0.27
594.416	0.27
594.862	0.27
595.308	0.26
595.754	0.26
596.2	0.26
596.646	0.27
597.092	0.27
597.538	0.27
597.984	0.27
598.43	0.27
598.876	0.27
599.321	0.27
599.767	0.27
600.213	0.27
600.659	0.26
601.104	0.26
601.55	0.26
601.995	0.26
602.441	0.26
602.887	0.26
603.332	0.26
603.778	0.26
604.223	0.26
604.668	0.26
605.114	0.26
605.559	0.26
606.005	0.26
606.45	0.26
606.895	0.26
607.341	0.26
607.786	0.26
608.231	0.26
608.676	0.26
609.121	0.26
609.566	0.25
610.012	0.25
610.457	0.25
610.902	0.25
611.347	0.25
611.792	0.25
612.237	0.25
612.682	0.25
613.127	0.25
613.571	0.25
614.016	0.25
614.461	0.25
614.906	0.25
615.351	0.24
615.795	0.24
616.24	0.24
616.685	0.24
617.129	0.24
617.574	0.24
618.019	0.24
618.463	0.23
618.908	0.23
619.352	0.23
619.797	0.23
620.241	0.23
620.686	0.23
621.13	0.23
621.574	0.23
622.019	0.23
622.463	0.23
622.907	0.23
623.352	0.23
623.796	0.23
624.24	0.23
624.684	0.23
625.128	0.23
625.572	0.23
626.016	0.23
626.461	0.23
626.905	0.23
627.349	0.23
627.793	0.22
628.236	0.22
628.68	0.22
629.124	0.22
629.568	0.22
630.012	0.22
630.456	0.22
630.9	0.22
631.343	0.22
631.787	0.22
632.231	0.22
632.674	0.21
633.118	0.21
633.562	0.21
634.005	0.21
634.449	0.21
634.892	0.21
635.336	0.21
635.779	0.21
636.223	0.21
636.666	0.21
637.109	0.21
637.553	0.21
637.996	0.21
638.439	0.21
638.883	0.21
639.326	0.21
639.769	0.21
640.212	0.21
640.655	0.21
641.099	0.21
641.542	0.21
641.985	0.21
642.428	0.21
642.871	0.21
643.314	0.21
643.757	0.21
644.2	0.21
644.643	0.21
645.085	0.21
645.528	0.21
645.971	0.21
646.414	0.21
646.857	0.21
647.299	0.21
647.742	0.21
648.185	0.21
648.627	0.21
649.07	0.21
649.513	0.21
649.955	0.21
650.398	0.21
650.84	0.21
651.283	0.21
651.725	0.21
652.168	0.21
652.61	0.21
653.052	0.22
653.495	0.2
653.937	0.16
654.379	0.13
654.821	0.14
655.264	0.14
655.706	0.14
656.148	0.14
656.59	0.14
657.032	0.14
657.474	0.14
657.916	0.14
658.358	0.14
658.8	0.17
659.242	0.22
659.684	0.22
660.126	0.22
660.568	0.22
661.01	0.22
661.452	0.22
661.894	0.22
662.335	0.22
662.777	0.22
663.219	0.23
663.661	0.23
664.102	0.23
664.544	0.23
664.985	0.23
665.427	0.23
665.869	0.23
666.31	0.23
666.752	0.23
667.193	0.23
667.634	0.23
668.076	0.23
668.517	0.23
668.959	0.23
669.4	0.23
669.841	0.24
670.282	0.24
670.724	0.24
671.165	0.24
671.606	0.24
672.047	0.24
672.488	0.24
672.929	0.24
673.37	0.24
673.811	0.25
674.252	0.25
674.693	0.24
675.134	0.25
675.575	0.25
676.016	0.25
676.457	0.25
676.898	0.25
677.339	0.25
677.78	0.25
678.22	0.25
678.661	0.25
679.102	0.25
679.542	0.25
679.983	0.25
680.424	0.25
680.864	0.25
681.305	0.25
681.745	0.25
682.186	0.25
682.626	0.25
683.067	0.25
683.507	0.25
683.948	0.25
684.388	0.25
684.828	0.25
685.269	0.26
685.709	0.26
686.149	0.26
686.589	0.26
687.029	0.26
687.47	0.26
687.91	0.26
688.35	0.26
688.79	0.26
689.23	0.26
689.67	0.26
690.11	0.26
690.55	0.26
690.99	0.26
691.43	0.27
691.87	0.27
692.31	0.27
692.749	0.27
693.189	0.27
693.629	0.27
694.069	0.27
694.508	0.27
694.948	0.27
695.388	0.27
695.827	0.27
696.267	0.28
696.706	0.28
697.146	0.28
697.586	0.28
698.025	0.28
698.464	0.28
698.904	0.28
699.343	0.28
699.783	0.28
700.222	0.28
700.661	0.28
701.101	0.28
701.54	0.28
701.979	0.28
702.418	0.28
702.857	0.28
703.297	0.28
703.736	0.28
704.175	0.28
704.614	0.28
705.053	0.28
705.492	0.28
705.931	0.29
706.37	0.29
706.809	0.29
707.248	0.29
707.687	0.29
708.125	0.29
708.564	0.29
709.003	0.29
709.442	0.29
709.88	0.29
710.319	0.29
710.758	0.29
711.196	0.29
711.635	0.29
712.074	0.29
712.512	0.29
712.951	0.29
713.389	0.29
713.828	0.29
714.266	0.29
714.705	0.29
715.143	0.28
715.581	0.28
716.02	0.28
716.458	0.28
716.896	0.28
717.334	0.28
717.773	0.28
718.211	0.28
718.649	0.28
719.087	0.28
719.525	0.29
719.963	0.29
720.401	0.29
720.839	0.29
721.277	0.29
721.715	0.29
722.153	0.28
722.591	0.28
723.029	0.28
723.467	0.28
723.905	0.28
724.342	0.28
724.78	0.28
725.218	0.28
725.656	0.28
726.093	0.28
726.531	0.28
726.969	0.28
727.406	0.28
727.844	0.28
728.281	0.29
728.719	0.29
729.156	0.29
729.594	0.29
730.031	0.29
730.469	0.29
730.906	0.29
731.343	0.29
731.781	0.29
732.218	0.29
732.655	0.29
733.092	0.29
733.53	0.29
733.967	0.29
734.404	0.29
734.841	0.29
735.278	0.29
735.715	0.29
736.152	0.29
736.589	0.29
737.026	0.29
737.463	0.29
737.9	0.29
738.337	0.29
738.774	0.29
739.211	0.29
739.647	0.28
740.084	0.28
740.521	0.28
740.958	0.28
741.394	0.28
741.831	0.28
742.268	0.28
742.704	0.28
743.141	0.28
743.577	0.28
744.014	0.28
744.45	0.27
744.887	0.27
745.323	0.27
745.76	0.27
746.196	0.27
746.632	0.27
747.069	0.27
747.505	0.27
747.941	0.27
748.378	0.27
748.814	0.27
749.25	0.27
749.686	0.27
750.122	0.27
750.558	0.27
750.994	0.27
751.43	0.27
751.866	0.27
752.302	0.27
752.738	0.27
753.174	0.27
753.61	0.27
754.046	0.27
754.482	0.27
754.918	0.27
755.354	0.27
755.789	0.27
756.225	0.27
756.661	0.27
757.096	0.27
757.532	0.27
757.968	0.27
758.403	0.27
758.839	0.27
759.274	0.27
759.71	0.27
760.145	0.27
760.581	0.27
761.016	0.26
761.452	0.26
761.887	0.26
762.322	0.26
762.758	0.26
763.193	0.26
763.628	0.25
764.063	0.25
764.499	0.25
764.934	0.25
765.369	0.25
765.804	0.24
766.239	0.24
766.674	0.24
767.109	0.24
767.544	0.24
767.979	0.23
768.414	0.23
768.849	0.23
769.284	0.23
769.719	0.22
770.154	0.22
770.588	0.22
771.023	0.21
771.458	0.21
771.893	0.21
772.327	0.2
772.762	0.2
773.197	0.2
773.631	0.19
774.066	0.19
774.5	0.19
774.935	0.18
775.369	0.18
775.804	0.18
776.238	0.17
776.673	0.17
777.107	0.16
777.541	0.16
777.976	0.15
778.41	0.15
778.844	0.14
779.279	0.14
779.713	0.13
780.147	0.13
780.581	0.12
781.015	0.11
781.449	0.11
781.883	0.1
782.317	0.09
782.751	0.07
783.185	0.06
783.619	0.05
784.053	0.04
784.487	0.03
784.921	0.01
785.355	-0
785.789	-0.01
786.223	-0.02
786.656	-0.02
787.09	-0.03
787.524	-0.04
787.957	-0.04
788.391	-0.05
788.825	-0.05
789.258	-0.06
789.692	-0.06
790.125	-0.06
790.559	-0.06
790.992	-0.06
791.426	-0.06
791.859	-0.06
792.293	-0.05
792.726	-0.04
793.159	-0.04
793.593	-0.04
794.026	-0.04
794.459	-0.04
794.892	-0.05
795.326	-0.05
795.759	-0.05
796.192	-0.05
796.625	-0.06
797.058	-0.07
797.491	-0.07
797.924	-0.08
798.357	-0.08
798.79	-0.08
799.223	-0.08
799.656	-0.08
800.089	-0.08
800.522	-0.09
800.955	-0.09
801.387	-0.09
801.82	-0.09
802.253	-0.09
802.686	-0.09
803.118	-0.09
803.551	-0.09
803.984	-0.08
804.416	-0.08
804.849	-0.07
805.281	-0.07
805.714	-0.07
806.146	-0.07
806.579	-0.07
807.011	-0.07
807.444	-0.07
807.876	-0.07
808.308	-0.07
808.741	-0.07
809.173	-0.08
809.605	-0.08
810.037	-0.08
810.47	-0.08
810.902	-0.09
811.334	-0.09
811.766	-0.08
812.198	-0.08
812.63	-0.08
813.062	-0.08
813.494	-0.08
813.926	-0.08
814.358	-0.08
814.79	-0.08
815.222	-0.07
815.654	-0.07
816.086	-0.07
816.518	-0.08
816.949	-0.08
817.381	-0.08
817.813	-0.07
818.245	-0.07
818.676	-0.06
819.108	-0.05
819.54	-0.04
819.971	-0.03
820.403	-0.02
820.834	-0
821.266	0.01
821.697	0.03
822.129	0.04
822.56	0.05
822.991	0.07
823.423	0.08
823.854	0.08
824.286	0.1
824.717	0.11
825.148	0.12
825.579	0.13
826.01	0.13
826.442	0.14
826.873	0.15
827.304	0.16
827.735	0.16
828.166	0.17
828.597	0.17
829.028	0.18
829.459	0.18
829.89	0.18
830.321	0.19
830.752	0.19
831.183	0.2
831.613	0.2
832.044	0.2
832.475	0.21
832.906	0.21
833.336	0.21
833.767	0.21
834.198	0.22
834.628	0.22
835.059	0.22
835.49	0.22
835.92	0.22
836.351	0.22
836.781	0.23
837.212	0.23
837.642	0.23
838.072	0.23
838.503	0.23
838.933	0.23
839.364	0.23
839.794	0.23
840.224	0.23
840.654	0.23
841.085	0.23
841.515	0.23
841.945	0.23
842.375	0.23
842.805	0.23
843.235	0.23
843.665	0.23
844.095	0.23
844.525	0.23
844.955	0.23
845.385	0.24
845.815	0.24
846.245	0.24
846.675	0.24
847.105	0.24
847.534	0.24
847.964	0.24
848.394	0.24
848.824	0.24
849.253	0.24
849.683	0.24
850.112	0.24
850.542	0.24
850.972	0.24
851.401	0.24
851.831	0.24
852.26	0.24
852.69	0.24
853.119	0.24
853.548	0.24
853.978	0.24
854.407	0.24
854.836	0.24
855.266	0.24
855.695	0.24
856.124	0.24
856.553	0.24
856.983	0.24
857.412	0.24
857.841	0.24
858.27	0.24
858.699	0.24
859.128	0.24
859.557	0.23
859.986	0.23
860.415	0.23
860.844	0.23
861.273	0.23
861.702	0.23
862.13	0.23
862.559	0.23
862.988	0.23
863.417	0.23
863.845	0.23
864.274	0.23
864.703	0.23
865.131	0.23
865.56	0.23
865.989	0.23
866.417	0.23
866.846	0.23
867.274	0.23
867.703	0.23
868.131	0.23
868.559	0.23
868.988	0.23
869.416	0.23
869.844	0.23
870.273	0.23
870.701	0.23
871.129	0.23
871.557	0.23
871.986	0.23
872.414	0.23
872.842	0.23
873.27	0.23
873.698	0.23
874.126	0.23
874.554	0.23
874.982	0.23
875.41	0.23
875.838	0.23
876.266	0.23
876.694	0.23
877.122	0.23
877.549	0.23
877.977	0.23
878.405	0.23
878.833	0.23
879.26	0.23
879.688	0.23
880.116	0.23
880.543	0.23
880.971	0.23
881.399	0.23
881.826	0.23
882.254	0.23
882.681	0.23
883.109	0.23
883.536	0.23
883.963	0.23
884.391	0.23
884.818	0.23
885.245	0.23
885.673	0.23
886.1	0.23
886.527	0.23
886.954	0.23
887.381	0.23
887.809	0.23
888.236	0.23
888.663	0.23
889.09	0.23
889.517	0.23
889.944	0.23
890.371	0.23
890.798	0.23
891.225	0.23
891.652	0.23
892.078	0.23
892.505	0.23
892.932	0.23
893.359	0.23
893.786	0.23
894.212	0.23
894.639	0.23
895.066	0.23
895.492	0.23
895.919	0.23
896.346	0.23
896.772	0.23
897.199	0.22
897.625	0.22
898.052	0.22
898.478	0.22
898.904	0.22
899.331	0.22
899.757	0.22
900.183	0.22
900.61	0.22
901.036	0.22
901.462	0.22
901.888	0.22
902.315	0.22
902.741	0.22
903.167	0.22
903.593	0.22
904.019	0.22
904.445	0.22
904.871	0.22
905.297	0.22
905.723	0.22
906.149	0.22
906.575	0.22
907.001	0.22
907.427	0.22
907.852	0.22
908.278	0.21
908.704	0.21
909.13	0.21
909.555	0.21
909.981	0.21
910.407	0.21
910.832	0.21
911.258	0.21
911.684	0.21
912.109	0.22
912.535	0.22
912.96	0.22
913.386	0.22
913.811	0.22
914.236	0.22
914.662	0.22
915.087	0.22
915.512	0.22
915.938	0.22
916.363	0.22
916.788	0.22
917.213	0.22
917.639	0.22
918.064	0.22
918.489	0.22
918.914	0.22
919.339	0.22
919.764	0.22
920.189	0.22
920.614	0.22
921.039	0.22
921.464	0.21
921.889	0.21
922.314	0.21
922.738	0.21
923.163	0.21
923.588	0.21
924.013	0.21
924.437	0.21
924.862	0.21
925.287	0.21
925.711	0.21
926.136	0.21
926.561	0.21
926.985	0.21
927.41	0.21
927.834	0.21
928.259	0.21
928.683	0.21
929.108	0.21
929.532	0.21
929.956	0.2
930.381	0.2
930.805	0.2
931.229	0.2
931.653	0.2
932.078	0.2
932.502	0.2
932.926	0.2
933.35	0.2
933.774	0.19
934.198	0.19
934.622	0.19
935.046	0.19
935.47	0.19
935.894	0.19
936.318	0.19
936.742	0.19
937.166	0.19
937.59	0.19
938.014	0.19
938.437	0.2
938.861	0.2
939.285	0.2
939.709	0.2
940.132	0.2
940.556	0.2
940.98	0.2
941.403	0.2
941.827	0.2
942.25	0.2
942.674	0.2
943.097	0.2
943.521	0.2
943.944	0.2
944.368	0.2
944.791	0.2
945.214	0.2
945.638	0.19
946.061	0.19
946.484	0.19
946.907	0.19
947.331	0.19
947.754	0.19
948.177	0.19
948.6	0.19
949.023	0.19
949.446	0.19
949.869	0.19
950.292	0.19
950.715	0.19
951.138	0.19
951.561	0.18
951.984	0.18
952.407	0.18
952.83	0.18
953.252	0.18
953.675	0.18
954.098	0.18
954.521	0.18
954.943	0.18
955.366	0.18
955.789	0.18
956.211	0.18
956.634	0.18
957.056	0.18
957.479	0.18
957.902	0.18
958.324	0.18
958.746	0.18
959.169	0.18
959.591	0.18
960.014	0.18
960.436	0.18
960.858	0.18
961.281	0.18
961.703	0.18
962.125	0.18
962.547	0.18
962.969	0.18
963.391	0.18
963.814	0.18
964.236	0.18
964.658	0.18
965.08	0.18
965.502	0.18
965.924	0.18
966.346	0.18
966.768	0.18
967.189	0.18
967.611	0.18
968.033	0.18
968.455	0.18
968.877	0.18
969.298	0.18
969.72	0.18
970.142	0.18
970.563	0.18
970.985	0.18
971.407	0.18
971.828	0.18
972.25	0.18
972.671	0.18
973.093	0.18
973.514	0.18
973.936	0.18
974.357	0.18
974.778	0.18
975.2	0.18
975.621	0.18
976.042	0.18
976.464	0.18
976.885	0.18
977.306	0.18
977.727	0.18
978.148	0.18
978.57	0.18
978.991	0.18
979.412	0.18
979.833	0.18
980.254	0.17
980.675	0.17
981.096	0.17
981.517	0.17
981.937	0.17
982.358	0.17
982.779	0.17
983.2	0.17
983.621	0.17
984.042	0.17
984.462	0.17
984.883	0.17
985.304	0.17
985.724	0.17
986.145	0.17
986.565	0.17
986.986	0.17
987.407	0.17
987.827	0.17
988.248	0.17
988.668	0.17
989.088	0.17
989.509	0.17
989.929	0.17
990.35	0.17
990.77	0.17
991.19	0.17
991.61	0.17
992.031	0.17
992.451	0.17
992.871	0.17
993.291	0.16
993.711	0.16
994.131	0.16
994.551	0.16
994.971	0.16
995.391	0.16
995.811	0.16
996.231	0.16
996.651	0.16
997.071	0.16
997.491	0.16
997.911	0.16
998.331	0.16
998.75	0.16
999.17	0.16
999.59	0.16
1000.009	0.16
1000.429	0.16
1000.849	0.16
1001.268	0.16
1001.688	0.16
1002.107	0.16
1002.527	0.16
1002.946	0.16
1003.366	0.16
1003.785	0.16
1004.205	0.16
1004.624	0.16
1005.044	0.16
1005.463	0.16
1005.882	0.16
1006.301	0.16
1006.721	0.16
1007.14	0.16
1007.559	0.16
1007.978	0.16
1008.397	0.16
1008.816	0.16
1009.235	0.16
1009.655	0.16
1010.074	0.16
1010.492	0.16
1010.911	0.16
1011.33	0.16
1011.749	0.16
1012.168	0.16
1012.587	0.15
1013.006	0.15
1013.425	0.15
1013.843	0.15
1014.262	0.15
1014.681	0.15
1015.099	0.15
1015.518	0.15
1015.937	0.15
1016.355	0.15
1016.774	0.15
1017.192	0.15
1017.611	0.15
1018.029	0.15
1018.448	0.15
1018.866	0.15
1019.285	0.15
1019.703	0.15
1020.121	0.15
1020.54	0.15
1020.958	0.15
1021.376	0.15
1021.794	0.15
1022.213	0.16
1022.631	0.16
1023.049	0.16
1023.467	0.16
1023.885	0.16
1024.303	0.16
1024.721	0.16
1025.139	0.16
1025.557	0.16
1025.975	0.16
1026.393	0.16
1026.811	0.16
1027.229	0.16
1027.647	0.16
1028.065	0.16
1028.482	0.16
1028.9	0.17
1029.318	0.17
1029.735	0.17
1030.153	0.17
1030.571	0.17
1030.988	0.17
1031.406	0.17
1031.823	0.17
1032.241	0.17
1032.659	0.17
1033.076	0.17
1033.493	0.17
1033.911	0.17
1034.328	0.17
1034.746	0.17
1035.163	0.16
1035.58	0.16
1035.997	0.16
1036.415	0.16
1036.832	0.16
1037.249	0.16
1037.666	0.16
1038.083	0.16
1038.501	0.16
1038.918	0.16
1039.335	0.16
1039.752	0.15
1040.169	0.15
1040.586	0.15
1041.003	0.15
1041.419	0.15
1041.836	0.15
1042.253	0.15
1042.67	0.15
1043.087	0.15
1043.504	0.15
1043.92	0.15
1044.337	0.15
1044.754	0.15
1045.17	0.15
1045.587	0.15
1046.004	0.15
1046.42	0.15
1046.837	0.15
1047.253	0.15
1047.67	0.15
1048.086	0.15
1048.503	0.15
1048.919	0.15
1049.335	0.15
1049.752	0.15
1050.168	0.15
1050.584	0.15
1051.001	0.15
1051.417	0.15
1051.833	0.14
1052.249	0.15
1052.665	0.15
1053.081	0.15
1053.497	0.15
1053.914	0.15
1054.33	0.15
1054.746	0.15
1055.162	0.15
1055.578	0.15
1055.993	0.15
1056.409	0.15
1056.825	0.15
1057.241	0.15
1057.657	0.15
1058.073	0.15
1058.488	0.15
1058.904	0.15
1059.32	0.15
1059.736	0.15
1060.151	0.15
1060.567	0.15
1060.982	0.15
1061.398	0.15
1061.813	0.15
1062.229	0.15
1062.644	0.15
1063.06	0.15
1063.475	0.15
1063.891	0.15
1064.306	0.15
1064.721	0.15
1065.137	0.15
1065.552	0.15
1065.967	0.15
1066.382	0.15
1066.798	0.15
1067.213	0.15
1067.628	0.15
1068.043	0.15
1068.458	0.15
1068.873	0.15
1069.288	0.15
1069.703	0.15
1070.118	0.15
1070.533	0.15
1070.948	0.15
1071.363	0.15
1071.778	0.15
1072.193	0.15
1072.607	0.15
1073.022	0.15
1073.437	0.15
1073.852	0.15
1074.266	0.15
1074.681	0.15
1075.096	0.15
1075.51	0.15
1075.925	0.15
1076.339	0.15
1076.754	0.15
1077.168	0.15
1077.583	0.15
1077.997	0.15
1078.412	0.15
1078.826	0.15
1079.24	0.15
1079.655	0.15
1080.069	0.15
1080.483	0.15
1080.897	0.15
1081.312	0.15
1081.726	0.15
1082.14	0.16
1082.554	0.16
1082.968	0.16
1083.382	0.16
1083.796	0.16
1084.21	0.16
1084.624	0.16
1085.038	0.17
1085.452	0.17
1085.866	0.17
1086.28	0.17
1086.694	0.17
1087.108	0.17
1087.521	0.17
1087.935	0.17
1088.349	0.17
1088.763	0.18
1089.176	0.18
1089.59	0.18
1090.004	0.18
1090.417	0.18
1090.831	0.18
1091.244	0.19
1091.658	0.19
1092.071	0.19
1092.485	0.2
1092.898	0.2
1093.312	0.21
1093.725	0.21
1094.138	0.21
1094.552	0.22
1094.965	0.22
1095.378	0.23
1095.791	0.23
1096.205	0.24
1096.618	0.24
1097.031	0.25
1097.444	0.26
1097.857	0.26
1098.27	0.27
1098.683	0.28
1099.096	0.28
1099.509	0.29
1099.922	0.3
1100.335	0.31
1100.748	0.32
1101.161	0.33
1101.574	0.35
1101.986	0.36
1102.399	0.38
1102.812	0.4
1103.225	0.42
1103.637	0.45
1104.05	0.47
1104.463	0.5
1104.875	0.53
1105.288	0.57
1105.7	0.61
1106.113	0.66
1106.525	0.71
1106.938	0.81
1107.35	0.95
1107.763	-0
1108.175	-0
1108.588	-0
1109	-0
1109.412	-0
1109.824	-0
1110.237	-0
1110.649	-0
1111.061	-0
