Data from unagg-15c-2a-1h_Absorbance__69__00496.txt Node

Date: Mon May 06 09:35:02 CEST 2024
User: Laser008
Spectrometer: MAYP115816
Trigger mode: 0
Integration Time (sec): 2.000000E-1
Scans to average: 10
Electric dark correction enabled: true
Nonlinearity correction enabled: true
Boxcar width: 5
XAxis mode: Wavelengths
Number of Pixels in Spectrum: 2068
>>>>>Begin Spectral Data<<<<<
198.914	-1.95
199.384	-1.81
199.855	-1.66
200.325	-1.54
200.796	-1.46
201.266	-1.41
201.737	-1.33
202.207	-1.27
202.677	-1.22
203.147	-1.17
203.618	-1.14
204.088	-1.12
204.558	-1.1
205.028	-1.09
205.498	-1.08
205.968	-1.08
206.439	-1.08
206.909	-1.07
207.379	-1.07
207.849	-1.07
208.319	-1.07
208.789	-1.06
209.258	-1.06
209.728	-1.06
210.198	-1.06
210.668	-1.06
211.138	-1.06
211.608	-1.05
212.077	-1.05
212.547	-1.05
213.017	-1.05
213.486	-1.05
213.956	-1.05
214.426	-1.05
214.895	-1.05
215.365	-1.05
215.834	-1.05
216.304	-1.04
216.773	-1.04
217.243	-1.04
217.712	-1.04
218.181	-1.03
218.651	-1.03
219.12	-1.03
219.589	-1.03
220.058	-1.03
220.528	-1.03
220.997	-1.02
221.466	-1.02
221.935	-1.01
222.404	-1.01
222.873	-1
223.342	-1
223.812	-0.99
224.281	-0.98
224.749	-0.97
225.218	-0.96
225.687	-0.95
226.156	-0.94
226.625	-0.93
227.094	-0.91
227.563	-0.89
228.031	-0.87
228.5	-0.85
228.969	-0.83
229.438	-0.8
229.906	-0.77
230.375	-0.73
230.844	-0.7
231.312	-0.65
231.781	-0.61
232.249	-0.57
232.718	-0.52
233.186	-0.47
233.655	-0.42
234.123	-0.37
234.591	-0.32
235.06	-0.27
235.528	-0.23
235.996	-0.18
236.465	-0.13
236.933	-0.09
237.401	-0.05
237.869	-0
238.337	0.04
238.805	0.07
239.274	0.11
239.742	0.14
240.21	0.17
240.678	0.2
241.146	0.23
241.614	0.26
242.081	0.28
242.549	0.31
243.017	0.33
243.485	0.35
243.953	0.37
244.421	0.38
244.888	0.4
245.356	0.42
245.824	0.43
246.291	0.45
246.759	0.46
247.227	0.47
247.694	0.48
248.162	0.49
248.629	0.5
249.097	0.51
249.564	0.52
250.032	0.53
250.499	0.54
250.967	0.55
251.434	0.56
251.901	0.56
252.369	0.57
252.836	0.58
253.303	0.58
253.77	0.59
254.237	0.59
254.705	0.6
255.172	0.6
255.639	0.61
256.106	0.61
256.573	0.62
257.04	0.62
257.507	0.62
257.974	0.63
258.441	0.63
258.908	0.63
259.375	0.63
259.841	0.64
260.308	0.64
260.775	0.64
261.242	0.64
261.709	0.64
262.175	0.64
262.642	0.65
263.109	0.65
263.575	0.65
264.042	0.65
264.508	0.65
264.975	0.65
265.441	0.65
265.908	0.65
266.374	0.65
266.841	0.65
267.307	0.65
267.773	0.65
268.24	0.65
268.706	0.65
269.172	0.65
269.639	0.65
270.105	0.65
270.571	0.64
271.037	0.64
271.503	0.64
271.969	0.64
272.435	0.64
272.902	0.64
273.368	0.64
273.834	0.63
274.3	0.63
274.765	0.63
275.231	0.63
275.697	0.63
276.163	0.63
276.629	0.62
277.095	0.62
277.56	0.62
278.026	0.62
278.492	0.61
278.958	0.61
279.423	0.61
279.889	0.61
280.354	0.61
280.82	0.6
281.286	0.6
281.751	0.6
282.217	0.6
282.682	0.6
283.147	0.6
283.613	0.6
284.078	0.6
284.544	0.59
285.009	0.59
285.474	0.59
285.939	0.59
286.405	0.59
286.87	0.59
287.335	0.58
287.8	0.58
288.265	0.58
288.73	0.58
289.195	0.58
289.66	0.58
290.125	0.57
290.59	0.57
291.055	0.57
291.52	0.57
291.985	0.57
292.45	0.57
292.915	0.57
293.38	0.57
293.844	0.57
294.309	0.56
294.774	0.56
295.239	0.56
295.703	0.56
296.168	0.56
296.632	0.56
297.097	0.56
297.562	0.56
298.026	0.56
298.491	0.56
298.955	0.56
299.419	0.55
299.884	0.55
300.348	0.55
300.813	0.55
301.277	0.55
301.741	0.55
302.205	0.55
302.67	0.55
303.134	0.55
303.598	0.55
304.062	0.55
304.526	0.55
304.99	0.55
305.454	0.55
305.919	0.55
306.383	0.55
306.847	0.55
307.31	0.55
307.774	0.54
308.238	0.54
308.702	0.54
309.166	0.54
309.63	0.54
310.094	0.54
310.557	0.54
311.021	0.54
311.485	0.54
311.948	0.54
312.412	0.54
312.876	0.54
313.339	0.54
313.803	0.54
314.266	0.54
314.73	0.54
315.193	0.53
315.657	0.53
316.12	0.53
316.584	0.53
317.047	0.53
317.51	0.53
317.973	0.53
318.437	0.53
318.9	0.53
319.363	0.53
319.826	0.53
320.29	0.53
320.753	0.52
321.216	0.52
321.679	0.52
322.142	0.52
322.605	0.52
323.068	0.52
323.531	0.52
323.994	0.52
324.457	0.52
324.92	0.52
325.382	0.52
325.845	0.52
326.308	0.52
326.771	0.51
327.233	0.51
327.696	0.51
328.159	0.51
328.622	0.51
329.084	0.51
329.547	0.51
330.009	0.51
330.472	0.51
330.934	0.51
331.397	0.51
331.859	0.51
332.322	0.5
332.784	0.5
333.246	0.5
333.709	0.5
334.171	0.5
334.633	0.5
335.096	0.5
335.558	0.5
336.02	0.5
336.482	0.5
336.944	0.5
337.406	0.49
337.868	0.49
338.331	0.49
338.793	0.49
339.255	0.49
339.717	0.49
340.178	0.49
340.64	0.49
341.102	0.49
341.564	0.49
342.026	0.49
342.488	0.49
342.949	0.49
343.411	0.49
343.873	0.48
344.335	0.48
344.796	0.48
345.258	0.48
345.719	0.48
346.181	0.48
346.643	0.48
347.104	0.48
347.566	0.48
348.027	0.48
348.488	0.48
348.95	0.48
349.411	0.47
349.873	0.47
350.334	0.47
350.795	0.47
351.256	0.47
351.718	0.47
352.179	0.47
352.64	0.47
353.101	0.47
353.562	0.47
354.023	0.46
354.484	0.46
354.945	0.46
355.406	0.46
355.867	0.46
356.328	0.46
356.789	0.46
357.25	0.46
357.711	0.46
358.172	0.46
358.633	0.46
359.093	0.46
359.554	0.46
360.015	0.46
360.476	0.46
360.936	0.46
361.397	0.46
361.858	0.46
362.318	0.46
362.779	0.46
363.239	0.46
363.7	0.46
364.16	0.46
364.621	0.46
365.081	0.46
365.541	0.46
366.002	0.46
366.462	0.46
366.922	0.46
367.383	0.46
367.843	0.46
368.303	0.46
368.763	0.46
369.223	0.46
369.684	0.46
370.144	0.46
370.604	0.46
371.064	0.46
371.524	0.46
371.984	0.46
372.444	0.46
372.904	0.46
373.363	0.46
373.823	0.46
374.283	0.46
374.743	0.46
375.203	0.46
375.663	0.46
376.122	0.46
376.582	0.46
377.042	0.46
377.501	0.46
377.961	0.46
378.42	0.46
378.88	0.46
379.34	0.46
379.799	0.46
380.259	0.46
380.718	0.46
381.177	0.46
381.637	0.46
382.096	0.46
382.555	0.46
383.015	0.46
383.474	0.46
383.933	0.46
384.393	0.46
384.852	0.46
385.311	0.46
385.77	0.46
386.229	0.46
386.688	0.46
387.147	0.46
387.606	0.46
388.065	0.46
388.524	0.46
388.983	0.46
389.442	0.46
389.901	0.46
390.36	0.46
390.819	0.46
391.277	0.46
391.736	0.46
392.195	0.46
392.654	0.46
393.112	0.46
393.571	0.46
394.03	0.46
394.488	0.46
394.947	0.46
395.405	0.46
395.864	0.46
396.322	0.46
396.781	0.46
397.239	0.46
397.698	0.46
398.156	0.46
398.614	0.46
399.073	0.46
399.531	0.46
399.989	0.46
400.447	0.46
400.905	0.45
401.364	0.45
401.822	0.45
402.28	0.45
402.738	0.45
403.196	0.45
403.654	0.45
404.112	0.45
404.57	0.45
405.028	0.45
405.486	0.45
405.944	0.45
406.402	0.45
406.859	0.45
407.317	0.45
407.775	0.45
408.233	0.45
408.691	0.45
409.148	0.45
409.606	0.44
410.064	0.44
410.521	0.44
410.979	0.44
411.436	0.44
411.894	0.44
412.351	0.44
412.809	0.44
413.266	0.44
413.724	0.44
414.181	0.44
414.638	0.44
415.096	0.44
415.553	0.44
416.01	0.44
416.467	0.44
416.925	0.44
417.382	0.44
417.839	0.44
418.296	0.44
418.753	0.44
419.21	0.44
419.667	0.44
420.124	0.44
420.581	0.44
421.038	0.44
421.495	0.44
421.952	0.44
422.409	0.44
422.866	0.44
423.322	0.44
423.779	0.44
424.236	0.44
424.693	0.44
425.149	0.44
425.606	0.44
426.063	0.44
426.519	0.44
426.976	0.44
427.433	0.44
427.889	0.44
428.346	0.44
428.802	0.44
429.258	0.44
429.715	0.44
430.171	0.44
430.628	0.44
431.084	0.44
431.54	0.44
431.997	0.44
432.453	0.44
432.909	0.43
433.365	0.43
433.821	0.43
434.277	0.43
434.734	0.43
435.19	0.43
435.646	0.43
436.102	0.43
436.558	0.43
437.014	0.43
437.47	0.43
437.925	0.43
438.381	0.43
438.837	0.43
439.293	0.43
439.749	0.43
440.205	0.43
440.66	0.43
441.116	0.43
441.572	0.43
442.027	0.43
442.483	0.43
442.939	0.43
443.394	0.43
443.85	0.43
444.305	0.43
444.761	0.43
445.216	0.43
445.672	0.43
446.127	0.43
446.582	0.43
447.038	0.43
447.493	0.43
447.948	0.43
448.403	0.43
448.859	0.42
449.314	0.42
449.769	0.42
450.224	0.42
450.679	0.42
451.134	0.42
451.589	0.42
452.044	0.42
452.499	0.42
452.954	0.42
453.409	0.42
453.864	0.42
454.319	0.42
454.774	0.41
455.229	0.41
455.684	0.41
456.138	0.41
456.593	0.41
457.048	0.41
457.503	0.41
457.957	0.41
458.412	0.41
458.866	0.41
459.321	0.41
459.776	0.41
460.23	0.41
460.685	0.41
461.139	0.41
461.593	0.41
462.048	0.41
462.502	0.41
462.957	0.41
463.411	0.41
463.865	0.41
464.319	0.41
464.774	0.41
465.228	0.41
465.682	0.41
466.136	0.41
466.59	0.41
467.044	0.41
467.499	0.41
467.953	0.4
468.407	0.4
468.861	0.4
469.315	0.4
469.768	0.4
470.222	0.4
470.676	0.4
471.13	0.39
471.584	0.39
472.038	0.39
472.491	0.39
472.945	0.39
473.399	0.4
473.852	0.4
474.306	0.4
474.76	0.4
475.213	0.4
475.667	0.4
476.12	0.4
476.574	0.4
477.027	0.4
477.481	0.4
477.934	0.4
478.388	0.4
478.841	0.4
479.294	0.4
479.748	0.4
480.201	0.4
480.654	0.4
481.107	0.4
481.561	0.4
482.014	0.41
482.467	0.41
482.92	0.41
483.373	0.41
483.826	0.41
484.279	0.42
484.732	0.42
485.185	0.42
485.638	0.42
486.091	0.42
486.544	0.42
486.997	0.42
487.449	0.42
487.902	0.42
488.355	0.42
488.808	0.42
489.26	0.42
489.713	0.42
490.166	0.41
490.618	0.41
491.071	0.41
491.523	0.41
491.976	0.41
492.429	0.41
492.881	0.41
493.333	0.42
493.786	0.42
494.238	0.42
494.691	0.42
495.143	0.42
495.595	0.43
496.048	0.43
496.5	0.43
496.952	0.43
497.404	0.43
497.856	0.43
498.309	0.43
498.761	0.43
499.213	0.43
499.665	0.43
500.117	0.44
500.569	0.44
501.021	0.44
501.473	0.44
501.925	0.44
502.377	0.44
502.828	0.45
503.28	0.45
503.732	0.45
504.184	0.45
504.636	0.45
505.087	0.45
505.539	0.45
505.991	0.45
506.442	0.45
506.894	0.45
507.345	0.46
507.797	0.46
508.249	0.46
508.7	0.46
509.151	0.46
509.603	0.46
510.054	0.46
510.506	0.46
510.957	0.46
511.408	0.46
511.86	0.46
512.311	0.46
512.762	0.46
513.213	0.46
513.665	0.46
514.116	0.46
514.567	0.46
515.018	0.46
515.469	0.46
515.92	0.46
516.371	0.46
516.822	0.46
517.273	0.46
517.724	0.46
518.175	0.46
518.626	0.46
519.076	0.46
519.527	0.46
519.978	0.46
520.429	0.46
520.88	0.45
521.33	0.45
521.781	0.45
522.232	0.44
522.682	0.44
523.133	0.45
523.583	0.45
524.034	0.45
524.484	0.46
524.935	0.46
525.385	0.47
525.836	0.47
526.286	0.48
526.736	0.49
527.187	0.49
527.637	0.5
528.087	0.5
528.538	0.5
528.988	0.5
529.438	0.51
529.888	0.51
530.338	0.51
530.788	0.51
531.238	0.51
531.688	0.52
532.139	0.52
532.589	0.52
533.038	0.52
533.488	0.52
533.938	0.53
534.388	0.53
534.838	0.53
535.288	0.53
535.738	0.53
536.187	0.53
536.637	0.54
537.087	0.54
537.537	0.54
537.986	0.54
538.436	0.54
538.885	0.54
539.335	0.54
539.785	0.55
540.234	0.55
540.684	0.55
541.133	0.55
541.582	0.55
542.032	0.55
542.481	0.55
542.931	0.55
543.38	0.55
543.829	0.55
544.278	0.55
544.728	0.56
545.177	0.56
545.626	0.56
546.075	0.57
546.524	0.57
546.973	0.57
547.422	0.57
547.871	0.57
548.32	0.57
548.769	0.57
549.218	0.57
549.667	0.57
550.116	0.57
550.565	0.57
551.014	0.57
551.463	0.57
551.911	0.57
552.36	0.57
552.809	0.58
553.258	0.58
553.706	0.58
554.155	0.58
554.603	0.58
555.052	0.58
555.501	0.58
555.949	0.58
556.398	0.58
556.846	0.57
557.294	0.57
557.743	0.57
558.191	0.57
558.64	0.57
559.088	0.58
559.536	0.58
559.985	0.58
560.433	0.58
560.881	0.59
561.329	0.59
561.777	0.59
562.225	0.6
562.674	0.6
563.122	0.6
563.57	0.59
564.018	0.59
564.466	0.59
564.914	0.59
565.362	0.59
565.809	0.59
566.257	0.59
566.705	0.6
567.153	0.6
567.601	0.6
568.048	0.61
568.496	0.61
568.944	0.62
569.392	0.63
569.839	0.63
570.287	0.64
570.734	0.64
571.182	0.65
571.63	0.65
572.077	0.65
572.525	0.66
572.972	0.66
573.419	0.66
573.867	0.66
574.314	0.66
574.761	0.66
575.209	0.66
575.656	0.67
576.103	0.67
576.551	0.67
576.998	0.67
577.445	0.67
577.892	0.67
578.339	0.67
578.786	0.67
579.233	0.67
579.68	0.68
580.127	0.68
580.574	0.67
581.021	0.67
581.468	0.67
581.915	0.67
582.362	0.66
582.809	0.66
583.255	0.66
583.702	0.66
584.149	0.66
584.596	0.65
585.042	0.65
585.489	0.65
585.936	0.65
586.382	0.65
586.829	0.65
587.275	0.64
587.722	0.64
588.168	0.63
588.615	0.63
589.061	0.62
589.508	0.62
589.954	0.62
590.4	0.61
590.847	0.61
591.293	0.61
591.739	0.61
592.185	0.61
592.632	0.61
593.078	0.61
593.524	0.61
593.97	0.61
594.416	0.6
594.862	0.6
595.308	0.6
595.754	0.6
596.2	0.59
596.646	0.59
597.092	0.59
597.538	0.59
597.984	0.59
598.43	0.59
598.876	0.59
599.321	0.59
599.767	0.59
600.213	0.59
600.659	0.59
601.104	0.58
601.55	0.58
601.995	0.58
602.441	0.57
602.887	0.57
603.332	0.57
603.778	0.56
604.223	0.56
604.668	0.56
605.114	0.56
605.559	0.56
606.005	0.56
606.45	0.56
606.895	0.56
607.341	0.56
607.786	0.55
608.231	0.55
608.676	0.55
609.121	0.54
609.566	0.54
610.012	0.53
610.457	0.53
610.902	0.53
611.347	0.53
611.792	0.52
612.237	0.52
612.682	0.52
613.127	0.52
613.571	0.52
614.016	0.52
614.461	0.52
614.906	0.52
615.351	0.51
615.795	0.51
616.24	0.51
616.685	0.5
617.129	0.5
617.574	0.5
618.019	0.49
618.463	0.49
618.908	0.48
619.352	0.48
619.797	0.48
620.241	0.48
620.686	0.48
621.13	0.48
621.574	0.48
622.019	0.48
622.463	0.47
622.907	0.47
623.352	0.47
623.796	0.47
624.24	0.47
624.684	0.47
625.128	0.47
625.572	0.46
626.016	0.46
626.461	0.46
626.905	0.46
627.349	0.46
627.793	0.46
628.236	0.46
628.68	0.46
629.124	0.45
629.568	0.45
630.012	0.45
630.456	0.45
630.9	0.45
631.343	0.45
631.787	0.44
632.231	0.44
632.674	0.44
633.118	0.44
633.562	0.44
634.005	0.44
634.449	0.44
634.892	0.44
635.336	0.44
635.779	0.44
636.223	0.44
636.666	0.44
637.109	0.44
637.553	0.44
637.996	0.44
638.439	0.44
638.883	0.44
639.326	0.44
639.769	0.44
640.212	0.44
640.655	0.44
641.099	0.44
641.542	0.44
641.985	0.44
642.428	0.44
642.871	0.44
643.314	0.44
643.757	0.44
644.2	0.45
644.643	0.45
645.085	0.45
645.528	0.45
645.971	0.45
646.414	0.45
646.857	0.45
647.299	0.46
647.742	0.46
648.185	0.46
648.627	0.46
649.07	0.47
649.513	0.47
649.955	0.47
650.398	0.47
650.84	0.48
651.283	0.48
651.725	0.48
652.168	0.48
652.61	0.48
653.052	0.49
653.495	0.48
653.937	0.42
654.379	0.39
654.821	0.4
655.264	0.4
655.706	0.4
656.148	0.4
656.59	0.4
657.032	0.41
657.474	0.41
657.916	0.4
658.358	0.4
658.8	0.46
659.242	0.52
659.684	0.52
660.126	0.52
660.568	0.52
661.01	0.52
661.452	0.53
661.894	0.53
662.335	0.53
662.777	0.53
663.219	0.54
663.661	0.54
664.102	0.54
664.544	0.54
664.985	0.55
665.427	0.55
665.869	0.55
666.31	0.56
666.752	0.56
667.193	0.56
667.634	0.56
668.076	0.57
668.517	0.57
668.959	0.57
669.4	0.58
669.841	0.58
670.282	0.59
670.724	0.59
671.165	0.59
671.606	0.6
672.047	0.6
672.488	0.6
672.929	0.6
673.37	0.6
673.811	0.6
674.252	0.61
674.693	0.61
675.134	0.61
675.575	0.61
676.016	0.61
676.457	0.61
676.898	0.61
677.339	0.62
677.78	0.62
678.22	0.62
678.661	0.62
679.102	0.62
679.542	0.63
679.983	0.63
680.424	0.63
680.864	0.63
681.305	0.63
681.745	0.63
682.186	0.63
682.626	0.64
683.067	0.64
683.507	0.64
683.948	0.65
684.388	0.65
684.828	0.65
685.269	0.65
685.709	0.65
686.149	0.65
686.589	0.66
687.029	0.66
687.47	0.66
687.91	0.66
688.35	0.66
688.79	0.66
689.23	0.66
689.67	0.66
690.11	0.66
690.55	0.66
690.99	0.67
691.43	0.67
691.87	0.67
692.31	0.67
692.749	0.67
693.189	0.67
693.629	0.67
694.069	0.67
694.508	0.67
694.948	0.68
695.388	0.68
695.827	0.68
696.267	0.68
696.706	0.68
697.146	0.68
697.586	0.68
698.025	0.68
698.464	0.68
698.904	0.68
699.343	0.68
699.783	0.68
700.222	0.68
700.661	0.68
701.101	0.68
701.54	0.68
701.979	0.68
702.418	0.68
702.857	0.68
703.297	0.68
703.736	0.68
704.175	0.68
704.614	0.68
705.053	0.68
705.492	0.68
705.931	0.68
706.37	0.69
706.809	0.69
707.248	0.69
707.687	0.69
708.125	0.69
708.564	0.69
709.003	0.68
709.442	0.68
709.88	0.68
710.319	0.68
710.758	0.68
711.196	0.68
711.635	0.68
712.074	0.67
712.512	0.67
712.951	0.67
713.389	0.67
713.828	0.67
714.266	0.67
714.705	0.67
715.143	0.67
715.581	0.66
716.02	0.66
716.458	0.66
716.896	0.66
717.334	0.66
717.773	0.66
718.211	0.66
718.649	0.66
719.087	0.65
719.525	0.65
719.963	0.65
720.401	0.65
720.839	0.65
721.277	0.65
721.715	0.65
722.153	0.64
722.591	0.64
723.029	0.64
723.467	0.64
723.905	0.64
724.342	0.64
724.78	0.64
725.218	0.63
725.656	0.63
726.093	0.63
726.531	0.63
726.969	0.63
727.406	0.63
727.844	0.63
728.281	0.63
728.719	0.63
729.156	0.63
729.594	0.63
730.031	0.62
730.469	0.62
730.906	0.62
731.343	0.62
731.781	0.62
732.218	0.62
732.655	0.62
733.092	0.62
733.53	0.62
733.967	0.61
734.404	0.61
734.841	0.61
735.278	0.61
735.715	0.61
736.152	0.61
736.589	0.6
737.026	0.6
737.463	0.6
737.9	0.6
738.337	0.59
738.774	0.59
739.211	0.59
739.647	0.58
740.084	0.58
740.521	0.58
740.958	0.58
741.394	0.57
741.831	0.57
742.268	0.56
742.704	0.56
743.141	0.55
743.577	0.55
744.014	0.55
744.45	0.54
744.887	0.54
745.323	0.53
745.76	0.53
746.196	0.53
746.632	0.53
747.069	0.53
747.505	0.53
747.941	0.53
748.378	0.53
748.814	0.52
749.25	0.52
749.686	0.52
750.122	0.52
750.558	0.52
750.994	0.52
751.43	0.52
751.866	0.52
752.302	0.52
752.738	0.52
753.174	0.52
753.61	0.52
754.046	0.52
754.482	0.52
754.918	0.52
755.354	0.52
755.789	0.52
756.225	0.52
756.661	0.52
757.096	0.51
757.532	0.51
757.968	0.51
758.403	0.51
758.839	0.51
759.274	0.5
759.71	0.5
760.145	0.49
760.581	0.49
761.016	0.48
761.452	0.48
761.887	0.48
762.322	0.47
762.758	0.47
763.193	0.46
763.628	0.46
764.063	0.45
764.499	0.45
764.934	0.44
765.369	0.44
765.804	0.44
766.239	0.43
766.674	0.43
767.109	0.42
767.544	0.41
767.979	0.41
768.414	0.4
768.849	0.4
769.284	0.39
769.719	0.39
770.154	0.39
770.588	0.38
771.023	0.37
771.458	0.37
771.893	0.36
772.327	0.35
772.762	0.35
773.197	0.34
773.631	0.33
774.066	0.32
774.5	0.31
774.935	0.31
775.369	0.3
775.804	0.29
776.238	0.28
776.673	0.27
777.107	0.26
777.541	0.25
777.976	0.24
778.41	0.23
778.844	0.23
779.279	0.22
779.713	0.21
780.147	0.2
780.581	0.19
781.015	0.18
781.449	0.16
781.883	0.15
782.317	0.13
782.751	0.11
783.185	0.1
783.619	0.08
784.053	0.06
784.487	0.04
784.921	0.02
785.355	0
785.789	-0.01
786.223	-0.02
786.656	-0.03
787.09	-0.03
787.524	-0.04
787.957	-0.05
788.391	-0.05
788.825	-0.06
789.258	-0.06
789.692	-0.06
790.125	-0.05
790.559	-0.05
790.992	-0.06
791.426	-0.06
791.859	-0.05
792.293	-0.05
792.726	-0.04
793.159	-0.04
793.593	-0.04
794.026	-0.04
794.459	-0.04
794.892	-0.04
795.326	-0.04
795.759	-0.05
796.192	-0.05
796.625	-0.06
797.058	-0.06
797.491	-0.07
797.924	-0.08
798.357	-0.08
798.79	-0.08
799.223	-0.08
799.656	-0.08
800.089	-0.08
800.522	-0.08
800.955	-0.09
801.387	-0.09
801.82	-0.09
802.253	-0.09
802.686	-0.09
803.118	-0.09
803.551	-0.09
803.984	-0.08
804.416	-0.08
804.849	-0.07
805.281	-0.07
805.714	-0.07
806.146	-0.07
806.579	-0.07
807.011	-0.07
807.444	-0.07
807.876	-0.06
808.308	-0.07
808.741	-0.07
809.173	-0.07
809.605	-0.08
810.037	-0.08
810.47	-0.08
810.902	-0.08
811.334	-0.08
811.766	-0.08
812.198	-0.08
812.63	-0.08
813.062	-0.08
813.494	-0.08
813.926	-0.08
814.358	-0.08
814.79	-0.07
815.222	-0.07
815.654	-0.07
816.086	-0.07
816.518	-0.08
816.949	-0.08
817.381	-0.08
817.813	-0.08
818.245	-0.07
818.676	-0.06
819.108	-0.05
819.54	-0.05
819.971	-0.04
820.403	-0.03
820.834	-0.01
821.266	0
821.697	0.02
822.129	0.04
822.56	0.06
822.991	0.07
823.423	0.08
823.854	0.1
824.286	0.11
824.717	0.12
825.148	0.14
825.579	0.15
826.01	0.16
826.442	0.17
826.873	0.18
827.304	0.19
827.735	0.2
828.166	0.21
828.597	0.22
829.028	0.22
829.459	0.23
829.89	0.23
830.321	0.24
830.752	0.24
831.183	0.25
831.613	0.25
832.044	0.26
832.475	0.26
832.906	0.26
833.336	0.27
833.767	0.27
834.198	0.27
834.628	0.27
835.059	0.28
835.49	0.28
835.92	0.28
836.351	0.28
836.781	0.28
837.212	0.29
837.642	0.29
838.072	0.29
838.503	0.29
838.933	0.29
839.364	0.29
839.794	0.29
840.224	0.29
840.654	0.29
841.085	0.29
841.515	0.29
841.945	0.29
842.375	0.29
842.805	0.29
843.235	0.29
843.665	0.29
844.095	0.29
844.525	0.29
844.955	0.29
845.385	0.29
845.815	0.29
846.245	0.29
846.675	0.29
847.105	0.29
847.534	0.29
847.964	0.29
848.394	0.29
848.824	0.29
849.253	0.3
849.683	0.3
850.112	0.3
850.542	0.3
850.972	0.3
851.401	0.3
851.831	0.3
852.26	0.3
852.69	0.3
853.119	0.3
853.548	0.3
853.978	0.3
854.407	0.3
854.836	0.3
855.266	0.3
855.695	0.3
856.124	0.3
856.553	0.29
856.983	0.29
857.412	0.29
857.841	0.29
858.27	0.29
858.699	0.29
859.128	0.29
859.557	0.29
859.986	0.28
860.415	0.28
860.844	0.28
861.273	0.28
861.702	0.28
862.13	0.28
862.559	0.28
862.988	0.28
863.417	0.28
863.845	0.28
864.274	0.28
864.703	0.28
865.131	0.28
865.56	0.28
865.989	0.28
866.417	0.28
866.846	0.28
867.274	0.28
867.703	0.28
868.131	0.28
868.559	0.28
868.988	0.28
869.416	0.27
869.844	0.27
870.273	0.27
870.701	0.27
871.129	0.27
871.557	0.27
871.986	0.27
872.414	0.27
872.842	0.27
873.27	0.27
873.698	0.27
874.126	0.27
874.554	0.27
874.982	0.27
875.41	0.27
875.838	0.27
876.266	0.27
876.694	0.27
877.122	0.27
877.549	0.27
877.977	0.27
878.405	0.27
878.833	0.26
879.26	0.26
879.688	0.26
880.116	0.26
880.543	0.26
880.971	0.26
881.399	0.26
881.826	0.26
882.254	0.26
882.681	0.26
883.109	0.26
883.536	0.26
883.963	0.26
884.391	0.26
884.818	0.26
885.245	0.26
885.673	0.26
886.1	0.26
886.527	0.26
886.954	0.26
887.381	0.26
887.809	0.26
888.236	0.26
888.663	0.26
889.09	0.26
889.517	0.26
889.944	0.26
890.371	0.26
890.798	0.26
891.225	0.25
891.652	0.25
892.078	0.25
892.505	0.25
892.932	0.25
893.359	0.25
893.786	0.25
894.212	0.25
894.639	0.25
895.066	0.25
895.492	0.25
895.919	0.25
896.346	0.25
896.772	0.25
897.199	0.25
897.625	0.25
898.052	0.25
898.478	0.24
898.904	0.24
899.331	0.24
899.757	0.24
900.183	0.24
900.61	0.24
901.036	0.24
901.462	0.24
901.888	0.24
902.315	0.24
902.741	0.24
903.167	0.24
903.593	0.24
904.019	0.24
904.445	0.24
904.871	0.24
905.297	0.24
905.723	0.24
906.149	0.24
906.575	0.24
907.001	0.24
907.427	0.24
907.852	0.24
908.278	0.23
908.704	0.23
909.13	0.23
909.555	0.23
909.981	0.23
910.407	0.23
910.832	0.23
911.258	0.23
911.684	0.23
912.109	0.23
912.535	0.23
912.96	0.23
913.386	0.23
913.811	0.23
914.236	0.23
914.662	0.24
915.087	0.24
915.512	0.24
915.938	0.24
916.363	0.23
916.788	0.23
917.213	0.23
917.639	0.23
918.064	0.23
918.489	0.23
918.914	0.23
919.339	0.23
919.764	0.23
920.189	0.23
920.614	0.23
921.039	0.23
921.464	0.23
921.889	0.23
922.314	0.23
922.738	0.23
923.163	0.23
923.588	0.23
924.013	0.22
924.437	0.22
924.862	0.22
925.287	0.22
925.711	0.22
926.136	0.22
926.561	0.22
926.985	0.22
927.41	0.22
927.834	0.22
928.259	0.22
928.683	0.22
929.108	0.22
929.532	0.22
929.956	0.22
930.381	0.22
930.805	0.21
931.229	0.21
931.653	0.21
932.078	0.21
932.502	0.21
932.926	0.21
933.35	0.21
933.774	0.2
934.198	0.2
934.622	0.2
935.046	0.2
935.47	0.2
935.894	0.2
936.318	0.2
936.742	0.2
937.166	0.2
937.59	0.2
938.014	0.2
938.437	0.2
938.861	0.2
939.285	0.21
939.709	0.21
940.132	0.21
940.556	0.21
940.98	0.21
941.403	0.21
941.827	0.21
942.25	0.21
942.674	0.21
943.097	0.21
943.521	0.21
943.944	0.2
944.368	0.2
944.791	0.2
945.214	0.2
945.638	0.2
946.061	0.2
946.484	0.2
946.907	0.2
947.331	0.2
947.754	0.2
948.177	0.2
948.6	0.2
949.023	0.19
949.446	0.19
949.869	0.19
950.292	0.19
950.715	0.19
951.138	0.19
951.561	0.19
951.984	0.19
952.407	0.19
952.83	0.19
953.252	0.19
953.675	0.19
954.098	0.19
954.521	0.19
954.943	0.19
955.366	0.19
955.789	0.19
956.211	0.19
956.634	0.19
957.056	0.19
957.479	0.19
957.902	0.19
958.324	0.19
958.746	0.19
959.169	0.19
959.591	0.19
960.014	0.19
960.436	0.19
960.858	0.18
961.281	0.18
961.703	0.18
962.125	0.19
962.547	0.19
962.969	0.19
963.391	0.19
963.814	0.19
964.236	0.19
964.658	0.19
965.08	0.19
965.502	0.19
965.924	0.19
966.346	0.19
966.768	0.19
967.189	0.19
967.611	0.19
968.033	0.19
968.455	0.19
968.877	0.18
969.298	0.18
969.72	0.18
970.142	0.18
970.563	0.18
970.985	0.18
971.407	0.18
971.828	0.18
972.25	0.18
972.671	0.18
973.093	0.18
973.514	0.18
973.936	0.18
974.357	0.18
974.778	0.18
975.2	0.18
975.621	0.18
976.042	0.18
976.464	0.18
976.885	0.18
977.306	0.18
977.727	0.18
978.148	0.18
978.57	0.18
978.991	0.18
979.412	0.18
979.833	0.18
980.254	0.17
980.675	0.17
981.096	0.17
981.517	0.17
981.937	0.17
982.358	0.17
982.779	0.17
983.2	0.17
983.621	0.17
984.042	0.17
984.462	0.17
984.883	0.17
985.304	0.17
985.724	0.17
986.145	0.17
986.565	0.17
986.986	0.17
987.407	0.17
987.827	0.17
988.248	0.17
988.668	0.17
989.088	0.17
989.509	0.17
989.929	0.17
990.35	0.17
990.77	0.17
991.19	0.17
991.61	0.17
992.031	0.16
992.451	0.16
992.871	0.16
993.291	0.16
993.711	0.16
994.131	0.16
994.551	0.16
994.971	0.16
995.391	0.16
995.811	0.15
996.231	0.15
996.651	0.15
997.071	0.15
997.491	0.15
997.911	0.15
998.331	0.16
998.75	0.16
999.17	0.16
999.59	0.16
1000.009	0.16
1000.429	0.16
1000.849	0.16
1001.268	0.16
1001.688	0.16
1002.107	0.16
1002.527	0.16
1002.946	0.16
1003.366	0.16
1003.785	0.16
1004.205	0.16
1004.624	0.16
1005.044	0.16
1005.463	0.16
1005.882	0.16
1006.301	0.16
1006.721	0.15
1007.14	0.15
1007.559	0.15
1007.978	0.15
1008.397	0.15
1008.816	0.15
1009.235	0.15
1009.655	0.15
1010.074	0.15
1010.492	0.15
1010.911	0.15
1011.33	0.15
1011.749	0.15
1012.168	0.15
1012.587	0.15
1013.006	0.15
1013.425	0.15
1013.843	0.15
1014.262	0.15
1014.681	0.15
1015.099	0.15
1015.518	0.15
1015.937	0.15
1016.355	0.14
1016.774	0.14
1017.192	0.14
1017.611	0.14
1018.029	0.14
1018.448	0.14
1018.866	0.14
1019.285	0.14
1019.703	0.15
1020.121	0.15
1020.54	0.15
1020.958	0.15
1021.376	0.15
1021.794	0.15
1022.213	0.15
1022.631	0.15
1023.049	0.15
1023.467	0.15
1023.885	0.15
1024.303	0.15
1024.721	0.15
1025.139	0.15
1025.557	0.15
1025.975	0.15
1026.393	0.15
1026.811	0.15
1027.229	0.15
1027.647	0.15
1028.065	0.16
1028.482	0.16
1028.9	0.16
1029.318	0.16
1029.735	0.16
1030.153	0.16
1030.571	0.16
1030.988	0.16
1031.406	0.16
1031.823	0.16
1032.241	0.16
1032.659	0.16
1033.076	0.16
1033.493	0.16
1033.911	0.16
1034.328	0.16
1034.746	0.16
1035.163	0.16
1035.58	0.16
1035.997	0.15
1036.415	0.15
1036.832	0.15
1037.249	0.15
1037.666	0.15
1038.083	0.15
1038.501	0.15
1038.918	0.15
1039.335	0.15
1039.752	0.15
1040.169	0.15
1040.586	0.15
1041.003	0.15
1041.419	0.15
1041.836	0.15
1042.253	0.15
1042.67	0.15
1043.087	0.15
1043.504	0.15
1043.92	0.15
1044.337	0.15
1044.754	0.15
1045.17	0.15
1045.587	0.15
1046.004	0.15
1046.42	0.15
1046.837	0.15
1047.253	0.15
1047.67	0.15
1048.086	0.15
1048.503	0.15
1048.919	0.15
1049.335	0.15
1049.752	0.15
1050.168	0.15
1050.584	0.15
1051.001	0.15
1051.417	0.15
1051.833	0.15
1052.249	0.15
1052.665	0.15
1053.081	0.15
1053.497	0.15
1053.914	0.16
1054.33	0.16
1054.746	0.16
1055.162	0.16
1055.578	0.16
1055.993	0.16
1056.409	0.16
1056.825	0.16
1057.241	0.16
1057.657	0.16
1058.073	0.16
1058.488	0.16
1058.904	0.16
1059.32	0.16
1059.736	0.16
1060.151	0.16
1060.567	0.16
1060.982	0.16
1061.398	0.16
1061.813	0.16
1062.229	0.16
1062.644	0.16
1063.06	0.16
1063.475	0.16
1063.891	0.16
1064.306	0.16
1064.721	0.16
1065.137	0.16
1065.552	0.16
1065.967	0.16
1066.382	0.16
1066.798	0.16
1067.213	0.16
1067.628	0.16
1068.043	0.16
1068.458	0.16
1068.873	0.16
1069.288	0.16
1069.703	0.16
1070.118	0.16
1070.533	0.16
1070.948	0.16
1071.363	0.16
1071.778	0.16
1072.193	0.17
1072.607	0.17
1073.022	0.17
1073.437	0.17
1073.852	0.17
1074.266	0.17
1074.681	0.17
1075.096	0.17
1075.51	0.17
1075.925	0.17
1076.339	0.17
1076.754	0.17
1077.168	0.17
1077.583	0.17
1077.997	0.17
1078.412	0.17
1078.826	0.17
1079.24	0.18
1079.655	0.18
1080.069	0.18
1080.483	0.18
1080.897	0.18
1081.312	0.18
1081.726	0.18
1082.14	0.18
1082.554	0.19
1082.968	0.19
1083.382	0.19
1083.796	0.19
1084.21	0.2
1084.624	0.2
1085.038	0.2
1085.452	0.2
1085.866	0.21
1086.28	0.21
1086.694	0.21
1087.108	0.21
1087.521	0.22
1087.935	0.22
1088.349	0.22
1088.763	0.23
1089.176	0.23
1089.59	0.23
1090.004	0.24
1090.417	0.24
1090.831	0.25
1091.244	0.26
1091.658	0.26
1092.071	0.27
1092.485	0.28
1092.898	0.28
1093.312	0.29
1093.725	0.3
1094.138	0.31
1094.552	0.32
1094.965	0.33
1095.378	0.34
1095.791	0.35
1096.205	0.37
1096.618	0.38
1097.031	0.4
1097.444	0.41
1097.857	0.43
1098.27	0.44
1098.683	0.47
1099.096	0.49
1099.509	0.51
1099.922	0.54
1100.335	0.58
1100.748	0.61
1101.161	0.65
1101.574	0.71
1101.986	0.77
1102.399	0.85
1102.812	0.96
1103.225	1.11
1103.637	1.37
1104.05	2.02
1104.463	-0
1104.875	-0
1105.288	-0
1105.7	-0
1106.113	-0
1106.525	-0
1106.938	-0
1107.35	-0
1107.763	-0
1108.175	-0
1108.588	-0
1109	-0
1109.412	-0
1109.824	-0
1110.237	-0
1110.649	-0
1111.061	-0
