Data from unagg-15c-2a-1h_Absorbance__54__00481.txt Node

Date: Mon May 06 09:34:32 CEST 2024
User: Laser008
Spectrometer: MAYP115816
Trigger mode: 0
Integration Time (sec): 2.000000E-1
Scans to average: 10
Electric dark correction enabled: true
Nonlinearity correction enabled: true
Boxcar width: 5
XAxis mode: Wavelengths
Number of Pixels in Spectrum: 2068
>>>>>Begin Spectral Data<<<<<
198.914	-1.78
199.384	-1.64
199.855	-1.5
200.325	-1.37
200.796	-1.29
201.266	-1.24
201.737	-1.17
202.207	-1.11
202.677	-1.06
203.147	-1.02
203.618	-0.99
204.088	-0.96
204.558	-0.94
205.028	-0.93
205.498	-0.93
205.968	-0.93
206.439	-0.92
206.909	-0.92
207.379	-0.92
207.849	-0.91
208.319	-0.91
208.789	-0.91
209.258	-0.91
209.728	-0.9
210.198	-0.9
210.668	-0.9
211.138	-0.9
211.608	-0.9
212.077	-0.9
212.547	-0.9
213.017	-0.9
213.486	-0.9
213.956	-0.9
214.426	-0.9
214.895	-0.9
215.365	-0.9
215.834	-0.89
216.304	-0.89
216.773	-0.89
217.243	-0.89
217.712	-0.88
218.181	-0.88
218.651	-0.88
219.12	-0.88
219.589	-0.87
220.058	-0.87
220.528	-0.87
220.997	-0.87
221.466	-0.87
221.935	-0.86
222.404	-0.86
222.873	-0.85
223.342	-0.85
223.812	-0.84
224.281	-0.83
224.749	-0.82
225.218	-0.81
225.687	-0.8
226.156	-0.79
226.625	-0.77
227.094	-0.76
227.563	-0.74
228.031	-0.72
228.5	-0.7
228.969	-0.67
229.438	-0.65
229.906	-0.61
230.375	-0.58
230.844	-0.54
231.312	-0.5
231.781	-0.46
232.249	-0.41
232.718	-0.36
233.186	-0.31
233.655	-0.26
234.123	-0.21
234.591	-0.16
235.06	-0.11
235.528	-0.06
235.996	-0.01
236.465	0.04
236.933	0.08
237.401	0.13
237.869	0.17
238.337	0.21
238.805	0.25
239.274	0.29
239.742	0.32
240.21	0.36
240.678	0.39
241.146	0.42
241.614	0.45
242.081	0.47
242.549	0.5
243.017	0.52
243.485	0.54
243.953	0.56
244.421	0.58
244.888	0.6
245.356	0.62
245.824	0.63
246.291	0.65
246.759	0.66
247.227	0.67
247.694	0.69
248.162	0.7
248.629	0.71
249.097	0.72
249.564	0.73
250.032	0.74
250.499	0.75
250.967	0.76
251.434	0.76
251.901	0.77
252.369	0.78
252.836	0.79
253.303	0.79
253.77	0.8
254.237	0.8
254.705	0.81
255.172	0.81
255.639	0.82
256.106	0.82
256.573	0.83
257.04	0.83
257.507	0.83
257.974	0.84
258.441	0.84
258.908	0.84
259.375	0.84
259.841	0.85
260.308	0.85
260.775	0.85
261.242	0.85
261.709	0.85
262.175	0.85
262.642	0.85
263.109	0.86
263.575	0.86
264.042	0.86
264.508	0.86
264.975	0.86
265.441	0.86
265.908	0.86
266.374	0.86
266.841	0.86
267.307	0.86
267.773	0.86
268.24	0.86
268.706	0.85
269.172	0.85
269.639	0.85
270.105	0.85
270.571	0.85
271.037	0.85
271.503	0.85
271.969	0.84
272.435	0.84
272.902	0.84
273.368	0.84
273.834	0.84
274.3	0.84
274.765	0.83
275.231	0.83
275.697	0.83
276.163	0.83
276.629	0.82
277.095	0.82
277.56	0.82
278.026	0.81
278.492	0.81
278.958	0.81
279.423	0.8
279.889	0.8
280.354	0.8
280.82	0.8
281.286	0.8
281.751	0.79
282.217	0.79
282.682	0.79
283.147	0.79
283.613	0.79
284.078	0.79
284.544	0.79
285.009	0.78
285.474	0.78
285.939	0.78
286.405	0.77
286.87	0.77
287.335	0.77
287.8	0.77
288.265	0.77
288.73	0.76
289.195	0.76
289.66	0.76
290.125	0.76
290.59	0.75
291.055	0.75
291.52	0.75
291.985	0.75
292.45	0.75
292.915	0.74
293.38	0.74
293.844	0.74
294.309	0.74
294.774	0.74
295.239	0.73
295.703	0.73
296.168	0.73
296.632	0.73
297.097	0.73
297.562	0.73
298.026	0.72
298.491	0.72
298.955	0.72
299.419	0.72
299.884	0.72
300.348	0.72
300.813	0.71
301.277	0.71
301.741	0.71
302.205	0.71
302.67	0.71
303.134	0.71
303.598	0.71
304.062	0.7
304.526	0.7
304.99	0.7
305.454	0.7
305.919	0.7
306.383	0.7
306.847	0.7
307.31	0.7
307.774	0.69
308.238	0.69
308.702	0.69
309.166	0.69
309.63	0.69
310.094	0.69
310.557	0.69
311.021	0.68
311.485	0.68
311.948	0.68
312.412	0.68
312.876	0.68
313.339	0.68
313.803	0.68
314.266	0.67
314.73	0.67
315.193	0.67
315.657	0.67
316.12	0.67
316.584	0.67
317.047	0.67
317.51	0.66
317.973	0.66
318.437	0.66
318.9	0.66
319.363	0.66
319.826	0.66
320.29	0.66
320.753	0.65
321.216	0.65
321.679	0.65
322.142	0.65
322.605	0.65
323.068	0.65
323.531	0.65
323.994	0.64
324.457	0.64
324.92	0.64
325.382	0.64
325.845	0.64
326.308	0.64
326.771	0.64
327.233	0.63
327.696	0.63
328.159	0.63
328.622	0.63
329.084	0.63
329.547	0.63
330.009	0.63
330.472	0.63
330.934	0.62
331.397	0.62
331.859	0.62
332.322	0.62
332.784	0.62
333.246	0.62
333.709	0.62
334.171	0.61
334.633	0.61
335.096	0.61
335.558	0.61
336.02	0.61
336.482	0.61
336.944	0.61
337.406	0.61
337.868	0.61
338.331	0.6
338.793	0.6
339.255	0.6
339.717	0.6
340.178	0.6
340.64	0.6
341.102	0.6
341.564	0.6
342.026	0.6
342.488	0.6
342.949	0.59
343.411	0.59
343.873	0.59
344.335	0.59
344.796	0.59
345.258	0.59
345.719	0.59
346.181	0.59
346.643	0.59
347.104	0.59
347.566	0.59
348.027	0.59
348.488	0.58
348.95	0.58
349.411	0.58
349.873	0.58
350.334	0.58
350.795	0.58
351.256	0.58
351.718	0.58
352.179	0.58
352.64	0.58
353.101	0.57
353.562	0.57
354.023	0.57
354.484	0.57
354.945	0.57
355.406	0.57
355.867	0.57
356.328	0.56
356.789	0.56
357.25	0.56
357.711	0.56
358.172	0.56
358.633	0.56
359.093	0.56
359.554	0.56
360.015	0.57
360.476	0.57
360.936	0.57
361.397	0.57
361.858	0.57
362.318	0.57
362.779	0.57
363.239	0.57
363.7	0.57
364.16	0.57
364.621	0.57
365.081	0.57
365.541	0.57
366.002	0.57
366.462	0.57
366.922	0.56
367.383	0.56
367.843	0.56
368.303	0.56
368.763	0.56
369.223	0.56
369.684	0.56
370.144	0.56
370.604	0.56
371.064	0.56
371.524	0.56
371.984	0.56
372.444	0.56
372.904	0.56
373.363	0.56
373.823	0.56
374.283	0.56
374.743	0.56
375.203	0.56
375.663	0.56
376.122	0.56
376.582	0.56
377.042	0.56
377.501	0.56
377.961	0.56
378.42	0.56
378.88	0.56
379.34	0.56
379.799	0.56
380.259	0.56
380.718	0.56
381.177	0.56
381.637	0.55
382.096	0.55
382.555	0.55
383.015	0.55
383.474	0.55
383.933	0.55
384.393	0.55
384.852	0.55
385.311	0.55
385.77	0.55
386.229	0.55
386.688	0.55
387.147	0.55
387.606	0.55
388.065	0.55
388.524	0.55
388.983	0.55
389.442	0.55
389.901	0.55
390.36	0.55
390.819	0.55
391.277	0.55
391.736	0.55
392.195	0.55
392.654	0.55
393.112	0.55
393.571	0.55
394.03	0.55
394.488	0.55
394.947	0.55
395.405	0.55
395.864	0.54
396.322	0.54
396.781	0.54
397.239	0.54
397.698	0.54
398.156	0.54
398.614	0.54
399.073	0.54
399.531	0.54
399.989	0.54
400.447	0.54
400.905	0.54
401.364	0.54
401.822	0.54
402.28	0.54
402.738	0.54
403.196	0.54
403.654	0.54
404.112	0.54
404.57	0.53
405.028	0.53
405.486	0.53
405.944	0.53
406.402	0.53
406.859	0.53
407.317	0.53
407.775	0.53
408.233	0.53
408.691	0.53
409.148	0.53
409.606	0.53
410.064	0.53
410.521	0.53
410.979	0.53
411.436	0.53
411.894	0.53
412.351	0.53
412.809	0.53
413.266	0.53
413.724	0.52
414.181	0.52
414.638	0.52
415.096	0.52
415.553	0.52
416.01	0.52
416.467	0.52
416.925	0.52
417.382	0.52
417.839	0.52
418.296	0.52
418.753	0.52
419.21	0.52
419.667	0.52
420.124	0.52
420.581	0.52
421.038	0.52
421.495	0.52
421.952	0.52
422.409	0.52
422.866	0.52
423.322	0.52
423.779	0.52
424.236	0.52
424.693	0.52
425.149	0.52
425.606	0.52
426.063	0.52
426.519	0.52
426.976	0.52
427.433	0.52
427.889	0.52
428.346	0.52
428.802	0.52
429.258	0.52
429.715	0.52
430.171	0.52
430.628	0.52
431.084	0.52
431.54	0.52
431.997	0.52
432.453	0.52
432.909	0.52
433.365	0.51
433.821	0.51
434.277	0.51
434.734	0.51
435.19	0.51
435.646	0.51
436.102	0.51
436.558	0.51
437.014	0.51
437.47	0.51
437.925	0.51
438.381	0.51
438.837	0.51
439.293	0.51
439.749	0.51
440.205	0.51
440.66	0.51
441.116	0.51
441.572	0.51
442.027	0.51
442.483	0.51
442.939	0.51
443.394	0.51
443.85	0.51
444.305	0.51
444.761	0.51
445.216	0.51
445.672	0.51
446.127	0.51
446.582	0.51
447.038	0.51
447.493	0.51
447.948	0.51
448.403	0.51
448.859	0.51
449.314	0.51
449.769	0.51
450.224	0.51
450.679	0.51
451.134	0.51
451.589	0.51
452.044	0.5
452.499	0.5
452.954	0.5
453.409	0.5
453.864	0.5
454.319	0.5
454.774	0.5
455.229	0.5
455.684	0.5
456.138	0.5
456.593	0.5
457.048	0.5
457.503	0.5
457.957	0.5
458.412	0.5
458.866	0.5
459.321	0.5
459.776	0.5
460.23	0.5
460.685	0.5
461.139	0.5
461.593	0.5
462.048	0.5
462.502	0.5
462.957	0.5
463.411	0.5
463.865	0.5
464.319	0.5
464.774	0.5
465.228	0.5
465.682	0.5
466.136	0.5
466.59	0.5
467.044	0.5
467.499	0.5
467.953	0.5
468.407	0.5
468.861	0.5
469.315	0.49
469.768	0.49
470.222	0.49
470.676	0.49
471.13	0.49
471.584	0.49
472.038	0.49
472.491	0.49
472.945	0.5
473.399	0.5
473.852	0.5
474.306	0.5
474.76	0.5
475.213	0.5
475.667	0.5
476.12	0.51
476.574	0.51
477.027	0.51
477.481	0.51
477.934	0.51
478.388	0.51
478.841	0.51
479.294	0.51
479.748	0.51
480.201	0.51
480.654	0.52
481.107	0.52
481.561	0.52
482.014	0.52
482.467	0.52
482.92	0.52
483.373	0.53
483.826	0.53
484.279	0.53
484.732	0.54
485.185	0.54
485.638	0.54
486.091	0.54
486.544	0.55
486.997	0.55
487.449	0.55
487.902	0.55
488.355	0.55
488.808	0.55
489.26	0.55
489.713	0.55
490.166	0.55
490.618	0.55
491.071	0.55
491.523	0.55
491.976	0.55
492.429	0.55
492.881	0.55
493.333	0.56
493.786	0.56
494.238	0.56
494.691	0.57
495.143	0.57
495.595	0.57
496.048	0.57
496.5	0.58
496.952	0.58
497.404	0.58
497.856	0.58
498.309	0.58
498.761	0.59
499.213	0.59
499.665	0.59
500.117	0.59
500.569	0.6
501.021	0.6
501.473	0.6
501.925	0.61
502.377	0.61
502.828	0.61
503.28	0.61
503.732	0.62
504.184	0.62
504.636	0.62
505.087	0.62
505.539	0.62
505.991	0.62
506.442	0.63
506.894	0.63
507.345	0.63
507.797	0.63
508.249	0.63
508.7	0.63
509.151	0.64
509.603	0.64
510.054	0.64
510.506	0.64
510.957	0.64
511.408	0.64
511.86	0.64
512.311	0.65
512.762	0.65
513.213	0.65
513.665	0.64
514.116	0.64
514.567	0.64
515.018	0.65
515.469	0.65
515.92	0.65
516.371	0.65
516.822	0.65
517.273	0.65
517.724	0.65
518.175	0.65
518.626	0.65
519.076	0.65
519.527	0.65
519.978	0.64
520.429	0.64
520.88	0.64
521.33	0.63
521.781	0.63
522.232	0.63
522.682	0.63
523.133	0.63
523.583	0.63
524.034	0.64
524.484	0.64
524.935	0.65
525.385	0.65
525.836	0.66
526.286	0.66
526.736	0.67
527.187	0.67
527.637	0.67
528.087	0.68
528.538	0.68
528.988	0.68
529.438	0.68
529.888	0.68
530.338	0.68
530.788	0.68
531.238	0.68
531.688	0.68
532.139	0.68
532.589	0.69
533.038	0.69
533.488	0.69
533.938	0.69
534.388	0.69
534.838	0.69
535.288	0.69
535.738	0.69
536.187	0.69
536.637	0.69
537.087	0.69
537.537	0.69
537.986	0.69
538.436	0.68
538.885	0.68
539.335	0.68
539.785	0.68
540.234	0.68
540.684	0.68
541.133	0.68
541.582	0.68
542.032	0.68
542.481	0.67
542.931	0.67
543.38	0.67
543.829	0.67
544.278	0.67
544.728	0.67
545.177	0.67
545.626	0.67
546.075	0.67
546.524	0.67
546.973	0.67
547.422	0.66
547.871	0.66
548.32	0.66
548.769	0.66
549.218	0.65
549.667	0.65
550.116	0.65
550.565	0.65
551.014	0.65
551.463	0.64
551.911	0.64
552.36	0.64
552.809	0.64
553.258	0.64
553.706	0.64
554.155	0.64
554.603	0.63
555.052	0.63
555.501	0.63
555.949	0.62
556.398	0.62
556.846	0.61
557.294	0.61
557.743	0.61
558.191	0.6
558.64	0.6
559.088	0.6
559.536	0.6
559.985	0.6
560.433	0.6
560.881	0.6
561.329	0.6
561.777	0.6
562.225	0.6
562.674	0.59
563.122	0.59
563.57	0.59
564.018	0.58
564.466	0.58
564.914	0.58
565.362	0.57
565.809	0.57
566.257	0.57
566.705	0.57
567.153	0.57
567.601	0.57
568.048	0.57
568.496	0.57
568.944	0.57
569.392	0.57
569.839	0.57
570.287	0.57
570.734	0.57
571.182	0.57
571.63	0.57
572.077	0.57
572.525	0.57
572.972	0.57
573.419	0.56
573.867	0.56
574.314	0.56
574.761	0.56
575.209	0.56
575.656	0.56
576.103	0.55
576.551	0.55
576.998	0.55
577.445	0.55
577.892	0.54
578.339	0.54
578.786	0.54
579.233	0.54
579.68	0.54
580.127	0.54
580.574	0.53
581.021	0.53
581.468	0.53
581.915	0.52
582.362	0.52
582.809	0.52
583.255	0.52
583.702	0.51
584.149	0.51
584.596	0.5
585.042	0.5
585.489	0.5
585.936	0.49
586.382	0.49
586.829	0.49
587.275	0.49
587.722	0.48
588.168	0.48
588.615	0.48
589.061	0.47
589.508	0.47
589.954	0.47
590.4	0.46
590.847	0.46
591.293	0.46
591.739	0.46
592.185	0.45
592.632	0.45
593.078	0.45
593.524	0.45
593.97	0.45
594.416	0.45
594.862	0.44
595.308	0.44
595.754	0.44
596.2	0.44
596.646	0.44
597.092	0.43
597.538	0.43
597.984	0.43
598.43	0.43
598.876	0.43
599.321	0.43
599.767	0.43
600.213	0.43
600.659	0.42
601.104	0.42
601.55	0.42
601.995	0.42
602.441	0.41
602.887	0.41
603.332	0.41
603.778	0.41
604.223	0.41
604.668	0.41
605.114	0.41
605.559	0.41
606.005	0.41
606.45	0.41
606.895	0.41
607.341	0.4
607.786	0.4
608.231	0.4
608.676	0.4
609.121	0.4
609.566	0.4
610.012	0.39
610.457	0.39
610.902	0.39
611.347	0.39
611.792	0.39
612.237	0.39
612.682	0.39
613.127	0.39
613.571	0.39
614.016	0.39
614.461	0.39
614.906	0.39
615.351	0.39
615.795	0.38
616.24	0.38
616.685	0.38
617.129	0.38
617.574	0.38
618.019	0.38
618.463	0.38
618.908	0.38
619.352	0.38
619.797	0.38
620.241	0.38
620.686	0.38
621.13	0.38
621.574	0.38
622.019	0.38
622.463	0.38
622.907	0.38
623.352	0.38
623.796	0.38
624.24	0.38
624.684	0.38
625.128	0.38
625.572	0.38
626.016	0.38
626.461	0.38
626.905	0.38
627.349	0.39
627.793	0.39
628.236	0.39
628.68	0.39
629.124	0.39
629.568	0.39
630.012	0.39
630.456	0.39
630.9	0.39
631.343	0.39
631.787	0.39
632.231	0.39
632.674	0.39
633.118	0.4
633.562	0.4
634.005	0.4
634.449	0.4
634.892	0.4
635.336	0.41
635.779	0.41
636.223	0.41
636.666	0.41
637.109	0.41
637.553	0.42
637.996	0.42
638.439	0.42
638.883	0.42
639.326	0.42
639.769	0.43
640.212	0.43
640.655	0.43
641.099	0.44
641.542	0.44
641.985	0.44
642.428	0.44
642.871	0.45
643.314	0.45
643.757	0.45
644.2	0.46
644.643	0.46
645.085	0.46
645.528	0.47
645.971	0.47
646.414	0.48
646.857	0.48
647.299	0.48
647.742	0.49
648.185	0.49
648.627	0.5
649.07	0.5
649.513	0.51
649.955	0.51
650.398	0.52
650.84	0.52
651.283	0.52
651.725	0.53
652.168	0.53
652.61	0.54
653.052	0.54
653.495	0.54
653.937	0.47
654.379	0.44
654.821	0.45
655.264	0.46
655.706	0.46
656.148	0.46
656.59	0.46
657.032	0.47
657.474	0.47
657.916	0.47
658.358	0.47
658.8	0.54
659.242	0.61
659.684	0.61
660.126	0.61
660.568	0.62
661.01	0.62
661.452	0.62
661.894	0.63
662.335	0.63
662.777	0.64
663.219	0.64
663.661	0.65
664.102	0.65
664.544	0.65
664.985	0.66
665.427	0.66
665.869	0.67
666.31	0.67
666.752	0.68
667.193	0.68
667.634	0.68
668.076	0.69
668.517	0.69
668.959	0.7
669.4	0.7
669.841	0.71
670.282	0.71
670.724	0.72
671.165	0.72
671.606	0.73
672.047	0.73
672.488	0.73
672.929	0.74
673.37	0.74
673.811	0.74
674.252	0.74
674.693	0.74
675.134	0.74
675.575	0.74
676.016	0.75
676.457	0.75
676.898	0.75
677.339	0.75
677.78	0.76
678.22	0.76
678.661	0.76
679.102	0.76
679.542	0.77
679.983	0.77
680.424	0.77
680.864	0.77
681.305	0.77
681.745	0.77
682.186	0.77
682.626	0.77
683.067	0.78
683.507	0.78
683.948	0.78
684.388	0.78
684.828	0.78
685.269	0.78
685.709	0.79
686.149	0.79
686.589	0.79
687.029	0.79
687.47	0.79
687.91	0.79
688.35	0.78
688.79	0.78
689.23	0.79
689.67	0.79
690.11	0.79
690.55	0.79
690.99	0.79
691.43	0.79
691.87	0.79
692.31	0.78
692.749	0.78
693.189	0.78
693.629	0.78
694.069	0.78
694.508	0.78
694.948	0.78
695.388	0.78
695.827	0.78
696.267	0.78
696.706	0.78
697.146	0.77
697.586	0.77
698.025	0.77
698.464	0.77
698.904	0.77
699.343	0.76
699.783	0.76
700.222	0.76
700.661	0.75
701.101	0.75
701.54	0.75
701.979	0.75
702.418	0.74
702.857	0.74
703.297	0.74
703.736	0.74
704.175	0.73
704.614	0.73
705.053	0.73
705.492	0.73
705.931	0.73
706.37	0.72
706.809	0.72
707.248	0.72
707.687	0.71
708.125	0.71
708.564	0.71
709.003	0.71
709.442	0.7
709.88	0.7
710.319	0.69
710.758	0.69
711.196	0.68
711.635	0.68
712.074	0.68
712.512	0.67
712.951	0.67
713.389	0.67
713.828	0.66
714.266	0.66
714.705	0.65
715.143	0.65
715.581	0.65
716.02	0.64
716.458	0.64
716.896	0.63
717.334	0.63
717.773	0.63
718.211	0.62
718.649	0.62
719.087	0.61
719.525	0.61
719.963	0.61
720.401	0.6
720.839	0.6
721.277	0.59
721.715	0.59
722.153	0.59
722.591	0.58
723.029	0.58
723.467	0.57
723.905	0.57
724.342	0.56
724.78	0.56
725.218	0.56
725.656	0.55
726.093	0.55
726.531	0.55
726.969	0.54
727.406	0.54
727.844	0.54
728.281	0.53
728.719	0.53
729.156	0.53
729.594	0.52
730.031	0.52
730.469	0.52
730.906	0.51
731.343	0.51
731.781	0.51
732.218	0.51
732.655	0.5
733.092	0.5
733.53	0.5
733.967	0.49
734.404	0.49
734.841	0.49
735.278	0.48
735.715	0.48
736.152	0.48
736.589	0.47
737.026	0.47
737.463	0.46
737.9	0.46
738.337	0.46
738.774	0.45
739.211	0.45
739.647	0.44
740.084	0.44
740.521	0.44
740.958	0.43
741.394	0.43
741.831	0.42
742.268	0.42
742.704	0.41
743.141	0.41
743.577	0.4
744.014	0.4
744.45	0.4
744.887	0.39
745.323	0.39
745.76	0.38
746.196	0.38
746.632	0.38
747.069	0.38
747.505	0.37
747.941	0.37
748.378	0.37
748.814	0.37
749.25	0.37
749.686	0.36
750.122	0.36
750.558	0.36
750.994	0.36
751.43	0.36
751.866	0.36
752.302	0.35
752.738	0.35
753.174	0.35
753.61	0.35
754.046	0.34
754.482	0.34
754.918	0.34
755.354	0.34
755.789	0.34
756.225	0.34
756.661	0.33
757.096	0.33
757.532	0.33
757.968	0.33
758.403	0.33
758.839	0.32
759.274	0.32
759.71	0.32
760.145	0.31
760.581	0.31
761.016	0.3
761.452	0.3
761.887	0.3
762.322	0.29
762.758	0.29
763.193	0.29
763.628	0.28
764.063	0.28
764.499	0.28
764.934	0.27
765.369	0.27
765.804	0.27
766.239	0.26
766.674	0.26
767.109	0.26
767.544	0.25
767.979	0.25
768.414	0.24
768.849	0.24
769.284	0.23
769.719	0.23
770.154	0.23
770.588	0.22
771.023	0.22
771.458	0.21
771.893	0.21
772.327	0.2
772.762	0.2
773.197	0.2
773.631	0.19
774.066	0.19
774.5	0.18
774.935	0.18
775.369	0.17
775.804	0.17
776.238	0.16
776.673	0.16
777.107	0.15
777.541	0.14
777.976	0.14
778.41	0.13
778.844	0.13
779.279	0.12
779.713	0.11
780.147	0.11
780.581	0.1
781.015	0.09
781.449	0.08
781.883	0.07
782.317	0.06
782.751	0.05
783.185	0.04
783.619	0.03
784.053	0.02
784.487	0
784.921	-0.01
785.355	-0.02
785.789	-0.03
786.223	-0.04
786.656	-0.04
787.09	-0.04
787.524	-0.05
787.957	-0.05
788.391	-0.06
788.825	-0.06
789.258	-0.06
789.692	-0.06
790.125	-0.06
790.559	-0.06
790.992	-0.06
791.426	-0.06
791.859	-0.06
792.293	-0.05
792.726	-0.04
793.159	-0.04
793.593	-0.04
794.026	-0.04
794.459	-0.04
794.892	-0.05
795.326	-0.05
795.759	-0.05
796.192	-0.05
796.625	-0.06
797.058	-0.07
797.491	-0.07
797.924	-0.08
798.357	-0.08
798.79	-0.08
799.223	-0.08
799.656	-0.08
800.089	-0.08
800.522	-0.09
800.955	-0.09
801.387	-0.09
801.82	-0.09
802.253	-0.09
802.686	-0.09
803.118	-0.09
803.551	-0.09
803.984	-0.08
804.416	-0.08
804.849	-0.07
805.281	-0.07
805.714	-0.07
806.146	-0.07
806.579	-0.07
807.011	-0.07
807.444	-0.07
807.876	-0.07
808.308	-0.07
808.741	-0.07
809.173	-0.08
809.605	-0.08
810.037	-0.08
810.47	-0.08
810.902	-0.09
811.334	-0.09
811.766	-0.08
812.198	-0.08
812.63	-0.08
813.062	-0.08
813.494	-0.08
813.926	-0.08
814.358	-0.08
814.79	-0.08
815.222	-0.07
815.654	-0.07
816.086	-0.07
816.518	-0.08
816.949	-0.08
817.381	-0.08
817.813	-0.08
818.245	-0.08
818.676	-0.07
819.108	-0.06
819.54	-0.06
819.971	-0.05
820.403	-0.05
820.834	-0.04
821.266	-0.03
821.697	-0.02
822.129	-0.01
822.56	0
822.991	0.01
823.423	0.02
823.854	0.03
824.286	0.04
824.717	0.05
825.148	0.05
825.579	0.06
826.01	0.07
826.442	0.07
826.873	0.07
827.304	0.08
827.735	0.08
828.166	0.09
828.597	0.09
829.028	0.09
829.459	0.1
829.89	0.1
830.321	0.1
830.752	0.1
831.183	0.11
831.613	0.11
832.044	0.11
832.475	0.11
832.906	0.11
833.336	0.12
833.767	0.12
834.198	0.12
834.628	0.12
835.059	0.12
835.49	0.12
835.92	0.13
836.351	0.13
836.781	0.13
837.212	0.13
837.642	0.13
838.072	0.13
838.503	0.13
838.933	0.13
839.364	0.13
839.794	0.13
840.224	0.13
840.654	0.13
841.085	0.13
841.515	0.13
841.945	0.13
842.375	0.13
842.805	0.13
843.235	0.13
843.665	0.13
844.095	0.13
844.525	0.13
844.955	0.13
845.385	0.12
845.815	0.12
846.245	0.12
846.675	0.12
847.105	0.12
847.534	0.12
847.964	0.12
848.394	0.12
848.824	0.12
849.253	0.12
849.683	0.12
850.112	0.13
850.542	0.13
850.972	0.13
851.401	0.13
851.831	0.13
852.26	0.13
852.69	0.13
853.119	0.13
853.548	0.13
853.978	0.13
854.407	0.13
854.836	0.13
855.266	0.13
855.695	0.12
856.124	0.12
856.553	0.12
856.983	0.12
857.412	0.12
857.841	0.12
858.27	0.12
858.699	0.12
859.128	0.12
859.557	0.11
859.986	0.11
860.415	0.11
860.844	0.11
861.273	0.11
861.702	0.11
862.13	0.11
862.559	0.11
862.988	0.11
863.417	0.11
863.845	0.11
864.274	0.11
864.703	0.11
865.131	0.11
865.56	0.11
865.989	0.11
866.417	0.11
866.846	0.11
867.274	0.11
867.703	0.11
868.131	0.11
868.559	0.11
868.988	0.11
869.416	0.11
869.844	0.11
870.273	0.11
870.701	0.11
871.129	0.11
871.557	0.11
871.986	0.11
872.414	0.11
872.842	0.11
873.27	0.11
873.698	0.11
874.126	0.11
874.554	0.1
874.982	0.1
875.41	0.1
875.838	0.1
876.266	0.1
876.694	0.1
877.122	0.1
877.549	0.1
877.977	0.11
878.405	0.11
878.833	0.1
879.26	0.1
879.688	0.1
880.116	0.1
880.543	0.1
880.971	0.1
881.399	0.1
881.826	0.1
882.254	0.1
882.681	0.1
883.109	0.1
883.536	0.11
883.963	0.11
884.391	0.11
884.818	0.11
885.245	0.11
885.673	0.11
886.1	0.11
886.527	0.11
886.954	0.11
887.381	0.11
887.809	0.11
888.236	0.11
888.663	0.11
889.09	0.11
889.517	0.11
889.944	0.11
890.371	0.11
890.798	0.1
891.225	0.1
891.652	0.1
892.078	0.1
892.505	0.1
892.932	0.1
893.359	0.1
893.786	0.1
894.212	0.1
894.639	0.1
895.066	0.1
895.492	0.1
895.919	0.1
896.346	0.1
896.772	0.1
897.199	0.1
897.625	0.1
898.052	0.1
898.478	0.1
898.904	0.1
899.331	0.1
899.757	0.1
900.183	0.1
900.61	0.1
901.036	0.1
901.462	0.1
901.888	0.1
902.315	0.1
902.741	0.1
903.167	0.1
903.593	0.1
904.019	0.1
904.445	0.1
904.871	0.1
905.297	0.1
905.723	0.1
906.149	0.1
906.575	0.1
907.001	0.1
907.427	0.1
907.852	0.1
908.278	0.1
908.704	0.1
909.13	0.09
909.555	0.09
909.981	0.09
910.407	0.09
910.832	0.09
911.258	0.09
911.684	0.09
912.109	0.09
912.535	0.09
912.96	0.1
913.386	0.1
913.811	0.1
914.236	0.1
914.662	0.1
915.087	0.1
915.512	0.1
915.938	0.1
916.363	0.1
916.788	0.1
917.213	0.1
917.639	0.1
918.064	0.1
918.489	0.1
918.914	0.1
919.339	0.1
919.764	0.1
920.189	0.1
920.614	0.1
921.039	0.1
921.464	0.1
921.889	0.1
922.314	0.1
922.738	0.1
923.163	0.1
923.588	0.1
924.013	0.1
924.437	0.09
924.862	0.09
925.287	0.09
925.711	0.09
926.136	0.09
926.561	0.09
926.985	0.09
927.41	0.09
927.834	0.09
928.259	0.09
928.683	0.09
929.108	0.09
929.532	0.09
929.956	0.09
930.381	0.09
930.805	0.09
931.229	0.09
931.653	0.09
932.078	0.08
932.502	0.08
932.926	0.08
933.35	0.08
933.774	0.08
934.198	0.08
934.622	0.08
935.046	0.08
935.47	0.08
935.894	0.08
936.318	0.08
936.742	0.08
937.166	0.08
937.59	0.08
938.014	0.08
938.437	0.08
938.861	0.08
939.285	0.08
939.709	0.08
940.132	0.08
940.556	0.08
940.98	0.08
941.403	0.08
941.827	0.08
942.25	0.08
942.674	0.08
943.097	0.08
943.521	0.08
943.944	0.08
944.368	0.08
944.791	0.08
945.214	0.08
945.638	0.08
946.061	0.08
946.484	0.08
946.907	0.08
947.331	0.08
947.754	0.08
948.177	0.08
948.6	0.08
949.023	0.08
949.446	0.08
949.869	0.08
950.292	0.08
950.715	0.07
951.138	0.07
951.561	0.07
951.984	0.07
952.407	0.07
952.83	0.07
953.252	0.07
953.675	0.07
954.098	0.07
954.521	0.07
954.943	0.07
955.366	0.07
955.789	0.07
956.211	0.07
956.634	0.07
957.056	0.07
957.479	0.07
957.902	0.07
958.324	0.07
958.746	0.07
959.169	0.07
959.591	0.07
960.014	0.07
960.436	0.07
960.858	0.07
961.281	0.07
961.703	0.07
962.125	0.08
962.547	0.08
962.969	0.08
963.391	0.08
963.814	0.08
964.236	0.08
964.658	0.08
965.08	0.08
965.502	0.08
965.924	0.08
966.346	0.08
966.768	0.08
967.189	0.08
967.611	0.08
968.033	0.08
968.455	0.08
968.877	0.08
969.298	0.08
969.72	0.08
970.142	0.07
970.563	0.07
970.985	0.07
971.407	0.07
971.828	0.07
972.25	0.07
972.671	0.07
973.093	0.07
973.514	0.07
973.936	0.08
974.357	0.08
974.778	0.08
975.2	0.08
975.621	0.08
976.042	0.08
976.464	0.08
976.885	0.08
977.306	0.08
977.727	0.07
978.148	0.07
978.57	0.07
978.991	0.07
979.412	0.07
979.833	0.07
980.254	0.07
980.675	0.07
981.096	0.07
981.517	0.07
981.937	0.07
982.358	0.07
982.779	0.07
983.2	0.07
983.621	0.07
984.042	0.07
984.462	0.07
984.883	0.07
985.304	0.07
985.724	0.07
986.145	0.07
986.565	0.07
986.986	0.07
987.407	0.07
987.827	0.07
988.248	0.07
988.668	0.07
989.088	0.07
989.509	0.07
989.929	0.07
990.35	0.07
990.77	0.07
991.19	0.07
991.61	0.07
992.031	0.07
992.451	0.06
992.871	0.06
993.291	0.06
993.711	0.06
994.131	0.06
994.551	0.06
994.971	0.06
995.391	0.06
995.811	0.06
996.231	0.06
996.651	0.06
997.071	0.06
997.491	0.06
997.911	0.06
998.331	0.06
998.75	0.06
999.17	0.06
999.59	0.06
1000.009	0.06
1000.429	0.06
1000.849	0.06
1001.268	0.06
1001.688	0.06
1002.107	0.06
1002.527	0.06
1002.946	0.06
1003.366	0.06
1003.785	0.06
1004.205	0.06
1004.624	0.06
1005.044	0.06
1005.463	0.06
1005.882	0.06
1006.301	0.06
1006.721	0.06
1007.14	0.06
1007.559	0.06
1007.978	0.06
1008.397	0.06
1008.816	0.06
1009.235	0.06
1009.655	0.06
1010.074	0.06
1010.492	0.06
1010.911	0.06
1011.33	0.06
1011.749	0.06
1012.168	0.06
1012.587	0.06
1013.006	0.06
1013.425	0.06
1013.843	0.05
1014.262	0.05
1014.681	0.05
1015.099	0.05
1015.518	0.05
1015.937	0.05
1016.355	0.05
1016.774	0.05
1017.192	0.05
1017.611	0.05
1018.029	0.05
1018.448	0.05
1018.866	0.05
1019.285	0.05
1019.703	0.05
1020.121	0.05
1020.54	0.05
1020.958	0.05
1021.376	0.05
1021.794	0.06
1022.213	0.06
1022.631	0.06
1023.049	0.06
1023.467	0.06
1023.885	0.06
1024.303	0.06
1024.721	0.06
1025.139	0.06
1025.557	0.06
1025.975	0.06
1026.393	0.06
1026.811	0.06
1027.229	0.06
1027.647	0.06
1028.065	0.06
1028.482	0.06
1028.9	0.07
1029.318	0.07
1029.735	0.07
1030.153	0.07
1030.571	0.07
1030.988	0.07
1031.406	0.07
1031.823	0.07
1032.241	0.07
1032.659	0.07
1033.076	0.07
1033.493	0.07
1033.911	0.07
1034.328	0.07
1034.746	0.07
1035.163	0.07
1035.58	0.06
1035.997	0.06
1036.415	0.06
1036.832	0.06
1037.249	0.06
1037.666	0.06
1038.083	0.06
1038.501	0.06
1038.918	0.06
1039.335	0.06
1039.752	0.06
1040.169	0.06
1040.586	0.06
1041.003	0.06
1041.419	0.06
1041.836	0.06
1042.253	0.06
1042.67	0.06
1043.087	0.06
1043.504	0.06
1043.92	0.06
1044.337	0.06
1044.754	0.06
1045.17	0.06
1045.587	0.06
1046.004	0.06
1046.42	0.06
1046.837	0.06
1047.253	0.06
1047.67	0.06
1048.086	0.06
1048.503	0.06
1048.919	0.06
1049.335	0.06
1049.752	0.06
1050.168	0.06
1050.584	0.06
1051.001	0.06
1051.417	0.06
1051.833	0.06
1052.249	0.06
1052.665	0.06
1053.081	0.06
1053.497	0.06
1053.914	0.06
1054.33	0.06
1054.746	0.06
1055.162	0.06
1055.578	0.06
1055.993	0.06
1056.409	0.06
1056.825	0.06
1057.241	0.06
1057.657	0.06
1058.073	0.06
1058.488	0.06
1058.904	0.06
1059.32	0.06
1059.736	0.06
1060.151	0.06
1060.567	0.06
1060.982	0.06
1061.398	0.06
1061.813	0.06
1062.229	0.06
1062.644	0.06
1063.06	0.06
1063.475	0.06
1063.891	0.06
1064.306	0.06
1064.721	0.06
1065.137	0.06
1065.552	0.06
1065.967	0.06
1066.382	0.06
1066.798	0.06
1067.213	0.06
1067.628	0.06
1068.043	0.06
1068.458	0.06
1068.873	0.06
1069.288	0.06
1069.703	0.06
1070.118	0.06
1070.533	0.06
1070.948	0.06
1071.363	0.06
1071.778	0.06
1072.193	0.06
1072.607	0.06
1073.022	0.06
1073.437	0.06
1073.852	0.07
1074.266	0.07
1074.681	0.07
1075.096	0.07
1075.51	0.07
1075.925	0.07
1076.339	0.07
1076.754	0.06
1077.168	0.06
1077.583	0.06
1077.997	0.06
1078.412	0.06
1078.826	0.07
1079.24	0.07
1079.655	0.07
1080.069	0.07
1080.483	0.07
1080.897	0.07
1081.312	0.07
1081.726	0.07
1082.14	0.07
1082.554	0.07
1082.968	0.07
1083.382	0.07
1083.796	0.07
1084.21	0.08
1084.624	0.08
1085.038	0.08
1085.452	0.08
1085.866	0.08
1086.28	0.08
1086.694	0.08
1087.108	0.09
1087.521	0.09
1087.935	0.09
1088.349	0.09
1088.763	0.09
1089.176	0.09
1089.59	0.09
1090.004	0.1
1090.417	0.1
1090.831	0.1
1091.244	0.1
1091.658	0.11
1092.071	0.11
1092.485	0.11
1092.898	0.12
1093.312	0.12
1093.725	0.13
1094.138	0.13
1094.552	0.13
1094.965	0.14
1095.378	0.14
1095.791	0.15
1096.205	0.15
1096.618	0.16
1097.031	0.16
1097.444	0.17
1097.857	0.18
1098.27	0.18
1098.683	0.19
1099.096	0.2
1099.509	0.21
1099.922	0.22
1100.335	0.23
1100.748	0.24
1101.161	0.25
1101.574	0.26
1101.986	0.27
1102.399	0.29
1102.812	0.31
1103.225	0.32
1103.637	0.34
1104.05	0.36
1104.463	0.39
1104.875	0.42
1105.288	0.45
1105.7	0.48
1106.113	0.52
1106.525	0.56
1106.938	0.63
1107.35	0.72
1107.763	1.18
1108.175	-0
1108.588	-0
1109	-0
1109.412	-0
1109.824	-0
1110.237	-0
1110.649	-0
1111.061	-0
