Data from unagg-15c-2a-1h_Absorbance__113__00540.txt Node

Date: Mon May 06 09:36:30 CEST 2024
User: Laser008
Spectrometer: MAYP115816
Trigger mode: 0
Integration Time (sec): 2.000000E-1
Scans to average: 10
Electric dark correction enabled: true
Nonlinearity correction enabled: true
Boxcar width: 5
XAxis mode: Wavelengths
Number of Pixels in Spectrum: 2068
>>>>>Begin Spectral Data<<<<<
198.914	-1.93
199.384	-1.78
199.855	-1.64
200.325	-1.52
200.796	-1.43
201.266	-1.38
201.737	-1.31
202.207	-1.25
202.677	-1.19
203.147	-1.15
203.618	-1.12
204.088	-1.09
204.558	-1.07
205.028	-1.06
205.498	-1.06
205.968	-1.06
206.439	-1.05
206.909	-1.05
207.379	-1.05
207.849	-1.04
208.319	-1.04
208.789	-1.04
209.258	-1.04
209.728	-1.03
210.198	-1.03
210.668	-1.03
211.138	-1.03
211.608	-1.03
212.077	-1.03
212.547	-1.03
213.017	-1.03
213.486	-1.03
213.956	-1.03
214.426	-1.03
214.895	-1.03
215.365	-1.02
215.834	-1.02
216.304	-1.02
216.773	-1.02
217.243	-1.02
217.712	-1.01
218.181	-1.01
218.651	-1.01
219.12	-1.01
219.589	-1
220.058	-1
220.528	-1
220.997	-1
221.466	-0.99
221.935	-0.99
222.404	-0.99
222.873	-0.98
223.342	-0.98
223.812	-0.97
224.281	-0.96
224.749	-0.95
225.218	-0.94
225.687	-0.93
226.156	-0.92
226.625	-0.9
227.094	-0.89
227.563	-0.87
228.031	-0.85
228.5	-0.83
228.969	-0.81
229.438	-0.78
229.906	-0.75
230.375	-0.71
230.844	-0.67
231.312	-0.63
231.781	-0.59
232.249	-0.55
232.718	-0.5
233.186	-0.45
233.655	-0.41
234.123	-0.36
234.591	-0.31
235.06	-0.26
235.528	-0.21
235.996	-0.17
236.465	-0.12
236.933	-0.08
237.401	-0.04
237.869	-0
238.337	0.04
238.805	0.07
239.274	0.1
239.742	0.13
240.21	0.16
240.678	0.19
241.146	0.22
241.614	0.24
242.081	0.26
242.549	0.28
243.017	0.3
243.485	0.32
243.953	0.34
244.421	0.36
244.888	0.37
245.356	0.38
245.824	0.4
246.291	0.41
246.759	0.42
247.227	0.43
247.694	0.44
248.162	0.45
248.629	0.46
249.097	0.47
249.564	0.48
250.032	0.49
250.499	0.5
250.967	0.5
251.434	0.51
251.901	0.52
252.369	0.52
252.836	0.53
253.303	0.54
253.77	0.54
254.237	0.55
254.705	0.55
255.172	0.56
255.639	0.56
256.106	0.56
256.573	0.57
257.04	0.57
257.507	0.57
257.974	0.58
258.441	0.58
258.908	0.58
259.375	0.58
259.841	0.59
260.308	0.59
260.775	0.59
261.242	0.59
261.709	0.59
262.175	0.59
262.642	0.59
263.109	0.59
263.575	0.59
264.042	0.59
264.508	0.6
264.975	0.6
265.441	0.6
265.908	0.6
266.374	0.6
266.841	0.59
267.307	0.59
267.773	0.59
268.24	0.59
268.706	0.59
269.172	0.59
269.639	0.59
270.105	0.59
270.571	0.59
271.037	0.58
271.503	0.58
271.969	0.58
272.435	0.58
272.902	0.58
273.368	0.58
273.834	0.57
274.3	0.57
274.765	0.57
275.231	0.57
275.697	0.57
276.163	0.56
276.629	0.56
277.095	0.56
277.56	0.55
278.026	0.55
278.492	0.55
278.958	0.55
279.423	0.54
279.889	0.54
280.354	0.54
280.82	0.54
281.286	0.54
281.751	0.53
282.217	0.53
282.682	0.53
283.147	0.53
283.613	0.53
284.078	0.53
284.544	0.53
285.009	0.52
285.474	0.52
285.939	0.52
286.405	0.52
286.87	0.52
287.335	0.51
287.8	0.51
288.265	0.51
288.73	0.51
289.195	0.51
289.66	0.5
290.125	0.5
290.59	0.5
291.055	0.5
291.52	0.5
291.985	0.5
292.45	0.5
292.915	0.5
293.38	0.49
293.844	0.49
294.309	0.49
294.774	0.49
295.239	0.49
295.703	0.49
296.168	0.49
296.632	0.49
297.097	0.49
297.562	0.49
298.026	0.49
298.491	0.49
298.955	0.48
299.419	0.48
299.884	0.48
300.348	0.48
300.813	0.48
301.277	0.48
301.741	0.48
302.205	0.48
302.67	0.48
303.134	0.48
303.598	0.48
304.062	0.48
304.526	0.48
304.99	0.48
305.454	0.48
305.919	0.48
306.383	0.48
306.847	0.48
307.31	0.48
307.774	0.48
308.238	0.48
308.702	0.48
309.166	0.47
309.63	0.47
310.094	0.47
310.557	0.47
311.021	0.47
311.485	0.47
311.948	0.47
312.412	0.47
312.876	0.47
313.339	0.47
313.803	0.47
314.266	0.47
314.73	0.47
315.193	0.47
315.657	0.47
316.12	0.47
316.584	0.47
317.047	0.47
317.51	0.47
317.973	0.47
318.437	0.47
318.9	0.46
319.363	0.46
319.826	0.46
320.29	0.46
320.753	0.46
321.216	0.46
321.679	0.46
322.142	0.46
322.605	0.46
323.068	0.46
323.531	0.46
323.994	0.46
324.457	0.46
324.92	0.46
325.382	0.46
325.845	0.46
326.308	0.46
326.771	0.45
327.233	0.45
327.696	0.45
328.159	0.45
328.622	0.45
329.084	0.45
329.547	0.45
330.009	0.45
330.472	0.45
330.934	0.45
331.397	0.45
331.859	0.45
332.322	0.45
332.784	0.45
333.246	0.45
333.709	0.44
334.171	0.44
334.633	0.44
335.096	0.44
335.558	0.44
336.02	0.44
336.482	0.44
336.944	0.44
337.406	0.44
337.868	0.44
338.331	0.44
338.793	0.44
339.255	0.44
339.717	0.44
340.178	0.44
340.64	0.43
341.102	0.43
341.564	0.43
342.026	0.43
342.488	0.43
342.949	0.43
343.411	0.43
343.873	0.43
344.335	0.43
344.796	0.43
345.258	0.43
345.719	0.43
346.181	0.43
346.643	0.43
347.104	0.43
347.566	0.43
348.027	0.42
348.488	0.42
348.95	0.42
349.411	0.42
349.873	0.42
350.334	0.42
350.795	0.42
351.256	0.42
351.718	0.42
352.179	0.42
352.64	0.42
353.101	0.42
353.562	0.42
354.023	0.41
354.484	0.41
354.945	0.41
355.406	0.41
355.867	0.41
356.328	0.41
356.789	0.41
357.25	0.41
357.711	0.41
358.172	0.41
358.633	0.41
359.093	0.41
359.554	0.41
360.015	0.41
360.476	0.41
360.936	0.41
361.397	0.41
361.858	0.41
362.318	0.41
362.779	0.41
363.239	0.41
363.7	0.41
364.16	0.41
364.621	0.41
365.081	0.41
365.541	0.41
366.002	0.41
366.462	0.41
366.922	0.41
367.383	0.41
367.843	0.41
368.303	0.41
368.763	0.41
369.223	0.41
369.684	0.41
370.144	0.41
370.604	0.41
371.064	0.41
371.524	0.41
371.984	0.41
372.444	0.41
372.904	0.41
373.363	0.41
373.823	0.41
374.283	0.41
374.743	0.41
375.203	0.41
375.663	0.41
376.122	0.41
376.582	0.41
377.042	0.41
377.501	0.41
377.961	0.41
378.42	0.41
378.88	0.41
379.34	0.41
379.799	0.41
380.259	0.41
380.718	0.41
381.177	0.41
381.637	0.41
382.096	0.41
382.555	0.41
383.015	0.41
383.474	0.41
383.933	0.41
384.393	0.41
384.852	0.41
385.311	0.41
385.77	0.41
386.229	0.41
386.688	0.41
387.147	0.41
387.606	0.41
388.065	0.41
388.524	0.41
388.983	0.41
389.442	0.41
389.901	0.41
390.36	0.41
390.819	0.41
391.277	0.41
391.736	0.41
392.195	0.41
392.654	0.41
393.112	0.41
393.571	0.41
394.03	0.41
394.488	0.41
394.947	0.41
395.405	0.41
395.864	0.41
396.322	0.41
396.781	0.41
397.239	0.41
397.698	0.41
398.156	0.41
398.614	0.41
399.073	0.41
399.531	0.41
399.989	0.41
400.447	0.41
400.905	0.41
401.364	0.41
401.822	0.41
402.28	0.41
402.738	0.41
403.196	0.41
403.654	0.41
404.112	0.41
404.57	0.41
405.028	0.41
405.486	0.41
405.944	0.4
406.402	0.4
406.859	0.4
407.317	0.4
407.775	0.4
408.233	0.4
408.691	0.4
409.148	0.4
409.606	0.4
410.064	0.4
410.521	0.4
410.979	0.4
411.436	0.4
411.894	0.4
412.351	0.4
412.809	0.4
413.266	0.4
413.724	0.4
414.181	0.4
414.638	0.4
415.096	0.4
415.553	0.4
416.01	0.4
416.467	0.4
416.925	0.4
417.382	0.4
417.839	0.4
418.296	0.4
418.753	0.4
419.21	0.4
419.667	0.4
420.124	0.4
420.581	0.4
421.038	0.4
421.495	0.4
421.952	0.4
422.409	0.4
422.866	0.4
423.322	0.4
423.779	0.4
424.236	0.4
424.693	0.4
425.149	0.4
425.606	0.4
426.063	0.4
426.519	0.39
426.976	0.39
427.433	0.39
427.889	0.39
428.346	0.4
428.802	0.4
429.258	0.4
429.715	0.4
430.171	0.4
430.628	0.4
431.084	0.4
431.54	0.4
431.997	0.4
432.453	0.4
432.909	0.39
433.365	0.39
433.821	0.39
434.277	0.39
434.734	0.39
435.19	0.39
435.646	0.39
436.102	0.39
436.558	0.39
437.014	0.39
437.47	0.39
437.925	0.39
438.381	0.39
438.837	0.39
439.293	0.39
439.749	0.39
440.205	0.39
440.66	0.39
441.116	0.39
441.572	0.39
442.027	0.39
442.483	0.39
442.939	0.39
443.394	0.39
443.85	0.39
444.305	0.39
444.761	0.39
445.216	0.39
445.672	0.39
446.127	0.39
446.582	0.39
447.038	0.39
447.493	0.39
447.948	0.39
448.403	0.39
448.859	0.39
449.314	0.39
449.769	0.39
450.224	0.38
450.679	0.38
451.134	0.38
451.589	0.38
452.044	0.38
452.499	0.38
452.954	0.38
453.409	0.38
453.864	0.38
454.319	0.38
454.774	0.38
455.229	0.38
455.684	0.38
456.138	0.38
456.593	0.37
457.048	0.37
457.503	0.37
457.957	0.37
458.412	0.37
458.866	0.37
459.321	0.37
459.776	0.37
460.23	0.37
460.685	0.37
461.139	0.37
461.593	0.37
462.048	0.37
462.502	0.37
462.957	0.37
463.411	0.37
463.865	0.37
464.319	0.37
464.774	0.37
465.228	0.37
465.682	0.37
466.136	0.37
466.59	0.37
467.044	0.37
467.499	0.37
467.953	0.37
468.407	0.36
468.861	0.36
469.315	0.36
469.768	0.36
470.222	0.36
470.676	0.36
471.13	0.36
471.584	0.36
472.038	0.36
472.491	0.36
472.945	0.36
473.399	0.36
473.852	0.36
474.306	0.36
474.76	0.36
475.213	0.36
475.667	0.36
476.12	0.36
476.574	0.36
477.027	0.36
477.481	0.36
477.934	0.36
478.388	0.36
478.841	0.36
479.294	0.36
479.748	0.36
480.201	0.36
480.654	0.36
481.107	0.36
481.561	0.36
482.014	0.36
482.467	0.37
482.92	0.37
483.373	0.37
483.826	0.37
484.279	0.37
484.732	0.38
485.185	0.38
485.638	0.38
486.091	0.38
486.544	0.38
486.997	0.38
487.449	0.38
487.902	0.38
488.355	0.38
488.808	0.37
489.26	0.37
489.713	0.37
490.166	0.37
490.618	0.37
491.071	0.37
491.523	0.37
491.976	0.37
492.429	0.37
492.881	0.37
493.333	0.37
493.786	0.37
494.238	0.37
494.691	0.38
495.143	0.38
495.595	0.38
496.048	0.38
496.5	0.38
496.952	0.38
497.404	0.38
497.856	0.38
498.309	0.38
498.761	0.38
499.213	0.38
499.665	0.38
500.117	0.38
500.569	0.39
501.021	0.39
501.473	0.39
501.925	0.39
502.377	0.39
502.828	0.39
503.28	0.4
503.732	0.4
504.184	0.4
504.636	0.4
505.087	0.4
505.539	0.4
505.991	0.4
506.442	0.4
506.894	0.4
507.345	0.4
507.797	0.4
508.249	0.4
508.7	0.4
509.151	0.41
509.603	0.41
510.054	0.41
510.506	0.41
510.957	0.41
511.408	0.41
511.86	0.41
512.311	0.41
512.762	0.41
513.213	0.41
513.665	0.41
514.116	0.41
514.567	0.41
515.018	0.41
515.469	0.41
515.92	0.41
516.371	0.41
516.822	0.41
517.273	0.41
517.724	0.41
518.175	0.41
518.626	0.41
519.076	0.41
519.527	0.41
519.978	0.41
520.429	0.4
520.88	0.4
521.33	0.4
521.781	0.4
522.232	0.4
522.682	0.4
523.133	0.4
523.583	0.4
524.034	0.4
524.484	0.41
524.935	0.41
525.385	0.42
525.836	0.42
526.286	0.43
526.736	0.43
527.187	0.44
527.637	0.44
528.087	0.45
528.538	0.45
528.988	0.45
529.438	0.45
529.888	0.45
530.338	0.46
530.788	0.46
531.238	0.46
531.688	0.46
532.139	0.46
532.589	0.46
533.038	0.47
533.488	0.47
533.938	0.47
534.388	0.47
534.838	0.47
535.288	0.47
535.738	0.48
536.187	0.48
536.637	0.48
537.087	0.48
537.537	0.48
537.986	0.48
538.436	0.48
538.885	0.49
539.335	0.49
539.785	0.49
540.234	0.49
540.684	0.49
541.133	0.49
541.582	0.49
542.032	0.49
542.481	0.49
542.931	0.49
543.38	0.5
543.829	0.5
544.278	0.5
544.728	0.5
545.177	0.5
545.626	0.51
546.075	0.51
546.524	0.51
546.973	0.51
547.422	0.51
547.871	0.51
548.32	0.51
548.769	0.51
549.218	0.51
549.667	0.51
550.116	0.51
550.565	0.51
551.014	0.51
551.463	0.52
551.911	0.52
552.36	0.52
552.809	0.52
553.258	0.52
553.706	0.52
554.155	0.53
554.603	0.53
555.052	0.53
555.501	0.53
555.949	0.52
556.398	0.52
556.846	0.52
557.294	0.52
557.743	0.52
558.191	0.52
558.64	0.52
559.088	0.53
559.536	0.53
559.985	0.53
560.433	0.53
560.881	0.53
561.329	0.54
561.777	0.54
562.225	0.54
562.674	0.54
563.122	0.54
563.57	0.54
564.018	0.54
564.466	0.54
564.914	0.54
565.362	0.54
565.809	0.54
566.257	0.54
566.705	0.54
567.153	0.55
567.601	0.55
568.048	0.56
568.496	0.56
568.944	0.57
569.392	0.57
569.839	0.58
570.287	0.58
570.734	0.59
571.182	0.59
571.63	0.59
572.077	0.6
572.525	0.6
572.972	0.6
573.419	0.61
573.867	0.61
574.314	0.61
574.761	0.61
575.209	0.61
575.656	0.61
576.103	0.62
576.551	0.62
576.998	0.62
577.445	0.62
577.892	0.62
578.339	0.62
578.786	0.62
579.233	0.62
579.68	0.62
580.127	0.62
580.574	0.62
581.021	0.62
581.468	0.62
581.915	0.62
582.362	0.62
582.809	0.62
583.255	0.62
583.702	0.62
584.149	0.61
584.596	0.61
585.042	0.61
585.489	0.6
585.936	0.6
586.382	0.6
586.829	0.6
587.275	0.6
587.722	0.6
588.168	0.59
588.615	0.59
589.061	0.59
589.508	0.58
589.954	0.58
590.4	0.58
590.847	0.58
591.293	0.58
591.739	0.58
592.185	0.58
592.632	0.58
593.078	0.58
593.524	0.58
593.97	0.58
594.416	0.57
594.862	0.57
595.308	0.57
595.754	0.57
596.2	0.57
596.646	0.57
597.092	0.57
597.538	0.57
597.984	0.57
598.43	0.57
598.876	0.57
599.321	0.57
599.767	0.57
600.213	0.57
600.659	0.56
601.104	0.56
601.55	0.56
601.995	0.55
602.441	0.55
602.887	0.55
603.332	0.55
603.778	0.54
604.223	0.54
604.668	0.54
605.114	0.55
605.559	0.55
606.005	0.55
606.45	0.54
606.895	0.54
607.341	0.54
607.786	0.54
608.231	0.53
608.676	0.53
609.121	0.53
609.566	0.52
610.012	0.52
610.457	0.52
610.902	0.51
611.347	0.51
611.792	0.51
612.237	0.51
612.682	0.51
613.127	0.51
613.571	0.51
614.016	0.51
614.461	0.5
614.906	0.5
615.351	0.5
615.795	0.5
616.24	0.49
616.685	0.49
617.129	0.49
617.574	0.48
618.019	0.48
618.463	0.47
618.908	0.47
619.352	0.47
619.797	0.47
620.241	0.47
620.686	0.47
621.13	0.46
621.574	0.46
622.019	0.46
622.463	0.46
622.907	0.46
623.352	0.46
623.796	0.46
624.24	0.45
624.684	0.45
625.128	0.45
625.572	0.45
626.016	0.45
626.461	0.45
626.905	0.44
627.349	0.44
627.793	0.44
628.236	0.44
628.68	0.44
629.124	0.44
629.568	0.43
630.012	0.43
630.456	0.43
630.9	0.43
631.343	0.43
631.787	0.42
632.231	0.42
632.674	0.42
633.118	0.42
633.562	0.42
634.005	0.42
634.449	0.42
634.892	0.42
635.336	0.41
635.779	0.41
636.223	0.41
636.666	0.41
637.109	0.41
637.553	0.41
637.996	0.41
638.439	0.41
638.883	0.41
639.326	0.41
639.769	0.41
640.212	0.41
640.655	0.41
641.099	0.41
641.542	0.41
641.985	0.41
642.428	0.41
642.871	0.41
643.314	0.41
643.757	0.41
644.2	0.41
644.643	0.41
645.085	0.41
645.528	0.41
645.971	0.41
646.414	0.41
646.857	0.41
647.299	0.41
647.742	0.41
648.185	0.41
648.627	0.41
649.07	0.42
649.513	0.42
649.955	0.42
650.398	0.42
650.84	0.42
651.283	0.42
651.725	0.42
652.168	0.42
652.61	0.42
653.052	0.43
653.495	0.42
653.937	0.35
654.379	0.31
654.821	0.32
655.264	0.32
655.706	0.32
656.148	0.32
656.59	0.32
657.032	0.32
657.474	0.33
657.916	0.32
658.358	0.32
658.8	0.38
659.242	0.45
659.684	0.44
660.126	0.44
660.568	0.44
661.01	0.44
661.452	0.44
661.894	0.45
662.335	0.45
662.777	0.45
663.219	0.45
663.661	0.45
664.102	0.45
664.544	0.45
664.985	0.46
665.427	0.46
665.869	0.46
666.31	0.46
666.752	0.46
667.193	0.46
667.634	0.47
668.076	0.47
668.517	0.47
668.959	0.47
669.4	0.47
669.841	0.48
670.282	0.48
670.724	0.48
671.165	0.48
671.606	0.49
672.047	0.49
672.488	0.49
672.929	0.49
673.37	0.49
673.811	0.49
674.252	0.49
674.693	0.49
675.134	0.49
675.575	0.5
676.016	0.5
676.457	0.5
676.898	0.5
677.339	0.5
677.78	0.5
678.22	0.5
678.661	0.51
679.102	0.51
679.542	0.51
679.983	0.51
680.424	0.51
680.864	0.51
681.305	0.51
681.745	0.51
682.186	0.51
682.626	0.52
683.067	0.52
683.507	0.52
683.948	0.52
684.388	0.53
684.828	0.53
685.269	0.53
685.709	0.53
686.149	0.53
686.589	0.53
687.029	0.53
687.47	0.54
687.91	0.54
688.35	0.54
688.79	0.54
689.23	0.54
689.67	0.54
690.11	0.54
690.55	0.55
690.99	0.55
691.43	0.55
691.87	0.55
692.31	0.55
692.749	0.55
693.189	0.55
693.629	0.56
694.069	0.56
694.508	0.56
694.948	0.56
695.388	0.56
695.827	0.57
696.267	0.57
696.706	0.57
697.146	0.57
697.586	0.57
698.025	0.57
698.464	0.57
698.904	0.57
699.343	0.57
699.783	0.57
700.222	0.57
700.661	0.57
701.101	0.58
701.54	0.58
701.979	0.58
702.418	0.58
702.857	0.58
703.297	0.58
703.736	0.58
704.175	0.58
704.614	0.59
705.053	0.59
705.492	0.59
705.931	0.59
706.37	0.59
706.809	0.59
707.248	0.59
707.687	0.59
708.125	0.59
708.564	0.6
709.003	0.6
709.442	0.6
709.88	0.6
710.319	0.6
710.758	0.6
711.196	0.6
711.635	0.6
712.074	0.6
712.512	0.6
712.951	0.6
713.389	0.6
713.828	0.6
714.266	0.6
714.705	0.6
715.143	0.6
715.581	0.6
716.02	0.6
716.458	0.6
716.896	0.6
717.334	0.6
717.773	0.6
718.211	0.6
718.649	0.6
719.087	0.6
719.525	0.6
719.963	0.6
720.401	0.6
720.839	0.6
721.277	0.6
721.715	0.6
722.153	0.59
722.591	0.59
723.029	0.59
723.467	0.59
723.905	0.59
724.342	0.59
724.78	0.59
725.218	0.59
725.656	0.59
726.093	0.59
726.531	0.59
726.969	0.59
727.406	0.59
727.844	0.59
728.281	0.59
728.719	0.59
729.156	0.6
729.594	0.6
730.031	0.6
730.469	0.6
730.906	0.6
731.343	0.6
731.781	0.6
732.218	0.6
732.655	0.6
733.092	0.6
733.53	0.6
733.967	0.6
734.404	0.6
734.841	0.6
735.278	0.6
735.715	0.59
736.152	0.59
736.589	0.59
737.026	0.59
737.463	0.59
737.9	0.59
738.337	0.59
738.774	0.58
739.211	0.58
739.647	0.58
740.084	0.58
740.521	0.58
740.958	0.58
741.394	0.57
741.831	0.57
742.268	0.57
742.704	0.56
743.141	0.56
743.577	0.56
744.014	0.55
744.45	0.55
744.887	0.55
745.323	0.55
745.76	0.54
746.196	0.54
746.632	0.54
747.069	0.54
747.505	0.54
747.941	0.54
748.378	0.54
748.814	0.54
749.25	0.54
749.686	0.54
750.122	0.54
750.558	0.54
750.994	0.55
751.43	0.55
751.866	0.55
752.302	0.55
752.738	0.55
753.174	0.55
753.61	0.55
754.046	0.55
754.482	0.55
754.918	0.55
755.354	0.55
755.789	0.55
756.225	0.55
756.661	0.55
757.096	0.55
757.532	0.55
757.968	0.55
758.403	0.55
758.839	0.55
759.274	0.54
759.71	0.54
760.145	0.53
760.581	0.53
761.016	0.52
761.452	0.52
761.887	0.52
762.322	0.51
762.758	0.51
763.193	0.51
763.628	0.5
764.063	0.5
764.499	0.49
764.934	0.49
765.369	0.49
765.804	0.48
766.239	0.48
766.674	0.48
767.109	0.47
767.544	0.46
767.979	0.46
768.414	0.45
768.849	0.45
769.284	0.44
769.719	0.44
770.154	0.44
770.588	0.43
771.023	0.42
771.458	0.42
771.893	0.41
772.327	0.4
772.762	0.4
773.197	0.39
773.631	0.38
774.066	0.37
774.5	0.37
774.935	0.36
775.369	0.35
775.804	0.34
776.238	0.33
776.673	0.33
777.107	0.32
777.541	0.31
777.976	0.3
778.41	0.29
778.844	0.28
779.279	0.27
779.713	0.26
780.147	0.25
780.581	0.24
781.015	0.23
781.449	0.22
781.883	0.2
782.317	0.18
782.751	0.17
783.185	0.15
783.619	0.13
784.053	0.11
784.487	0.09
784.921	0.07
785.355	0.05
785.789	0.03
786.223	0.02
786.656	0.01
787.09	-0
787.524	-0.01
787.957	-0.03
788.391	-0.04
788.825	-0.04
789.258	-0.05
789.692	-0.05
790.125	-0.05
790.559	-0.05
790.992	-0.06
791.426	-0.06
791.859	-0.06
792.293	-0.05
792.726	-0.04
793.159	-0.04
793.593	-0.04
794.026	-0.04
794.459	-0.04
794.892	-0.05
795.326	-0.05
795.759	-0.05
796.192	-0.05
796.625	-0.06
797.058	-0.06
797.491	-0.07
797.924	-0.08
798.357	-0.08
798.79	-0.08
799.223	-0.08
799.656	-0.08
800.089	-0.08
800.522	-0.08
800.955	-0.09
801.387	-0.09
801.82	-0.09
802.253	-0.09
802.686	-0.09
803.118	-0.09
803.551	-0.09
803.984	-0.08
804.416	-0.08
804.849	-0.07
805.281	-0.07
805.714	-0.07
806.146	-0.07
806.579	-0.07
807.011	-0.07
807.444	-0.07
807.876	-0.07
808.308	-0.07
808.741	-0.07
809.173	-0.07
809.605	-0.08
810.037	-0.08
810.47	-0.08
810.902	-0.08
811.334	-0.08
811.766	-0.08
812.198	-0.08
812.63	-0.08
813.062	-0.08
813.494	-0.08
813.926	-0.08
814.358	-0.08
814.79	-0.07
815.222	-0.07
815.654	-0.07
816.086	-0.07
816.518	-0.08
816.949	-0.08
817.381	-0.08
817.813	-0.07
818.245	-0.06
818.676	-0.05
819.108	-0.03
819.54	-0.02
819.971	-0.01
820.403	0.01
820.834	0.03
821.266	0.05
821.697	0.07
822.129	0.09
822.56	0.11
822.991	0.13
823.423	0.14
823.854	0.15
824.286	0.17
824.717	0.19
825.148	0.2
825.579	0.22
826.01	0.23
826.442	0.25
826.873	0.26
827.304	0.27
827.735	0.28
828.166	0.29
828.597	0.3
829.028	0.3
829.459	0.31
829.89	0.31
830.321	0.32
830.752	0.33
831.183	0.33
831.613	0.34
832.044	0.34
832.475	0.35
832.906	0.35
833.336	0.36
833.767	0.36
834.198	0.36
834.628	0.37
835.059	0.37
835.49	0.37
835.92	0.37
836.351	0.38
836.781	0.38
837.212	0.38
837.642	0.38
838.072	0.38
838.503	0.39
838.933	0.39
839.364	0.39
839.794	0.39
840.224	0.39
840.654	0.39
841.085	0.39
841.515	0.39
841.945	0.39
842.375	0.39
842.805	0.39
843.235	0.39
843.665	0.39
844.095	0.39
844.525	0.39
844.955	0.39
845.385	0.39
845.815	0.39
846.245	0.39
846.675	0.39
847.105	0.39
847.534	0.39
847.964	0.39
848.394	0.4
848.824	0.4
849.253	0.4
849.683	0.4
850.112	0.4
850.542	0.4
850.972	0.4
851.401	0.4
851.831	0.4
852.26	0.4
852.69	0.4
853.119	0.4
853.548	0.4
853.978	0.4
854.407	0.4
854.836	0.4
855.266	0.4
855.695	0.4
856.124	0.4
856.553	0.4
856.983	0.4
857.412	0.4
857.841	0.4
858.27	0.4
858.699	0.39
859.128	0.39
859.557	0.39
859.986	0.39
860.415	0.39
860.844	0.39
861.273	0.39
861.702	0.39
862.13	0.39
862.559	0.39
862.988	0.39
863.417	0.39
863.845	0.39
864.274	0.39
864.703	0.39
865.131	0.38
865.56	0.38
865.989	0.38
866.417	0.38
866.846	0.38
867.274	0.38
867.703	0.38
868.131	0.38
868.559	0.38
868.988	0.38
869.416	0.38
869.844	0.38
870.273	0.38
870.701	0.38
871.129	0.38
871.557	0.38
871.986	0.38
872.414	0.38
872.842	0.38
873.27	0.37
873.698	0.37
874.126	0.37
874.554	0.37
874.982	0.37
875.41	0.37
875.838	0.37
876.266	0.37
876.694	0.37
877.122	0.37
877.549	0.37
877.977	0.37
878.405	0.37
878.833	0.37
879.26	0.37
879.688	0.37
880.116	0.37
880.543	0.37
880.971	0.37
881.399	0.36
881.826	0.36
882.254	0.36
882.681	0.36
883.109	0.36
883.536	0.36
883.963	0.36
884.391	0.36
884.818	0.36
885.245	0.36
885.673	0.36
886.1	0.36
886.527	0.36
886.954	0.36
887.381	0.36
887.809	0.36
888.236	0.36
888.663	0.36
889.09	0.36
889.517	0.36
889.944	0.36
890.371	0.36
890.798	0.36
891.225	0.35
891.652	0.35
892.078	0.35
892.505	0.35
892.932	0.35
893.359	0.35
893.786	0.35
894.212	0.35
894.639	0.35
895.066	0.35
895.492	0.35
895.919	0.35
896.346	0.35
896.772	0.35
897.199	0.35
897.625	0.35
898.052	0.34
898.478	0.34
898.904	0.34
899.331	0.34
899.757	0.34
900.183	0.34
900.61	0.34
901.036	0.34
901.462	0.34
901.888	0.34
902.315	0.34
902.741	0.34
903.167	0.34
903.593	0.34
904.019	0.34
904.445	0.34
904.871	0.34
905.297	0.34
905.723	0.33
906.149	0.33
906.575	0.33
907.001	0.33
907.427	0.33
907.852	0.33
908.278	0.33
908.704	0.33
909.13	0.33
909.555	0.33
909.981	0.33
910.407	0.33
910.832	0.33
911.258	0.33
911.684	0.33
912.109	0.33
912.535	0.33
912.96	0.33
913.386	0.33
913.811	0.33
914.236	0.33
914.662	0.33
915.087	0.33
915.512	0.33
915.938	0.33
916.363	0.33
916.788	0.33
917.213	0.33
917.639	0.32
918.064	0.32
918.489	0.32
918.914	0.32
919.339	0.32
919.764	0.32
920.189	0.32
920.614	0.32
921.039	0.32
921.464	0.32
921.889	0.32
922.314	0.32
922.738	0.31
923.163	0.31
923.588	0.31
924.013	0.31
924.437	0.31
924.862	0.31
925.287	0.31
925.711	0.31
926.136	0.31
926.561	0.31
926.985	0.31
927.41	0.31
927.834	0.31
928.259	0.31
928.683	0.31
929.108	0.31
929.532	0.31
929.956	0.3
930.381	0.3
930.805	0.3
931.229	0.3
931.653	0.3
932.078	0.3
932.502	0.3
932.926	0.29
933.35	0.29
933.774	0.29
934.198	0.29
934.622	0.29
935.046	0.29
935.47	0.29
935.894	0.29
936.318	0.29
936.742	0.29
937.166	0.29
937.59	0.29
938.014	0.29
938.437	0.29
938.861	0.29
939.285	0.29
939.709	0.29
940.132	0.29
940.556	0.29
940.98	0.29
941.403	0.29
941.827	0.29
942.25	0.29
942.674	0.29
943.097	0.29
943.521	0.29
943.944	0.29
944.368	0.29
944.791	0.29
945.214	0.29
945.638	0.29
946.061	0.29
946.484	0.28
946.907	0.28
947.331	0.28
947.754	0.28
948.177	0.28
948.6	0.28
949.023	0.28
949.446	0.28
949.869	0.28
950.292	0.28
950.715	0.27
951.138	0.27
951.561	0.27
951.984	0.27
952.407	0.27
952.83	0.27
953.252	0.27
953.675	0.27
954.098	0.27
954.521	0.27
954.943	0.27
955.366	0.27
955.789	0.27
956.211	0.27
956.634	0.27
957.056	0.27
957.479	0.27
957.902	0.27
958.324	0.27
958.746	0.27
959.169	0.27
959.591	0.26
960.014	0.26
960.436	0.26
960.858	0.26
961.281	0.26
961.703	0.26
962.125	0.26
962.547	0.26
962.969	0.26
963.391	0.26
963.814	0.26
964.236	0.26
964.658	0.26
965.08	0.27
965.502	0.27
965.924	0.27
966.346	0.27
966.768	0.27
967.189	0.26
967.611	0.26
968.033	0.26
968.455	0.26
968.877	0.26
969.298	0.26
969.72	0.26
970.142	0.26
970.563	0.26
970.985	0.26
971.407	0.26
971.828	0.26
972.25	0.26
972.671	0.26
973.093	0.26
973.514	0.26
973.936	0.26
974.357	0.26
974.778	0.26
975.2	0.26
975.621	0.26
976.042	0.26
976.464	0.26
976.885	0.26
977.306	0.26
977.727	0.25
978.148	0.25
978.57	0.25
978.991	0.25
979.412	0.25
979.833	0.25
980.254	0.25
980.675	0.25
981.096	0.25
981.517	0.25
981.937	0.24
982.358	0.24
982.779	0.24
983.2	0.24
983.621	0.24
984.042	0.24
984.462	0.24
984.883	0.24
985.304	0.24
985.724	0.24
986.145	0.24
986.565	0.24
986.986	0.24
987.407	0.24
987.827	0.24
988.248	0.24
988.668	0.24
989.088	0.24
989.509	0.24
989.929	0.24
990.35	0.24
990.77	0.24
991.19	0.24
991.61	0.24
992.031	0.24
992.451	0.23
992.871	0.23
993.291	0.23
993.711	0.23
994.131	0.23
994.551	0.23
994.971	0.23
995.391	0.23
995.811	0.23
996.231	0.23
996.651	0.23
997.071	0.23
997.491	0.23
997.911	0.23
998.331	0.23
998.75	0.23
999.17	0.23
999.59	0.23
1000.009	0.23
1000.429	0.23
1000.849	0.23
1001.268	0.23
1001.688	0.23
1002.107	0.23
1002.527	0.23
1002.946	0.23
1003.366	0.23
1003.785	0.23
1004.205	0.23
1004.624	0.23
1005.044	0.23
1005.463	0.23
1005.882	0.23
1006.301	0.22
1006.721	0.22
1007.14	0.22
1007.559	0.22
1007.978	0.22
1008.397	0.22
1008.816	0.22
1009.235	0.22
1009.655	0.22
1010.074	0.22
1010.492	0.22
1010.911	0.22
1011.33	0.22
1011.749	0.22
1012.168	0.22
1012.587	0.22
1013.006	0.22
1013.425	0.22
1013.843	0.21
1014.262	0.21
1014.681	0.21
1015.099	0.21
1015.518	0.21
1015.937	0.21
1016.355	0.21
1016.774	0.21
1017.192	0.21
1017.611	0.21
1018.029	0.21
1018.448	0.21
1018.866	0.21
1019.285	0.21
1019.703	0.21
1020.121	0.21
1020.54	0.21
1020.958	0.21
1021.376	0.21
1021.794	0.22
1022.213	0.22
1022.631	0.22
1023.049	0.22
1023.467	0.22
1023.885	0.22
1024.303	0.22
1024.721	0.22
1025.139	0.22
1025.557	0.22
1025.975	0.22
1026.393	0.22
1026.811	0.22
1027.229	0.22
1027.647	0.22
1028.065	0.22
1028.482	0.22
1028.9	0.22
1029.318	0.22
1029.735	0.22
1030.153	0.23
1030.571	0.23
1030.988	0.23
1031.406	0.23
1031.823	0.23
1032.241	0.23
1032.659	0.23
1033.076	0.23
1033.493	0.23
1033.911	0.23
1034.328	0.22
1034.746	0.22
1035.163	0.22
1035.58	0.22
1035.997	0.22
1036.415	0.22
1036.832	0.22
1037.249	0.22
1037.666	0.22
1038.083	0.22
1038.501	0.22
1038.918	0.22
1039.335	0.22
1039.752	0.22
1040.169	0.22
1040.586	0.22
1041.003	0.22
1041.419	0.22
1041.836	0.22
1042.253	0.22
1042.67	0.22
1043.087	0.22
1043.504	0.21
1043.92	0.21
1044.337	0.21
1044.754	0.21
1045.17	0.21
1045.587	0.21
1046.004	0.21
1046.42	0.21
1046.837	0.21
1047.253	0.21
1047.67	0.21
1048.086	0.21
1048.503	0.21
1048.919	0.21
1049.335	0.21
1049.752	0.21
1050.168	0.21
1050.584	0.21
1051.001	0.21
1051.417	0.21
1051.833	0.21
1052.249	0.21
1052.665	0.21
1053.081	0.21
1053.497	0.21
1053.914	0.21
1054.33	0.22
1054.746	0.22
1055.162	0.22
1055.578	0.22
1055.993	0.22
1056.409	0.22
1056.825	0.22
1057.241	0.22
1057.657	0.22
1058.073	0.22
1058.488	0.22
1058.904	0.22
1059.32	0.22
1059.736	0.22
1060.151	0.22
1060.567	0.22
1060.982	0.22
1061.398	0.22
1061.813	0.22
1062.229	0.22
1062.644	0.22
1063.06	0.22
1063.475	0.22
1063.891	0.22
1064.306	0.22
1064.721	0.22
1065.137	0.22
1065.552	0.22
1065.967	0.22
1066.382	0.22
1066.798	0.22
1067.213	0.22
1067.628	0.22
1068.043	0.22
1068.458	0.22
1068.873	0.22
1069.288	0.22
1069.703	0.22
1070.118	0.22
1070.533	0.22
1070.948	0.22
1071.363	0.22
1071.778	0.22
1072.193	0.22
1072.607	0.23
1073.022	0.23
1073.437	0.23
1073.852	0.23
1074.266	0.23
1074.681	0.23
1075.096	0.23
1075.51	0.23
1075.925	0.23
1076.339	0.23
1076.754	0.23
1077.168	0.23
1077.583	0.23
1077.997	0.23
1078.412	0.23
1078.826	0.23
1079.24	0.24
1079.655	0.24
1080.069	0.24
1080.483	0.24
1080.897	0.24
1081.312	0.24
1081.726	0.24
1082.14	0.25
1082.554	0.25
1082.968	0.25
1083.382	0.25
1083.796	0.25
1084.21	0.26
1084.624	0.26
1085.038	0.26
1085.452	0.26
1085.866	0.27
1086.28	0.27
1086.694	0.27
1087.108	0.27
1087.521	0.28
1087.935	0.28
1088.349	0.28
1088.763	0.29
1089.176	0.29
1089.59	0.29
1090.004	0.3
1090.417	0.31
1090.831	0.31
1091.244	0.32
1091.658	0.32
1092.071	0.33
1092.485	0.34
1092.898	0.35
1093.312	0.36
1093.725	0.36
1094.138	0.37
1094.552	0.38
1094.965	0.39
1095.378	0.41
1095.791	0.42
1096.205	0.43
1096.618	0.45
1097.031	0.47
1097.444	0.48
1097.857	0.5
1098.27	0.52
1098.683	0.54
1099.096	0.57
1099.509	0.6
1099.922	0.63
1100.335	0.66
1100.748	0.71
1101.161	0.76
1101.574	0.82
1101.986	0.9
1102.399	1
1102.812	1.14
1103.225	1.37
1103.637	1.94
1104.05	-0
1104.463	-0
1104.875	-0
1105.288	-0
1105.7	-0
1106.113	-0
1106.525	-0
1106.938	-0
1107.35	-0
1107.763	-0
1108.175	-0
1108.588	-0
1109	-0
1109.412	-0
1109.824	-0
1110.237	-0
1110.649	-0
1111.061	-0
