Data from unagg-15c-2a-1h_Absorbance__90__00517.txt Node

Date: Mon May 06 09:35:44 CEST 2024
User: Laser008
Spectrometer: MAYP115816
Trigger mode: 0
Integration Time (sec): 2.000000E-1
Scans to average: 10
Electric dark correction enabled: true
Nonlinearity correction enabled: true
Boxcar width: 5
XAxis mode: Wavelengths
Number of Pixels in Spectrum: 2068
>>>>>Begin Spectral Data<<<<<
198.914	-1.94
199.384	-1.79
199.855	-1.64
200.325	-1.52
200.796	-1.44
201.266	-1.39
201.737	-1.32
202.207	-1.25
202.677	-1.2
203.147	-1.16
203.618	-1.13
204.088	-1.1
204.558	-1.08
205.028	-1.07
205.498	-1.07
205.968	-1.06
206.439	-1.06
206.909	-1.06
207.379	-1.05
207.849	-1.05
208.319	-1.05
208.789	-1.05
209.258	-1.04
209.728	-1.04
210.198	-1.04
210.668	-1.04
211.138	-1.04
211.608	-1.04
212.077	-1.04
212.547	-1.04
213.017	-1.04
213.486	-1.04
213.956	-1.03
214.426	-1.04
214.895	-1.03
215.365	-1.03
215.834	-1.03
216.304	-1.03
216.773	-1.02
217.243	-1.02
217.712	-1.02
218.181	-1.02
218.651	-1.01
219.12	-1.01
219.589	-1.01
220.058	-1.01
220.528	-1.01
220.997	-1
221.466	-1
221.935	-1
222.404	-0.99
222.873	-0.99
223.342	-0.98
223.812	-0.97
224.281	-0.97
224.749	-0.96
225.218	-0.95
225.687	-0.94
226.156	-0.92
226.625	-0.91
227.094	-0.9
227.563	-0.88
228.031	-0.86
228.5	-0.84
228.969	-0.81
229.438	-0.79
229.906	-0.75
230.375	-0.72
230.844	-0.68
231.312	-0.64
231.781	-0.6
232.249	-0.55
232.718	-0.51
233.186	-0.46
233.655	-0.41
234.123	-0.36
234.591	-0.31
235.06	-0.26
235.528	-0.22
235.996	-0.17
236.465	-0.13
236.933	-0.08
237.401	-0.04
237.869	-0
238.337	0.04
238.805	0.07
239.274	0.11
239.742	0.14
240.21	0.17
240.678	0.2
241.146	0.22
241.614	0.25
242.081	0.27
242.549	0.29
243.017	0.31
243.485	0.33
243.953	0.35
244.421	0.37
244.888	0.38
245.356	0.39
245.824	0.41
246.291	0.42
246.759	0.43
247.227	0.45
247.694	0.46
248.162	0.47
248.629	0.48
249.097	0.48
249.564	0.49
250.032	0.5
250.499	0.51
250.967	0.52
251.434	0.53
251.901	0.53
252.369	0.54
252.836	0.55
253.303	0.55
253.77	0.56
254.237	0.56
254.705	0.57
255.172	0.57
255.639	0.58
256.106	0.58
256.573	0.58
257.04	0.59
257.507	0.59
257.974	0.59
258.441	0.6
258.908	0.6
259.375	0.6
259.841	0.6
260.308	0.6
260.775	0.61
261.242	0.61
261.709	0.61
262.175	0.61
262.642	0.61
263.109	0.61
263.575	0.61
264.042	0.61
264.508	0.61
264.975	0.61
265.441	0.61
265.908	0.61
266.374	0.61
266.841	0.61
267.307	0.61
267.773	0.61
268.24	0.61
268.706	0.61
269.172	0.61
269.639	0.61
270.105	0.61
270.571	0.6
271.037	0.6
271.503	0.6
271.969	0.6
272.435	0.6
272.902	0.6
273.368	0.59
273.834	0.59
274.3	0.59
274.765	0.59
275.231	0.59
275.697	0.59
276.163	0.58
276.629	0.58
277.095	0.58
277.56	0.58
278.026	0.57
278.492	0.57
278.958	0.57
279.423	0.57
279.889	0.56
280.354	0.56
280.82	0.56
281.286	0.56
281.751	0.56
282.217	0.55
282.682	0.55
283.147	0.55
283.613	0.55
284.078	0.55
284.544	0.55
285.009	0.55
285.474	0.54
285.939	0.54
286.405	0.54
286.87	0.54
287.335	0.54
287.8	0.53
288.265	0.53
288.73	0.53
289.195	0.53
289.66	0.53
290.125	0.53
290.59	0.53
291.055	0.52
291.52	0.52
291.985	0.52
292.45	0.52
292.915	0.52
293.38	0.52
293.844	0.52
294.309	0.52
294.774	0.52
295.239	0.51
295.703	0.51
296.168	0.51
296.632	0.51
297.097	0.51
297.562	0.51
298.026	0.51
298.491	0.51
298.955	0.51
299.419	0.51
299.884	0.51
300.348	0.51
300.813	0.51
301.277	0.5
301.741	0.5
302.205	0.5
302.67	0.5
303.134	0.5
303.598	0.5
304.062	0.5
304.526	0.5
304.99	0.5
305.454	0.5
305.919	0.5
306.383	0.5
306.847	0.5
307.31	0.5
307.774	0.5
308.238	0.5
308.702	0.5
309.166	0.5
309.63	0.5
310.094	0.5
310.557	0.5
311.021	0.5
311.485	0.49
311.948	0.49
312.412	0.49
312.876	0.49
313.339	0.49
313.803	0.49
314.266	0.49
314.73	0.49
315.193	0.49
315.657	0.49
316.12	0.49
316.584	0.49
317.047	0.49
317.51	0.49
317.973	0.49
318.437	0.49
318.9	0.49
319.363	0.49
319.826	0.49
320.29	0.48
320.753	0.48
321.216	0.48
321.679	0.48
322.142	0.48
322.605	0.48
323.068	0.48
323.531	0.48
323.994	0.48
324.457	0.48
324.92	0.48
325.382	0.48
325.845	0.48
326.308	0.48
326.771	0.47
327.233	0.47
327.696	0.47
328.159	0.47
328.622	0.47
329.084	0.47
329.547	0.47
330.009	0.47
330.472	0.47
330.934	0.47
331.397	0.47
331.859	0.47
332.322	0.47
332.784	0.47
333.246	0.46
333.709	0.46
334.171	0.46
334.633	0.46
335.096	0.46
335.558	0.46
336.02	0.46
336.482	0.46
336.944	0.46
337.406	0.46
337.868	0.46
338.331	0.46
338.793	0.46
339.255	0.46
339.717	0.46
340.178	0.45
340.64	0.45
341.102	0.45
341.564	0.45
342.026	0.45
342.488	0.45
342.949	0.45
343.411	0.45
343.873	0.45
344.335	0.45
344.796	0.45
345.258	0.45
345.719	0.45
346.181	0.45
346.643	0.45
347.104	0.45
347.566	0.44
348.027	0.44
348.488	0.44
348.95	0.44
349.411	0.44
349.873	0.44
350.334	0.44
350.795	0.44
351.256	0.44
351.718	0.44
352.179	0.44
352.64	0.44
353.101	0.43
353.562	0.43
354.023	0.43
354.484	0.43
354.945	0.43
355.406	0.43
355.867	0.43
356.328	0.43
356.789	0.43
357.25	0.42
357.711	0.42
358.172	0.43
358.633	0.43
359.093	0.43
359.554	0.43
360.015	0.43
360.476	0.43
360.936	0.43
361.397	0.43
361.858	0.43
362.318	0.43
362.779	0.43
363.239	0.43
363.7	0.43
364.16	0.43
364.621	0.43
365.081	0.43
365.541	0.43
366.002	0.43
366.462	0.43
366.922	0.43
367.383	0.43
367.843	0.43
368.303	0.43
368.763	0.43
369.223	0.43
369.684	0.43
370.144	0.43
370.604	0.43
371.064	0.43
371.524	0.43
371.984	0.43
372.444	0.43
372.904	0.43
373.363	0.43
373.823	0.43
374.283	0.43
374.743	0.43
375.203	0.43
375.663	0.43
376.122	0.43
376.582	0.43
377.042	0.43
377.501	0.43
377.961	0.43
378.42	0.43
378.88	0.43
379.34	0.43
379.799	0.43
380.259	0.43
380.718	0.43
381.177	0.43
381.637	0.43
382.096	0.43
382.555	0.43
383.015	0.43
383.474	0.43
383.933	0.43
384.393	0.43
384.852	0.43
385.311	0.43
385.77	0.43
386.229	0.43
386.688	0.43
387.147	0.43
387.606	0.43
388.065	0.43
388.524	0.43
388.983	0.43
389.442	0.43
389.901	0.43
390.36	0.43
390.819	0.43
391.277	0.43
391.736	0.43
392.195	0.43
392.654	0.43
393.112	0.43
393.571	0.43
394.03	0.43
394.488	0.43
394.947	0.43
395.405	0.43
395.864	0.43
396.322	0.43
396.781	0.43
397.239	0.43
397.698	0.43
398.156	0.43
398.614	0.43
399.073	0.43
399.531	0.43
399.989	0.43
400.447	0.43
400.905	0.43
401.364	0.43
401.822	0.42
402.28	0.42
402.738	0.42
403.196	0.42
403.654	0.42
404.112	0.42
404.57	0.42
405.028	0.42
405.486	0.42
405.944	0.42
406.402	0.42
406.859	0.42
407.317	0.42
407.775	0.42
408.233	0.42
408.691	0.42
409.148	0.42
409.606	0.42
410.064	0.42
410.521	0.42
410.979	0.42
411.436	0.42
411.894	0.42
412.351	0.42
412.809	0.42
413.266	0.42
413.724	0.42
414.181	0.42
414.638	0.41
415.096	0.41
415.553	0.41
416.01	0.41
416.467	0.41
416.925	0.41
417.382	0.41
417.839	0.41
418.296	0.41
418.753	0.41
419.21	0.41
419.667	0.41
420.124	0.41
420.581	0.42
421.038	0.42
421.495	0.42
421.952	0.42
422.409	0.42
422.866	0.42
423.322	0.42
423.779	0.42
424.236	0.41
424.693	0.41
425.149	0.41
425.606	0.41
426.063	0.41
426.519	0.41
426.976	0.41
427.433	0.41
427.889	0.41
428.346	0.41
428.802	0.41
429.258	0.41
429.715	0.41
430.171	0.41
430.628	0.41
431.084	0.41
431.54	0.41
431.997	0.41
432.453	0.41
432.909	0.41
433.365	0.41
433.821	0.41
434.277	0.41
434.734	0.41
435.19	0.41
435.646	0.41
436.102	0.41
436.558	0.4
437.014	0.4
437.47	0.4
437.925	0.4
438.381	0.4
438.837	0.4
439.293	0.4
439.749	0.4
440.205	0.4
440.66	0.4
441.116	0.4
441.572	0.4
442.027	0.4
442.483	0.4
442.939	0.4
443.394	0.4
443.85	0.4
444.305	0.4
444.761	0.4
445.216	0.4
445.672	0.4
446.127	0.4
446.582	0.4
447.038	0.4
447.493	0.4
447.948	0.4
448.403	0.4
448.859	0.4
449.314	0.4
449.769	0.4
450.224	0.4
450.679	0.4
451.134	0.4
451.589	0.4
452.044	0.4
452.499	0.4
452.954	0.39
453.409	0.39
453.864	0.39
454.319	0.39
454.774	0.39
455.229	0.39
455.684	0.39
456.138	0.39
456.593	0.39
457.048	0.39
457.503	0.39
457.957	0.39
458.412	0.39
458.866	0.39
459.321	0.39
459.776	0.39
460.23	0.39
460.685	0.39
461.139	0.38
461.593	0.38
462.048	0.38
462.502	0.38
462.957	0.38
463.411	0.38
463.865	0.38
464.319	0.38
464.774	0.38
465.228	0.38
465.682	0.38
466.136	0.38
466.59	0.38
467.044	0.38
467.499	0.38
467.953	0.38
468.407	0.38
468.861	0.38
469.315	0.37
469.768	0.37
470.222	0.37
470.676	0.37
471.13	0.37
471.584	0.37
472.038	0.37
472.491	0.37
472.945	0.37
473.399	0.37
473.852	0.37
474.306	0.37
474.76	0.37
475.213	0.37
475.667	0.37
476.12	0.37
476.574	0.37
477.027	0.38
477.481	0.38
477.934	0.37
478.388	0.37
478.841	0.37
479.294	0.37
479.748	0.38
480.201	0.38
480.654	0.38
481.107	0.38
481.561	0.38
482.014	0.38
482.467	0.38
482.92	0.38
483.373	0.38
483.826	0.39
484.279	0.39
484.732	0.39
485.185	0.39
485.638	0.39
486.091	0.39
486.544	0.39
486.997	0.39
487.449	0.39
487.902	0.39
488.355	0.39
488.808	0.39
489.26	0.39
489.713	0.39
490.166	0.38
490.618	0.38
491.071	0.38
491.523	0.38
491.976	0.38
492.429	0.38
492.881	0.39
493.333	0.39
493.786	0.39
494.238	0.39
494.691	0.39
495.143	0.39
495.595	0.4
496.048	0.4
496.5	0.4
496.952	0.4
497.404	0.4
497.856	0.4
498.309	0.4
498.761	0.4
499.213	0.4
499.665	0.4
500.117	0.4
500.569	0.4
501.021	0.41
501.473	0.41
501.925	0.41
502.377	0.41
502.828	0.41
503.28	0.41
503.732	0.41
504.184	0.42
504.636	0.42
505.087	0.42
505.539	0.42
505.991	0.42
506.442	0.42
506.894	0.42
507.345	0.42
507.797	0.42
508.249	0.42
508.7	0.42
509.151	0.42
509.603	0.42
510.054	0.42
510.506	0.42
510.957	0.42
511.408	0.42
511.86	0.43
512.311	0.43
512.762	0.43
513.213	0.43
513.665	0.43
514.116	0.42
514.567	0.42
515.018	0.42
515.469	0.43
515.92	0.43
516.371	0.43
516.822	0.43
517.273	0.43
517.724	0.43
518.175	0.43
518.626	0.43
519.076	0.43
519.527	0.43
519.978	0.42
520.429	0.42
520.88	0.42
521.33	0.42
521.781	0.41
522.232	0.41
522.682	0.41
523.133	0.41
523.583	0.42
524.034	0.42
524.484	0.42
524.935	0.43
525.385	0.43
525.836	0.44
526.286	0.45
526.736	0.45
527.187	0.46
527.637	0.46
528.087	0.46
528.538	0.47
528.988	0.47
529.438	0.47
529.888	0.47
530.338	0.47
530.788	0.48
531.238	0.48
531.688	0.48
532.139	0.48
532.589	0.48
533.038	0.49
533.488	0.49
533.938	0.49
534.388	0.49
534.838	0.49
535.288	0.49
535.738	0.5
536.187	0.5
536.637	0.5
537.087	0.5
537.537	0.5
537.986	0.5
538.436	0.5
538.885	0.51
539.335	0.51
539.785	0.51
540.234	0.51
540.684	0.51
541.133	0.51
541.582	0.51
542.032	0.51
542.481	0.51
542.931	0.52
543.38	0.52
543.829	0.52
544.278	0.52
544.728	0.52
545.177	0.52
545.626	0.53
546.075	0.53
546.524	0.53
546.973	0.53
547.422	0.53
547.871	0.53
548.32	0.53
548.769	0.53
549.218	0.53
549.667	0.53
550.116	0.53
550.565	0.53
551.014	0.53
551.463	0.54
551.911	0.54
552.36	0.54
552.809	0.54
553.258	0.54
553.706	0.55
554.155	0.55
554.603	0.55
555.052	0.55
555.501	0.55
555.949	0.54
556.398	0.54
556.846	0.54
557.294	0.54
557.743	0.54
558.191	0.54
558.64	0.54
559.088	0.54
559.536	0.55
559.985	0.55
560.433	0.55
560.881	0.55
561.329	0.56
561.777	0.56
562.225	0.56
562.674	0.56
563.122	0.56
563.57	0.56
564.018	0.56
564.466	0.56
564.914	0.56
565.362	0.56
565.809	0.56
566.257	0.56
566.705	0.57
567.153	0.57
567.601	0.57
568.048	0.58
568.496	0.58
568.944	0.59
569.392	0.6
569.839	0.6
570.287	0.61
570.734	0.61
571.182	0.61
571.63	0.62
572.077	0.62
572.525	0.62
572.972	0.63
573.419	0.63
573.867	0.63
574.314	0.63
574.761	0.63
575.209	0.63
575.656	0.64
576.103	0.64
576.551	0.64
576.998	0.64
577.445	0.64
577.892	0.64
578.339	0.64
578.786	0.64
579.233	0.64
579.68	0.65
580.127	0.65
580.574	0.65
581.021	0.64
581.468	0.64
581.915	0.64
582.362	0.64
582.809	0.64
583.255	0.64
583.702	0.64
584.149	0.63
584.596	0.63
585.042	0.63
585.489	0.63
585.936	0.63
586.382	0.63
586.829	0.62
587.275	0.62
587.722	0.62
588.168	0.61
588.615	0.61
589.061	0.61
589.508	0.6
589.954	0.6
590.4	0.6
590.847	0.6
591.293	0.6
591.739	0.6
592.185	0.6
592.632	0.59
593.078	0.59
593.524	0.59
593.97	0.59
594.416	0.59
594.862	0.59
595.308	0.59
595.754	0.58
596.2	0.58
596.646	0.58
597.092	0.58
597.538	0.58
597.984	0.58
598.43	0.58
598.876	0.58
599.321	0.58
599.767	0.58
600.213	0.58
600.659	0.58
601.104	0.57
601.55	0.57
601.995	0.57
602.441	0.56
602.887	0.56
603.332	0.56
603.778	0.56
604.223	0.56
604.668	0.56
605.114	0.56
605.559	0.56
606.005	0.56
606.45	0.55
606.895	0.55
607.341	0.55
607.786	0.55
608.231	0.54
608.676	0.54
609.121	0.54
609.566	0.53
610.012	0.53
610.457	0.53
610.902	0.52
611.347	0.52
611.792	0.52
612.237	0.52
612.682	0.52
613.127	0.52
613.571	0.52
614.016	0.51
614.461	0.51
614.906	0.51
615.351	0.51
615.795	0.5
616.24	0.5
616.685	0.5
617.129	0.5
617.574	0.49
618.019	0.49
618.463	0.48
618.908	0.48
619.352	0.48
619.797	0.48
620.241	0.48
620.686	0.47
621.13	0.47
621.574	0.47
622.019	0.47
622.463	0.47
622.907	0.47
623.352	0.47
623.796	0.46
624.24	0.46
624.684	0.46
625.128	0.46
625.572	0.46
626.016	0.46
626.461	0.45
626.905	0.45
627.349	0.45
627.793	0.45
628.236	0.45
628.68	0.45
629.124	0.45
629.568	0.44
630.012	0.44
630.456	0.44
630.9	0.44
631.343	0.44
631.787	0.43
632.231	0.43
632.674	0.43
633.118	0.43
633.562	0.43
634.005	0.43
634.449	0.43
634.892	0.42
635.336	0.42
635.779	0.42
636.223	0.42
636.666	0.42
637.109	0.42
637.553	0.42
637.996	0.42
638.439	0.42
638.883	0.42
639.326	0.42
639.769	0.42
640.212	0.42
640.655	0.42
641.099	0.42
641.542	0.42
641.985	0.42
642.428	0.42
642.871	0.42
643.314	0.42
643.757	0.42
644.2	0.42
644.643	0.42
645.085	0.42
645.528	0.42
645.971	0.42
646.414	0.42
646.857	0.42
647.299	0.43
647.742	0.43
648.185	0.43
648.627	0.43
649.07	0.43
649.513	0.43
649.955	0.44
650.398	0.44
650.84	0.44
651.283	0.44
651.725	0.44
652.168	0.44
652.61	0.44
653.052	0.45
653.495	0.44
653.937	0.37
654.379	0.33
654.821	0.34
655.264	0.34
655.706	0.35
656.148	0.35
656.59	0.35
657.032	0.35
657.474	0.35
657.916	0.35
658.358	0.35
658.8	0.41
659.242	0.47
659.684	0.47
660.126	0.47
660.568	0.47
661.01	0.47
661.452	0.47
661.894	0.47
662.335	0.47
662.777	0.47
663.219	0.48
663.661	0.48
664.102	0.48
664.544	0.48
664.985	0.48
665.427	0.49
665.869	0.49
666.31	0.49
666.752	0.49
667.193	0.49
667.634	0.49
668.076	0.5
668.517	0.5
668.959	0.5
669.4	0.5
669.841	0.51
670.282	0.51
670.724	0.51
671.165	0.52
671.606	0.52
672.047	0.52
672.488	0.52
672.929	0.52
673.37	0.53
673.811	0.53
674.252	0.53
674.693	0.53
675.134	0.53
675.575	0.53
676.016	0.53
676.457	0.53
676.898	0.53
677.339	0.53
677.78	0.54
678.22	0.54
678.661	0.54
679.102	0.54
679.542	0.54
679.983	0.54
680.424	0.55
680.864	0.55
681.305	0.55
681.745	0.55
682.186	0.55
682.626	0.55
683.067	0.55
683.507	0.56
683.948	0.56
684.388	0.56
684.828	0.56
685.269	0.57
685.709	0.57
686.149	0.57
686.589	0.57
687.029	0.57
687.47	0.57
687.91	0.57
688.35	0.57
688.79	0.57
689.23	0.58
689.67	0.58
690.11	0.58
690.55	0.58
690.99	0.58
691.43	0.58
691.87	0.59
692.31	0.59
692.749	0.59
693.189	0.59
693.629	0.59
694.069	0.59
694.508	0.59
694.948	0.6
695.388	0.6
695.827	0.6
696.267	0.6
696.706	0.6
697.146	0.61
697.586	0.61
698.025	0.61
698.464	0.61
698.904	0.61
699.343	0.61
699.783	0.61
700.222	0.61
700.661	0.61
701.101	0.61
701.54	0.61
701.979	0.61
702.418	0.61
702.857	0.61
703.297	0.61
703.736	0.61
704.175	0.61
704.614	0.62
705.053	0.62
705.492	0.62
705.931	0.62
706.37	0.62
706.809	0.62
707.248	0.62
707.687	0.63
708.125	0.63
708.564	0.63
709.003	0.63
709.442	0.63
709.88	0.63
710.319	0.62
710.758	0.62
711.196	0.62
711.635	0.62
712.074	0.62
712.512	0.63
712.951	0.63
713.389	0.63
713.828	0.62
714.266	0.62
714.705	0.62
715.143	0.62
715.581	0.62
716.02	0.62
716.458	0.62
716.896	0.62
717.334	0.62
717.773	0.62
718.211	0.62
718.649	0.62
719.087	0.62
719.525	0.62
719.963	0.62
720.401	0.62
720.839	0.62
721.277	0.62
721.715	0.62
722.153	0.62
722.591	0.62
723.029	0.62
723.467	0.62
723.905	0.62
724.342	0.61
724.78	0.61
725.218	0.61
725.656	0.61
726.093	0.61
726.531	0.61
726.969	0.61
727.406	0.61
727.844	0.61
728.281	0.61
728.719	0.61
729.156	0.61
729.594	0.61
730.031	0.61
730.469	0.61
730.906	0.61
731.343	0.61
731.781	0.62
732.218	0.62
732.655	0.62
733.092	0.61
733.53	0.61
733.967	0.61
734.404	0.61
734.841	0.61
735.278	0.61
735.715	0.61
736.152	0.61
736.589	0.61
737.026	0.6
737.463	0.6
737.9	0.6
738.337	0.6
738.774	0.6
739.211	0.59
739.647	0.59
740.084	0.59
740.521	0.59
740.958	0.59
741.394	0.58
741.831	0.58
742.268	0.57
742.704	0.57
743.141	0.57
743.577	0.56
744.014	0.56
744.45	0.56
744.887	0.56
745.323	0.55
745.76	0.55
746.196	0.55
746.632	0.55
747.069	0.55
747.505	0.55
747.941	0.55
748.378	0.55
748.814	0.55
749.25	0.55
749.686	0.55
750.122	0.55
750.558	0.55
750.994	0.55
751.43	0.55
751.866	0.55
752.302	0.55
752.738	0.55
753.174	0.55
753.61	0.55
754.046	0.55
754.482	0.55
754.918	0.55
755.354	0.55
755.789	0.55
756.225	0.55
756.661	0.55
757.096	0.55
757.532	0.55
757.968	0.55
758.403	0.55
758.839	0.54
759.274	0.54
759.71	0.54
760.145	0.53
760.581	0.53
761.016	0.52
761.452	0.52
761.887	0.51
762.322	0.51
762.758	0.51
763.193	0.51
763.628	0.5
764.063	0.5
764.499	0.49
764.934	0.49
765.369	0.48
765.804	0.48
766.239	0.47
766.674	0.47
767.109	0.47
767.544	0.46
767.979	0.45
768.414	0.45
768.849	0.44
769.284	0.44
769.719	0.43
770.154	0.43
770.588	0.42
771.023	0.42
771.458	0.41
771.893	0.4
772.327	0.4
772.762	0.39
773.197	0.38
773.631	0.37
774.066	0.36
774.5	0.36
774.935	0.35
775.369	0.34
775.804	0.33
776.238	0.32
776.673	0.31
777.107	0.3
777.541	0.3
777.976	0.28
778.41	0.27
778.844	0.27
779.279	0.26
779.713	0.25
780.147	0.24
780.581	0.23
781.015	0.21
781.449	0.2
781.883	0.18
782.317	0.17
782.751	0.15
783.185	0.13
783.619	0.11
784.053	0.09
784.487	0.07
784.921	0.05
785.355	0.03
785.789	0.02
786.223	0
786.656	-0.01
787.09	-0.01
787.524	-0.02
787.957	-0.03
788.391	-0.04
788.825	-0.05
789.258	-0.05
789.692	-0.05
790.125	-0.05
790.559	-0.05
790.992	-0.06
791.426	-0.06
791.859	-0.05
792.293	-0.05
792.726	-0.04
793.159	-0.04
793.593	-0.04
794.026	-0.04
794.459	-0.04
794.892	-0.04
795.326	-0.04
795.759	-0.05
796.192	-0.05
796.625	-0.06
797.058	-0.06
797.491	-0.07
797.924	-0.08
798.357	-0.08
798.79	-0.08
799.223	-0.08
799.656	-0.08
800.089	-0.08
800.522	-0.08
800.955	-0.09
801.387	-0.09
801.82	-0.09
802.253	-0.09
802.686	-0.09
803.118	-0.09
803.551	-0.09
803.984	-0.08
804.416	-0.08
804.849	-0.07
805.281	-0.07
805.714	-0.07
806.146	-0.07
806.579	-0.07
807.011	-0.07
807.444	-0.07
807.876	-0.06
808.308	-0.07
808.741	-0.07
809.173	-0.07
809.605	-0.08
810.037	-0.08
810.47	-0.08
810.902	-0.08
811.334	-0.08
811.766	-0.08
812.198	-0.08
812.63	-0.08
813.062	-0.08
813.494	-0.08
813.926	-0.08
814.358	-0.08
814.79	-0.07
815.222	-0.07
815.654	-0.07
816.086	-0.07
816.518	-0.08
816.949	-0.08
817.381	-0.08
817.813	-0.07
818.245	-0.06
818.676	-0.05
819.108	-0.04
819.54	-0.03
819.971	-0.02
820.403	-0
820.834	0.02
821.266	0.04
821.697	0.06
822.129	0.08
822.56	0.1
822.991	0.11
823.423	0.13
823.854	0.14
824.286	0.16
824.717	0.17
825.148	0.19
825.579	0.2
826.01	0.22
826.442	0.23
826.873	0.24
827.304	0.25
827.735	0.26
828.166	0.27
828.597	0.28
829.028	0.28
829.459	0.29
829.89	0.29
830.321	0.3
830.752	0.3
831.183	0.31
831.613	0.32
832.044	0.32
832.475	0.33
832.906	0.33
833.336	0.33
833.767	0.34
834.198	0.34
834.628	0.34
835.059	0.35
835.49	0.35
835.92	0.35
836.351	0.35
836.781	0.36
837.212	0.36
837.642	0.36
838.072	0.36
838.503	0.36
838.933	0.36
839.364	0.36
839.794	0.36
840.224	0.36
840.654	0.36
841.085	0.36
841.515	0.36
841.945	0.36
842.375	0.36
842.805	0.37
843.235	0.37
843.665	0.37
844.095	0.37
844.525	0.37
844.955	0.37
845.385	0.37
845.815	0.37
846.245	0.37
846.675	0.37
847.105	0.37
847.534	0.37
847.964	0.37
848.394	0.37
848.824	0.37
849.253	0.37
849.683	0.37
850.112	0.37
850.542	0.37
850.972	0.37
851.401	0.38
851.831	0.38
852.26	0.38
852.69	0.38
853.119	0.38
853.548	0.38
853.978	0.38
854.407	0.38
854.836	0.38
855.266	0.38
855.695	0.37
856.124	0.37
856.553	0.37
856.983	0.37
857.412	0.37
857.841	0.37
858.27	0.37
858.699	0.37
859.128	0.36
859.557	0.36
859.986	0.36
860.415	0.36
860.844	0.36
861.273	0.36
861.702	0.36
862.13	0.36
862.559	0.36
862.988	0.36
863.417	0.36
863.845	0.36
864.274	0.36
864.703	0.36
865.131	0.36
865.56	0.36
865.989	0.36
866.417	0.36
866.846	0.36
867.274	0.35
867.703	0.35
868.131	0.35
868.559	0.35
868.988	0.35
869.416	0.35
869.844	0.35
870.273	0.35
870.701	0.35
871.129	0.35
871.557	0.35
871.986	0.35
872.414	0.35
872.842	0.35
873.27	0.35
873.698	0.34
874.126	0.34
874.554	0.34
874.982	0.34
875.41	0.34
875.838	0.34
876.266	0.34
876.694	0.34
877.122	0.34
877.549	0.34
877.977	0.34
878.405	0.34
878.833	0.34
879.26	0.34
879.688	0.34
880.116	0.34
880.543	0.34
880.971	0.34
881.399	0.34
881.826	0.34
882.254	0.34
882.681	0.34
883.109	0.34
883.536	0.34
883.963	0.33
884.391	0.33
884.818	0.33
885.245	0.33
885.673	0.33
886.1	0.33
886.527	0.33
886.954	0.33
887.381	0.33
887.809	0.33
888.236	0.33
888.663	0.33
889.09	0.33
889.517	0.33
889.944	0.33
890.371	0.33
890.798	0.33
891.225	0.33
891.652	0.33
892.078	0.33
892.505	0.32
892.932	0.32
893.359	0.32
893.786	0.32
894.212	0.32
894.639	0.32
895.066	0.32
895.492	0.32
895.919	0.32
896.346	0.32
896.772	0.32
897.199	0.32
897.625	0.32
898.052	0.32
898.478	0.31
898.904	0.31
899.331	0.31
899.757	0.31
900.183	0.31
900.61	0.31
901.036	0.31
901.462	0.31
901.888	0.31
902.315	0.31
902.741	0.31
903.167	0.31
903.593	0.31
904.019	0.31
904.445	0.31
904.871	0.31
905.297	0.31
905.723	0.31
906.149	0.31
906.575	0.31
907.001	0.3
907.427	0.3
907.852	0.3
908.278	0.3
908.704	0.3
909.13	0.3
909.555	0.3
909.981	0.3
910.407	0.3
910.832	0.3
911.258	0.3
911.684	0.3
912.109	0.3
912.535	0.3
912.96	0.3
913.386	0.3
913.811	0.3
914.236	0.3
914.662	0.3
915.087	0.3
915.512	0.3
915.938	0.3
916.363	0.3
916.788	0.3
917.213	0.3
917.639	0.3
918.064	0.3
918.489	0.3
918.914	0.3
919.339	0.29
919.764	0.29
920.189	0.29
920.614	0.29
921.039	0.29
921.464	0.29
921.889	0.29
922.314	0.29
922.738	0.29
923.163	0.29
923.588	0.29
924.013	0.29
924.437	0.29
924.862	0.29
925.287	0.29
925.711	0.28
926.136	0.28
926.561	0.28
926.985	0.28
927.41	0.28
927.834	0.28
928.259	0.28
928.683	0.28
929.108	0.28
929.532	0.28
929.956	0.28
930.381	0.28
930.805	0.28
931.229	0.28
931.653	0.27
932.078	0.27
932.502	0.27
932.926	0.27
933.35	0.27
933.774	0.27
934.198	0.27
934.622	0.26
935.046	0.26
935.47	0.26
935.894	0.26
936.318	0.26
936.742	0.26
937.166	0.26
937.59	0.26
938.014	0.27
938.437	0.27
938.861	0.27
939.285	0.27
939.709	0.27
940.132	0.27
940.556	0.27
940.98	0.27
941.403	0.27
941.827	0.27
942.25	0.27
942.674	0.27
943.097	0.27
943.521	0.26
943.944	0.26
944.368	0.26
944.791	0.26
945.214	0.26
945.638	0.26
946.061	0.26
946.484	0.26
946.907	0.26
947.331	0.26
947.754	0.26
948.177	0.26
948.6	0.25
949.023	0.25
949.446	0.25
949.869	0.25
950.292	0.25
950.715	0.25
951.138	0.25
951.561	0.25
951.984	0.25
952.407	0.25
952.83	0.25
953.252	0.25
953.675	0.25
954.098	0.25
954.521	0.24
954.943	0.24
955.366	0.24
955.789	0.24
956.211	0.24
956.634	0.24
957.056	0.24
957.479	0.24
957.902	0.24
958.324	0.24
958.746	0.24
959.169	0.24
959.591	0.24
960.014	0.24
960.436	0.24
960.858	0.24
961.281	0.24
961.703	0.24
962.125	0.24
962.547	0.24
962.969	0.24
963.391	0.24
963.814	0.24
964.236	0.24
964.658	0.24
965.08	0.24
965.502	0.24
965.924	0.24
966.346	0.24
966.768	0.24
967.189	0.24
967.611	0.24
968.033	0.24
968.455	0.24
968.877	0.24
969.298	0.24
969.72	0.24
970.142	0.24
970.563	0.23
970.985	0.23
971.407	0.23
971.828	0.23
972.25	0.23
972.671	0.23
973.093	0.23
973.514	0.23
973.936	0.23
974.357	0.23
974.778	0.23
975.2	0.23
975.621	0.23
976.042	0.23
976.464	0.23
976.885	0.23
977.306	0.23
977.727	0.23
978.148	0.23
978.57	0.23
978.991	0.23
979.412	0.23
979.833	0.23
980.254	0.23
980.675	0.23
981.096	0.22
981.517	0.22
981.937	0.22
982.358	0.22
982.779	0.22
983.2	0.22
983.621	0.22
984.042	0.22
984.462	0.22
984.883	0.22
985.304	0.22
985.724	0.22
986.145	0.22
986.565	0.22
986.986	0.22
987.407	0.22
987.827	0.22
988.248	0.22
988.668	0.22
989.088	0.22
989.509	0.22
989.929	0.22
990.35	0.22
990.77	0.22
991.19	0.22
991.61	0.22
992.031	0.21
992.451	0.21
992.871	0.21
993.291	0.21
993.711	0.21
994.131	0.21
994.551	0.21
994.971	0.21
995.391	0.21
995.811	0.2
996.231	0.2
996.651	0.2
997.071	0.2
997.491	0.2
997.911	0.2
998.331	0.2
998.75	0.2
999.17	0.2
999.59	0.21
1000.009	0.21
1000.429	0.21
1000.849	0.21
1001.268	0.21
1001.688	0.21
1002.107	0.21
1002.527	0.21
1002.946	0.21
1003.366	0.21
1003.785	0.21
1004.205	0.21
1004.624	0.21
1005.044	0.21
1005.463	0.2
1005.882	0.2
1006.301	0.2
1006.721	0.2
1007.14	0.2
1007.559	0.2
1007.978	0.2
1008.397	0.2
1008.816	0.2
1009.235	0.2
1009.655	0.2
1010.074	0.2
1010.492	0.2
1010.911	0.2
1011.33	0.2
1011.749	0.2
1012.168	0.2
1012.587	0.2
1013.006	0.2
1013.425	0.2
1013.843	0.19
1014.262	0.19
1014.681	0.19
1015.099	0.19
1015.518	0.19
1015.937	0.19
1016.355	0.19
1016.774	0.19
1017.192	0.19
1017.611	0.19
1018.029	0.19
1018.448	0.19
1018.866	0.19
1019.285	0.19
1019.703	0.19
1020.121	0.19
1020.54	0.19
1020.958	0.19
1021.376	0.19
1021.794	0.19
1022.213	0.2
1022.631	0.2
1023.049	0.2
1023.467	0.2
1023.885	0.2
1024.303	0.2
1024.721	0.2
1025.139	0.2
1025.557	0.2
1025.975	0.2
1026.393	0.2
1026.811	0.2
1027.229	0.2
1027.647	0.2
1028.065	0.2
1028.482	0.2
1028.9	0.2
1029.318	0.2
1029.735	0.2
1030.153	0.21
1030.571	0.21
1030.988	0.21
1031.406	0.21
1031.823	0.21
1032.241	0.21
1032.659	0.21
1033.076	0.21
1033.493	0.21
1033.911	0.21
1034.328	0.2
1034.746	0.2
1035.163	0.2
1035.58	0.2
1035.997	0.2
1036.415	0.2
1036.832	0.2
1037.249	0.2
1037.666	0.2
1038.083	0.2
1038.501	0.2
1038.918	0.2
1039.335	0.2
1039.752	0.2
1040.169	0.2
1040.586	0.2
1041.003	0.2
1041.419	0.2
1041.836	0.2
1042.253	0.2
1042.67	0.2
1043.087	0.2
1043.504	0.2
1043.92	0.2
1044.337	0.2
1044.754	0.19
1045.17	0.19
1045.587	0.19
1046.004	0.19
1046.42	0.19
1046.837	0.19
1047.253	0.19
1047.67	0.19
1048.086	0.19
1048.503	0.19
1048.919	0.19
1049.335	0.19
1049.752	0.19
1050.168	0.19
1050.584	0.19
1051.001	0.19
1051.417	0.19
1051.833	0.19
1052.249	0.19
1052.665	0.2
1053.081	0.2
1053.497	0.2
1053.914	0.2
1054.33	0.2
1054.746	0.2
1055.162	0.2
1055.578	0.2
1055.993	0.2
1056.409	0.2
1056.825	0.2
1057.241	0.2
1057.657	0.2
1058.073	0.2
1058.488	0.2
1058.904	0.2
1059.32	0.2
1059.736	0.2
1060.151	0.2
1060.567	0.2
1060.982	0.2
1061.398	0.2
1061.813	0.2
1062.229	0.2
1062.644	0.2
1063.06	0.2
1063.475	0.2
1063.891	0.2
1064.306	0.2
1064.721	0.2
1065.137	0.2
1065.552	0.2
1065.967	0.2
1066.382	0.2
1066.798	0.2
1067.213	0.2
1067.628	0.2
1068.043	0.2
1068.458	0.2
1068.873	0.2
1069.288	0.2
1069.703	0.2
1070.118	0.2
1070.533	0.2
1070.948	0.2
1071.363	0.2
1071.778	0.21
1072.193	0.21
1072.607	0.21
1073.022	0.21
1073.437	0.21
1073.852	0.21
1074.266	0.21
1074.681	0.21
1075.096	0.21
1075.51	0.21
1075.925	0.21
1076.339	0.21
1076.754	0.21
1077.168	0.21
1077.583	0.21
1077.997	0.21
1078.412	0.22
1078.826	0.22
1079.24	0.22
1079.655	0.22
1080.069	0.22
1080.483	0.22
1080.897	0.22
1081.312	0.22
1081.726	0.23
1082.14	0.23
1082.554	0.23
1082.968	0.23
1083.382	0.23
1083.796	0.24
1084.21	0.24
1084.624	0.24
1085.038	0.24
1085.452	0.25
1085.866	0.25
1086.28	0.25
1086.694	0.25
1087.108	0.26
1087.521	0.26
1087.935	0.26
1088.349	0.27
1088.763	0.27
1089.176	0.27
1089.59	0.28
1090.004	0.28
1090.417	0.29
1090.831	0.29
1091.244	0.3
1091.658	0.31
1092.071	0.32
1092.485	0.32
1092.898	0.33
1093.312	0.34
1093.725	0.35
1094.138	0.36
1094.552	0.37
1094.965	0.38
1095.378	0.39
1095.791	0.4
1096.205	0.42
1096.618	0.43
1097.031	0.45
1097.444	0.46
1097.857	0.48
1098.27	0.5
1098.683	0.52
1099.096	0.55
1099.509	0.58
1099.922	0.61
1100.335	0.65
1100.748	0.69
1101.161	0.73
1101.574	0.8
1101.986	0.87
1102.399	0.97
1102.812	1.12
1103.225	1.34
1103.637	1.82
1104.05	-0
1104.463	-0
1104.875	-0
1105.288	-0
1105.7	-0
1106.113	-0
1106.525	-0
1106.938	-0
1107.35	-0
1107.763	-0
1108.175	-0
1108.588	-0
1109	-0
1109.412	-0
1109.824	-0
1110.237	-0
1110.649	-0
1111.061	-0
