Data from unagg-15c-2a-1h_Absorbance__53__00480.txt Node

Date: Mon May 06 09:34:30 CEST 2024
User: Laser008
Spectrometer: MAYP115816
Trigger mode: 0
Integration Time (sec): 2.000000E-1
Scans to average: 10
Electric dark correction enabled: true
Nonlinearity correction enabled: true
Boxcar width: 5
XAxis mode: Wavelengths
Number of Pixels in Spectrum: 2068
>>>>>Begin Spectral Data<<<<<
198.914	-1.73
199.384	-1.59
199.855	-1.45
200.325	-1.32
200.796	-1.24
201.266	-1.19
201.737	-1.12
202.207	-1.06
202.677	-1.01
203.147	-0.97
203.618	-0.94
204.088	-0.92
204.558	-0.9
205.028	-0.89
205.498	-0.88
205.968	-0.88
206.439	-0.88
206.909	-0.87
207.379	-0.87
207.849	-0.87
208.319	-0.87
208.789	-0.86
209.258	-0.86
209.728	-0.86
210.198	-0.86
210.668	-0.86
211.138	-0.86
211.608	-0.85
212.077	-0.85
212.547	-0.85
213.017	-0.85
213.486	-0.85
213.956	-0.85
214.426	-0.85
214.895	-0.85
215.365	-0.85
215.834	-0.85
216.304	-0.84
216.773	-0.84
217.243	-0.84
217.712	-0.84
218.181	-0.84
218.651	-0.83
219.12	-0.83
219.589	-0.83
220.058	-0.83
220.528	-0.83
220.997	-0.82
221.466	-0.82
221.935	-0.82
222.404	-0.81
222.873	-0.81
223.342	-0.8
223.812	-0.79
224.281	-0.78
224.749	-0.78
225.218	-0.77
225.687	-0.75
226.156	-0.74
226.625	-0.73
227.094	-0.71
227.563	-0.7
228.031	-0.68
228.5	-0.65
228.969	-0.63
229.438	-0.6
229.906	-0.57
230.375	-0.53
230.844	-0.5
231.312	-0.45
231.781	-0.41
232.249	-0.36
232.718	-0.32
233.186	-0.27
233.655	-0.22
234.123	-0.17
234.591	-0.11
235.06	-0.06
235.528	-0.01
235.996	0.03
236.465	0.08
236.933	0.13
237.401	0.17
237.869	0.21
238.337	0.26
238.805	0.3
239.274	0.33
239.742	0.37
240.21	0.4
240.678	0.43
241.146	0.46
241.614	0.49
242.081	0.52
242.549	0.54
243.017	0.57
243.485	0.59
243.953	0.61
244.421	0.63
244.888	0.64
245.356	0.66
245.824	0.68
246.291	0.69
246.759	0.71
247.227	0.72
247.694	0.73
248.162	0.74
248.629	0.75
249.097	0.76
249.564	0.77
250.032	0.78
250.499	0.79
250.967	0.8
251.434	0.81
251.901	0.82
252.369	0.82
252.836	0.83
253.303	0.83
253.77	0.84
254.237	0.85
254.705	0.85
255.172	0.86
255.639	0.86
256.106	0.87
256.573	0.87
257.04	0.87
257.507	0.88
257.974	0.88
258.441	0.88
258.908	0.88
259.375	0.89
259.841	0.89
260.308	0.89
260.775	0.89
261.242	0.89
261.709	0.89
262.175	0.89
262.642	0.9
263.109	0.9
263.575	0.9
264.042	0.9
264.508	0.9
264.975	0.9
265.441	0.9
265.908	0.9
266.374	0.9
266.841	0.9
267.307	0.9
267.773	0.9
268.24	0.9
268.706	0.89
269.172	0.89
269.639	0.89
270.105	0.89
270.571	0.89
271.037	0.89
271.503	0.88
271.969	0.88
272.435	0.88
272.902	0.88
273.368	0.88
273.834	0.88
274.3	0.87
274.765	0.87
275.231	0.87
275.697	0.87
276.163	0.86
276.629	0.86
277.095	0.86
277.56	0.85
278.026	0.85
278.492	0.85
278.958	0.84
279.423	0.84
279.889	0.84
280.354	0.84
280.82	0.83
281.286	0.83
281.751	0.83
282.217	0.83
282.682	0.83
283.147	0.82
283.613	0.82
284.078	0.82
284.544	0.82
285.009	0.81
285.474	0.81
285.939	0.81
286.405	0.81
286.87	0.8
287.335	0.8
287.8	0.8
288.265	0.8
288.73	0.79
289.195	0.79
289.66	0.79
290.125	0.79
290.59	0.78
291.055	0.78
291.52	0.78
291.985	0.78
292.45	0.77
292.915	0.77
293.38	0.77
293.844	0.77
294.309	0.77
294.774	0.76
295.239	0.76
295.703	0.76
296.168	0.76
296.632	0.75
297.097	0.75
297.562	0.75
298.026	0.75
298.491	0.75
298.955	0.75
299.419	0.74
299.884	0.74
300.348	0.74
300.813	0.74
301.277	0.74
301.741	0.74
302.205	0.73
302.67	0.73
303.134	0.73
303.598	0.73
304.062	0.73
304.526	0.73
304.99	0.72
305.454	0.72
305.919	0.72
306.383	0.72
306.847	0.72
307.31	0.72
307.774	0.72
308.238	0.71
308.702	0.71
309.166	0.71
309.63	0.71
310.094	0.71
310.557	0.71
311.021	0.7
311.485	0.7
311.948	0.7
312.412	0.7
312.876	0.7
313.339	0.7
313.803	0.7
314.266	0.69
314.73	0.69
315.193	0.69
315.657	0.69
316.12	0.69
316.584	0.69
317.047	0.69
317.51	0.68
317.973	0.68
318.437	0.68
318.9	0.68
319.363	0.68
319.826	0.68
320.29	0.68
320.753	0.67
321.216	0.67
321.679	0.67
322.142	0.67
322.605	0.67
323.068	0.66
323.531	0.66
323.994	0.66
324.457	0.66
324.92	0.66
325.382	0.66
325.845	0.66
326.308	0.66
326.771	0.65
327.233	0.65
327.696	0.65
328.159	0.65
328.622	0.65
329.084	0.65
329.547	0.65
330.009	0.64
330.472	0.64
330.934	0.64
331.397	0.64
331.859	0.64
332.322	0.64
332.784	0.64
333.246	0.64
333.709	0.63
334.171	0.63
334.633	0.63
335.096	0.63
335.558	0.63
336.02	0.63
336.482	0.63
336.944	0.62
337.406	0.62
337.868	0.62
338.331	0.62
338.793	0.62
339.255	0.62
339.717	0.62
340.178	0.62
340.64	0.62
341.102	0.61
341.564	0.61
342.026	0.61
342.488	0.61
342.949	0.61
343.411	0.61
343.873	0.61
344.335	0.61
344.796	0.61
345.258	0.61
345.719	0.61
346.181	0.61
346.643	0.6
347.104	0.6
347.566	0.6
348.027	0.6
348.488	0.6
348.95	0.6
349.411	0.6
349.873	0.6
350.334	0.6
350.795	0.6
351.256	0.6
351.718	0.59
352.179	0.59
352.64	0.59
353.101	0.59
353.562	0.59
354.023	0.59
354.484	0.59
354.945	0.59
355.406	0.58
355.867	0.58
356.328	0.58
356.789	0.58
357.25	0.58
357.711	0.58
358.172	0.58
358.633	0.58
359.093	0.58
359.554	0.58
360.015	0.58
360.476	0.58
360.936	0.58
361.397	0.58
361.858	0.59
362.318	0.59
362.779	0.59
363.239	0.59
363.7	0.58
364.16	0.58
364.621	0.58
365.081	0.58
365.541	0.58
366.002	0.58
366.462	0.58
366.922	0.58
367.383	0.58
367.843	0.58
368.303	0.58
368.763	0.58
369.223	0.58
369.684	0.58
370.144	0.58
370.604	0.58
371.064	0.58
371.524	0.57
371.984	0.57
372.444	0.57
372.904	0.57
373.363	0.57
373.823	0.57
374.283	0.57
374.743	0.57
375.203	0.57
375.663	0.57
376.122	0.57
376.582	0.57
377.042	0.57
377.501	0.57
377.961	0.57
378.42	0.57
378.88	0.57
379.34	0.57
379.799	0.57
380.259	0.57
380.718	0.57
381.177	0.57
381.637	0.57
382.096	0.57
382.555	0.57
383.015	0.57
383.474	0.57
383.933	0.57
384.393	0.57
384.852	0.57
385.311	0.56
385.77	0.56
386.229	0.56
386.688	0.56
387.147	0.56
387.606	0.56
388.065	0.56
388.524	0.56
388.983	0.56
389.442	0.56
389.901	0.56
390.36	0.56
390.819	0.56
391.277	0.56
391.736	0.56
392.195	0.56
392.654	0.56
393.112	0.56
393.571	0.56
394.03	0.56
394.488	0.56
394.947	0.56
395.405	0.56
395.864	0.56
396.322	0.56
396.781	0.56
397.239	0.56
397.698	0.56
398.156	0.56
398.614	0.56
399.073	0.56
399.531	0.56
399.989	0.56
400.447	0.56
400.905	0.55
401.364	0.55
401.822	0.55
402.28	0.55
402.738	0.55
403.196	0.55
403.654	0.55
404.112	0.55
404.57	0.55
405.028	0.55
405.486	0.55
405.944	0.55
406.402	0.55
406.859	0.55
407.317	0.55
407.775	0.54
408.233	0.54
408.691	0.54
409.148	0.54
409.606	0.54
410.064	0.54
410.521	0.54
410.979	0.54
411.436	0.54
411.894	0.54
412.351	0.54
412.809	0.54
413.266	0.54
413.724	0.54
414.181	0.54
414.638	0.54
415.096	0.54
415.553	0.53
416.01	0.53
416.467	0.53
416.925	0.53
417.382	0.53
417.839	0.53
418.296	0.53
418.753	0.53
419.21	0.53
419.667	0.53
420.124	0.53
420.581	0.53
421.038	0.53
421.495	0.54
421.952	0.54
422.409	0.54
422.866	0.54
423.322	0.53
423.779	0.53
424.236	0.53
424.693	0.53
425.149	0.53
425.606	0.53
426.063	0.53
426.519	0.53
426.976	0.53
427.433	0.53
427.889	0.53
428.346	0.53
428.802	0.53
429.258	0.53
429.715	0.53
430.171	0.53
430.628	0.53
431.084	0.53
431.54	0.53
431.997	0.53
432.453	0.53
432.909	0.53
433.365	0.53
433.821	0.52
434.277	0.52
434.734	0.52
435.19	0.52
435.646	0.52
436.102	0.52
436.558	0.52
437.014	0.52
437.47	0.52
437.925	0.52
438.381	0.52
438.837	0.52
439.293	0.52
439.749	0.52
440.205	0.52
440.66	0.52
441.116	0.52
441.572	0.52
442.027	0.52
442.483	0.52
442.939	0.52
443.394	0.52
443.85	0.52
444.305	0.52
444.761	0.52
445.216	0.52
445.672	0.52
446.127	0.52
446.582	0.52
447.038	0.52
447.493	0.52
447.948	0.52
448.403	0.52
448.859	0.52
449.314	0.52
449.769	0.52
450.224	0.52
450.679	0.52
451.134	0.52
451.589	0.52
452.044	0.52
452.499	0.52
452.954	0.52
453.409	0.52
453.864	0.52
454.319	0.52
454.774	0.51
455.229	0.51
455.684	0.51
456.138	0.51
456.593	0.51
457.048	0.51
457.503	0.51
457.957	0.51
458.412	0.51
458.866	0.51
459.321	0.51
459.776	0.51
460.23	0.51
460.685	0.51
461.139	0.51
461.593	0.51
462.048	0.51
462.502	0.51
462.957	0.51
463.411	0.51
463.865	0.51
464.319	0.51
464.774	0.51
465.228	0.51
465.682	0.52
466.136	0.52
466.59	0.52
467.044	0.52
467.499	0.52
467.953	0.51
468.407	0.51
468.861	0.51
469.315	0.51
469.768	0.51
470.222	0.51
470.676	0.51
471.13	0.51
471.584	0.51
472.038	0.51
472.491	0.51
472.945	0.51
473.399	0.52
473.852	0.52
474.306	0.52
474.76	0.52
475.213	0.52
475.667	0.52
476.12	0.52
476.574	0.52
477.027	0.53
477.481	0.53
477.934	0.53
478.388	0.53
478.841	0.53
479.294	0.53
479.748	0.53
480.201	0.53
480.654	0.53
481.107	0.53
481.561	0.54
482.014	0.54
482.467	0.54
482.92	0.54
483.373	0.55
483.826	0.55
484.279	0.55
484.732	0.56
485.185	0.56
485.638	0.56
486.091	0.56
486.544	0.57
486.997	0.57
487.449	0.57
487.902	0.57
488.355	0.57
488.808	0.57
489.26	0.57
489.713	0.57
490.166	0.57
490.618	0.57
491.071	0.57
491.523	0.57
491.976	0.57
492.429	0.58
492.881	0.58
493.333	0.58
493.786	0.58
494.238	0.59
494.691	0.59
495.143	0.59
495.595	0.6
496.048	0.6
496.5	0.6
496.952	0.6
497.404	0.61
497.856	0.61
498.309	0.61
498.761	0.61
499.213	0.61
499.665	0.62
500.117	0.62
500.569	0.62
501.021	0.63
501.473	0.63
501.925	0.63
502.377	0.64
502.828	0.64
503.28	0.64
503.732	0.65
504.184	0.65
504.636	0.65
505.087	0.65
505.539	0.65
505.991	0.66
506.442	0.66
506.894	0.66
507.345	0.66
507.797	0.66
508.249	0.66
508.7	0.67
509.151	0.67
509.603	0.67
510.054	0.67
510.506	0.67
510.957	0.67
511.408	0.68
511.86	0.68
512.311	0.68
512.762	0.68
513.213	0.68
513.665	0.68
514.116	0.68
514.567	0.68
515.018	0.68
515.469	0.68
515.92	0.68
516.371	0.68
516.822	0.68
517.273	0.68
517.724	0.68
518.175	0.68
518.626	0.68
519.076	0.68
519.527	0.68
519.978	0.68
520.429	0.68
520.88	0.67
521.33	0.67
521.781	0.67
522.232	0.66
522.682	0.66
523.133	0.66
523.583	0.67
524.034	0.67
524.484	0.68
524.935	0.68
525.385	0.68
525.836	0.69
526.286	0.69
526.736	0.7
527.187	0.7
527.637	0.71
528.087	0.71
528.538	0.71
528.988	0.71
529.438	0.71
529.888	0.71
530.338	0.71
530.788	0.71
531.238	0.71
531.688	0.71
532.139	0.71
532.589	0.71
533.038	0.71
533.488	0.72
533.938	0.72
534.388	0.72
534.838	0.71
535.288	0.71
535.738	0.71
536.187	0.71
536.637	0.71
537.087	0.71
537.537	0.71
537.986	0.71
538.436	0.71
538.885	0.71
539.335	0.71
539.785	0.71
540.234	0.7
540.684	0.7
541.133	0.7
541.582	0.7
542.032	0.7
542.481	0.69
542.931	0.69
543.38	0.69
543.829	0.69
544.278	0.69
544.728	0.69
545.177	0.69
545.626	0.69
546.075	0.68
546.524	0.68
546.973	0.68
547.422	0.68
547.871	0.67
548.32	0.67
548.769	0.67
549.218	0.66
549.667	0.66
550.116	0.66
550.565	0.66
551.014	0.65
551.463	0.65
551.911	0.65
552.36	0.65
552.809	0.64
553.258	0.64
553.706	0.64
554.155	0.64
554.603	0.63
555.052	0.63
555.501	0.63
555.949	0.62
556.398	0.62
556.846	0.61
557.294	0.61
557.743	0.61
558.191	0.6
558.64	0.6
559.088	0.6
559.536	0.59
559.985	0.59
560.433	0.59
560.881	0.59
561.329	0.59
561.777	0.59
562.225	0.59
562.674	0.58
563.122	0.58
563.57	0.58
564.018	0.57
564.466	0.57
564.914	0.56
565.362	0.56
565.809	0.56
566.257	0.55
566.705	0.55
567.153	0.55
567.601	0.55
568.048	0.55
568.496	0.55
568.944	0.55
569.392	0.55
569.839	0.55
570.287	0.55
570.734	0.54
571.182	0.54
571.63	0.54
572.077	0.54
572.525	0.54
572.972	0.54
573.419	0.53
573.867	0.53
574.314	0.53
574.761	0.53
575.209	0.53
575.656	0.52
576.103	0.52
576.551	0.52
576.998	0.52
577.445	0.51
577.892	0.51
578.339	0.51
578.786	0.51
579.233	0.5
579.68	0.5
580.127	0.5
580.574	0.5
581.021	0.49
581.468	0.49
581.915	0.49
582.362	0.48
582.809	0.48
583.255	0.48
583.702	0.48
584.149	0.47
584.596	0.47
585.042	0.46
585.489	0.46
585.936	0.46
586.382	0.46
586.829	0.45
587.275	0.45
587.722	0.45
588.168	0.44
588.615	0.44
589.061	0.44
589.508	0.43
589.954	0.43
590.4	0.43
590.847	0.42
591.293	0.42
591.739	0.42
592.185	0.42
592.632	0.42
593.078	0.41
593.524	0.41
593.97	0.41
594.416	0.41
594.862	0.41
595.308	0.41
595.754	0.4
596.2	0.4
596.646	0.4
597.092	0.4
597.538	0.4
597.984	0.4
598.43	0.4
598.876	0.4
599.321	0.39
599.767	0.39
600.213	0.39
600.659	0.39
601.104	0.39
601.55	0.38
601.995	0.38
602.441	0.38
602.887	0.38
603.332	0.38
603.778	0.38
604.223	0.38
604.668	0.38
605.114	0.38
605.559	0.38
606.005	0.38
606.45	0.38
606.895	0.37
607.341	0.37
607.786	0.37
608.231	0.37
608.676	0.37
609.121	0.37
609.566	0.37
610.012	0.36
610.457	0.36
610.902	0.36
611.347	0.36
611.792	0.36
612.237	0.36
612.682	0.36
613.127	0.36
613.571	0.36
614.016	0.36
614.461	0.36
614.906	0.36
615.351	0.36
615.795	0.36
616.24	0.36
616.685	0.36
617.129	0.36
617.574	0.35
618.019	0.35
618.463	0.35
618.908	0.35
619.352	0.35
619.797	0.35
620.241	0.36
620.686	0.36
621.13	0.36
621.574	0.36
622.019	0.36
622.463	0.36
622.907	0.36
623.352	0.36
623.796	0.36
624.24	0.36
624.684	0.36
625.128	0.36
625.572	0.36
626.016	0.36
626.461	0.37
626.905	0.37
627.349	0.37
627.793	0.37
628.236	0.37
628.68	0.37
629.124	0.37
629.568	0.38
630.012	0.38
630.456	0.38
630.9	0.38
631.343	0.38
631.787	0.38
632.231	0.38
632.674	0.38
633.118	0.39
633.562	0.39
634.005	0.39
634.449	0.39
634.892	0.39
635.336	0.4
635.779	0.4
636.223	0.4
636.666	0.4
637.109	0.4
637.553	0.41
637.996	0.41
638.439	0.41
638.883	0.42
639.326	0.42
639.769	0.42
640.212	0.42
640.655	0.43
641.099	0.43
641.542	0.43
641.985	0.44
642.428	0.44
642.871	0.44
643.314	0.45
643.757	0.45
644.2	0.45
644.643	0.46
645.085	0.46
645.528	0.47
645.971	0.47
646.414	0.47
646.857	0.48
647.299	0.48
647.742	0.49
648.185	0.49
648.627	0.5
649.07	0.5
649.513	0.51
649.955	0.51
650.398	0.52
650.84	0.52
651.283	0.53
651.725	0.53
652.168	0.53
652.61	0.54
653.052	0.55
653.495	0.54
653.937	0.47
654.379	0.44
654.821	0.45
655.264	0.46
655.706	0.46
656.148	0.46
656.59	0.47
657.032	0.47
657.474	0.47
657.916	0.47
658.358	0.47
658.8	0.54
659.242	0.62
659.684	0.62
660.126	0.62
660.568	0.62
661.01	0.63
661.452	0.63
661.894	0.64
662.335	0.64
662.777	0.65
663.219	0.65
663.661	0.66
664.102	0.66
664.544	0.67
664.985	0.67
665.427	0.68
665.869	0.68
666.31	0.68
666.752	0.69
667.193	0.69
667.634	0.7
668.076	0.7
668.517	0.71
668.959	0.71
669.4	0.72
669.841	0.72
670.282	0.73
670.724	0.73
671.165	0.74
671.606	0.74
672.047	0.74
672.488	0.75
672.929	0.75
673.37	0.75
673.811	0.76
674.252	0.76
674.693	0.76
675.134	0.76
675.575	0.76
676.016	0.76
676.457	0.77
676.898	0.77
677.339	0.77
677.78	0.77
678.22	0.78
678.661	0.78
679.102	0.78
679.542	0.78
679.983	0.78
680.424	0.78
680.864	0.79
681.305	0.79
681.745	0.79
682.186	0.79
682.626	0.79
683.067	0.79
683.507	0.79
683.948	0.8
684.388	0.8
684.828	0.8
685.269	0.8
685.709	0.8
686.149	0.8
686.589	0.8
687.029	0.8
687.47	0.8
687.91	0.8
688.35	0.8
688.79	0.8
689.23	0.8
689.67	0.8
690.11	0.8
690.55	0.8
690.99	0.8
691.43	0.8
691.87	0.8
692.31	0.8
692.749	0.8
693.189	0.79
693.629	0.79
694.069	0.79
694.508	0.79
694.948	0.79
695.388	0.79
695.827	0.79
696.267	0.79
696.706	0.78
697.146	0.78
697.586	0.78
698.025	0.78
698.464	0.77
698.904	0.77
699.343	0.77
699.783	0.77
700.222	0.76
700.661	0.76
701.101	0.76
701.54	0.75
701.979	0.75
702.418	0.75
702.857	0.75
703.297	0.74
703.736	0.74
704.175	0.74
704.614	0.73
705.053	0.73
705.492	0.73
705.931	0.73
706.37	0.72
706.809	0.72
707.248	0.72
707.687	0.71
708.125	0.71
708.564	0.71
709.003	0.7
709.442	0.7
709.88	0.69
710.319	0.69
710.758	0.69
711.196	0.68
711.635	0.68
712.074	0.67
712.512	0.67
712.951	0.66
713.389	0.66
713.828	0.66
714.266	0.65
714.705	0.65
715.143	0.64
715.581	0.64
716.02	0.63
716.458	0.63
716.896	0.62
717.334	0.62
717.773	0.62
718.211	0.61
718.649	0.61
719.087	0.6
719.525	0.6
719.963	0.59
720.401	0.59
720.839	0.59
721.277	0.58
721.715	0.58
722.153	0.57
722.591	0.57
723.029	0.56
723.467	0.56
723.905	0.55
724.342	0.55
724.78	0.55
725.218	0.54
725.656	0.54
726.093	0.53
726.531	0.53
726.969	0.53
727.406	0.52
727.844	0.52
728.281	0.51
728.719	0.51
729.156	0.51
729.594	0.51
730.031	0.5
730.469	0.5
730.906	0.49
731.343	0.49
731.781	0.49
732.218	0.49
732.655	0.48
733.092	0.48
733.53	0.48
733.967	0.47
734.404	0.47
734.841	0.46
735.278	0.46
735.715	0.46
736.152	0.45
736.589	0.45
737.026	0.45
737.463	0.44
737.9	0.44
738.337	0.43
738.774	0.43
739.211	0.43
739.647	0.42
740.084	0.42
740.521	0.41
740.958	0.41
741.394	0.41
741.831	0.4
742.268	0.4
742.704	0.39
743.141	0.39
743.577	0.38
744.014	0.38
744.45	0.37
744.887	0.37
745.323	0.37
745.76	0.36
746.196	0.36
746.632	0.36
747.069	0.35
747.505	0.35
747.941	0.35
748.378	0.35
748.814	0.34
749.25	0.34
749.686	0.34
750.122	0.34
750.558	0.34
750.994	0.33
751.43	0.33
751.866	0.33
752.302	0.33
752.738	0.33
753.174	0.32
753.61	0.32
754.046	0.32
754.482	0.32
754.918	0.32
755.354	0.31
755.789	0.31
756.225	0.31
756.661	0.31
757.096	0.31
757.532	0.3
757.968	0.3
758.403	0.3
758.839	0.3
759.274	0.29
759.71	0.29
760.145	0.28
760.581	0.28
761.016	0.28
761.452	0.27
761.887	0.27
762.322	0.27
762.758	0.27
763.193	0.26
763.628	0.26
764.063	0.25
764.499	0.25
764.934	0.25
765.369	0.25
765.804	0.24
766.239	0.24
766.674	0.24
767.109	0.23
767.544	0.23
767.979	0.22
768.414	0.22
768.849	0.22
769.284	0.21
769.719	0.21
770.154	0.21
770.588	0.2
771.023	0.2
771.458	0.19
771.893	0.19
772.327	0.19
772.762	0.18
773.197	0.18
773.631	0.17
774.066	0.17
774.5	0.16
774.935	0.16
775.369	0.16
775.804	0.15
776.238	0.15
776.673	0.14
777.107	0.14
777.541	0.13
777.976	0.12
778.41	0.12
778.844	0.11
779.279	0.11
779.713	0.1
780.147	0.1
780.581	0.09
781.015	0.08
781.449	0.07
781.883	0.07
782.317	0.06
782.751	0.05
783.185	0.04
783.619	0.02
784.053	0.01
784.487	0
784.921	-0.01
785.355	-0.02
785.789	-0.03
786.223	-0.04
786.656	-0.04
787.09	-0.04
787.524	-0.05
787.957	-0.05
788.391	-0.05
788.825	-0.06
789.258	-0.06
789.692	-0.06
790.125	-0.06
790.559	-0.06
790.992	-0.06
791.426	-0.06
791.859	-0.06
792.293	-0.05
792.726	-0.04
793.159	-0.04
793.593	-0.04
794.026	-0.04
794.459	-0.04
794.892	-0.05
795.326	-0.05
795.759	-0.05
796.192	-0.05
796.625	-0.06
797.058	-0.07
797.491	-0.07
797.924	-0.08
798.357	-0.08
798.79	-0.08
799.223	-0.08
799.656	-0.08
800.089	-0.08
800.522	-0.09
800.955	-0.09
801.387	-0.09
801.82	-0.09
802.253	-0.09
802.686	-0.09
803.118	-0.09
803.551	-0.09
803.984	-0.09
804.416	-0.08
804.849	-0.08
805.281	-0.07
805.714	-0.07
806.146	-0.07
806.579	-0.07
807.011	-0.07
807.444	-0.07
807.876	-0.07
808.308	-0.07
808.741	-0.07
809.173	-0.08
809.605	-0.08
810.037	-0.08
810.47	-0.08
810.902	-0.09
811.334	-0.09
811.766	-0.08
812.198	-0.08
812.63	-0.08
813.062	-0.08
813.494	-0.08
813.926	-0.08
814.358	-0.08
814.79	-0.08
815.222	-0.07
815.654	-0.07
816.086	-0.07
816.518	-0.08
816.949	-0.08
817.381	-0.08
817.813	-0.08
818.245	-0.07
818.676	-0.07
819.108	-0.06
819.54	-0.06
819.971	-0.05
820.403	-0.05
820.834	-0.04
821.266	-0.03
821.697	-0.02
822.129	-0.01
822.56	0
822.991	0.01
823.423	0.02
823.854	0.02
824.286	0.03
824.717	0.04
825.148	0.05
825.579	0.05
826.01	0.06
826.442	0.06
826.873	0.06
827.304	0.07
827.735	0.07
828.166	0.07
828.597	0.08
829.028	0.08
829.459	0.08
829.89	0.08
830.321	0.09
830.752	0.09
831.183	0.09
831.613	0.09
832.044	0.09
832.475	0.1
832.906	0.1
833.336	0.1
833.767	0.1
834.198	0.1
834.628	0.1
835.059	0.11
835.49	0.11
835.92	0.11
836.351	0.11
836.781	0.11
837.212	0.11
837.642	0.11
838.072	0.11
838.503	0.11
838.933	0.11
839.364	0.11
839.794	0.11
840.224	0.11
840.654	0.11
841.085	0.11
841.515	0.11
841.945	0.11
842.375	0.11
842.805	0.11
843.235	0.11
843.665	0.11
844.095	0.11
844.525	0.11
844.955	0.11
845.385	0.11
845.815	0.11
846.245	0.11
846.675	0.11
847.105	0.1
847.534	0.1
847.964	0.1
848.394	0.11
848.824	0.11
849.253	0.11
849.683	0.11
850.112	0.11
850.542	0.11
850.972	0.11
851.401	0.11
851.831	0.11
852.26	0.11
852.69	0.11
853.119	0.11
853.548	0.11
853.978	0.11
854.407	0.11
854.836	0.11
855.266	0.11
855.695	0.11
856.124	0.11
856.553	0.1
856.983	0.1
857.412	0.1
857.841	0.1
858.27	0.1
858.699	0.1
859.128	0.1
859.557	0.1
859.986	0.1
860.415	0.1
860.844	0.09
861.273	0.09
861.702	0.09
862.13	0.09
862.559	0.09
862.988	0.09
863.417	0.09
863.845	0.09
864.274	0.09
864.703	0.09
865.131	0.09
865.56	0.09
865.989	0.09
866.417	0.09
866.846	0.09
867.274	0.09
867.703	0.09
868.131	0.09
868.559	0.09
868.988	0.09
869.416	0.09
869.844	0.09
870.273	0.09
870.701	0.09
871.129	0.09
871.557	0.09
871.986	0.09
872.414	0.09
872.842	0.09
873.27	0.09
873.698	0.09
874.126	0.09
874.554	0.09
874.982	0.09
875.41	0.09
875.838	0.09
876.266	0.09
876.694	0.09
877.122	0.09
877.549	0.09
877.977	0.09
878.405	0.09
878.833	0.09
879.26	0.09
879.688	0.09
880.116	0.09
880.543	0.09
880.971	0.09
881.399	0.09
881.826	0.09
882.254	0.09
882.681	0.09
883.109	0.09
883.536	0.09
883.963	0.09
884.391	0.09
884.818	0.09
885.245	0.09
885.673	0.09
886.1	0.09
886.527	0.09
886.954	0.09
887.381	0.09
887.809	0.09
888.236	0.09
888.663	0.09
889.09	0.09
889.517	0.09
889.944	0.09
890.371	0.09
890.798	0.09
891.225	0.09
891.652	0.09
892.078	0.09
892.505	0.09
892.932	0.09
893.359	0.09
893.786	0.09
894.212	0.09
894.639	0.09
895.066	0.09
895.492	0.09
895.919	0.09
896.346	0.09
896.772	0.08
897.199	0.08
897.625	0.08
898.052	0.08
898.478	0.08
898.904	0.08
899.331	0.08
899.757	0.08
900.183	0.08
900.61	0.08
901.036	0.08
901.462	0.08
901.888	0.08
902.315	0.09
902.741	0.09
903.167	0.09
903.593	0.09
904.019	0.09
904.445	0.09
904.871	0.09
905.297	0.09
905.723	0.08
906.149	0.08
906.575	0.08
907.001	0.08
907.427	0.08
907.852	0.08
908.278	0.08
908.704	0.08
909.13	0.08
909.555	0.08
909.981	0.08
910.407	0.08
910.832	0.08
911.258	0.08
911.684	0.08
912.109	0.08
912.535	0.08
912.96	0.08
913.386	0.08
913.811	0.08
914.236	0.08
914.662	0.08
915.087	0.08
915.512	0.08
915.938	0.08
916.363	0.08
916.788	0.08
917.213	0.08
917.639	0.08
918.064	0.08
918.489	0.08
918.914	0.08
919.339	0.08
919.764	0.08
920.189	0.08
920.614	0.08
921.039	0.08
921.464	0.08
921.889	0.08
922.314	0.08
922.738	0.08
923.163	0.08
923.588	0.08
924.013	0.08
924.437	0.08
924.862	0.08
925.287	0.08
925.711	0.08
926.136	0.08
926.561	0.08
926.985	0.08
927.41	0.08
927.834	0.08
928.259	0.08
928.683	0.08
929.108	0.08
929.532	0.08
929.956	0.08
930.381	0.08
930.805	0.08
931.229	0.07
931.653	0.07
932.078	0.07
932.502	0.07
932.926	0.07
933.35	0.07
933.774	0.07
934.198	0.07
934.622	0.06
935.046	0.06
935.47	0.06
935.894	0.06
936.318	0.06
936.742	0.06
937.166	0.07
937.59	0.07
938.014	0.07
938.437	0.07
938.861	0.07
939.285	0.07
939.709	0.07
940.132	0.07
940.556	0.07
940.98	0.07
941.403	0.07
941.827	0.07
942.25	0.07
942.674	0.07
943.097	0.07
943.521	0.07
943.944	0.07
944.368	0.07
944.791	0.07
945.214	0.07
945.638	0.07
946.061	0.07
946.484	0.07
946.907	0.07
947.331	0.07
947.754	0.07
948.177	0.06
948.6	0.06
949.023	0.06
949.446	0.06
949.869	0.06
950.292	0.06
950.715	0.06
951.138	0.06
951.561	0.06
951.984	0.06
952.407	0.06
952.83	0.06
953.252	0.06
953.675	0.06
954.098	0.06
954.521	0.06
954.943	0.06
955.366	0.06
955.789	0.06
956.211	0.06
956.634	0.06
957.056	0.06
957.479	0.06
957.902	0.06
958.324	0.06
958.746	0.06
959.169	0.06
959.591	0.06
960.014	0.06
960.436	0.06
960.858	0.06
961.281	0.06
961.703	0.06
962.125	0.06
962.547	0.06
962.969	0.06
963.391	0.07
963.814	0.07
964.236	0.07
964.658	0.07
965.08	0.07
965.502	0.07
965.924	0.07
966.346	0.07
966.768	0.07
967.189	0.07
967.611	0.07
968.033	0.07
968.455	0.07
968.877	0.07
969.298	0.06
969.72	0.06
970.142	0.06
970.563	0.06
970.985	0.06
971.407	0.06
971.828	0.06
972.25	0.06
972.671	0.06
973.093	0.06
973.514	0.06
973.936	0.06
974.357	0.06
974.778	0.06
975.2	0.06
975.621	0.07
976.042	0.07
976.464	0.07
976.885	0.06
977.306	0.06
977.727	0.06
978.148	0.06
978.57	0.06
978.991	0.06
979.412	0.06
979.833	0.06
980.254	0.06
980.675	0.06
981.096	0.06
981.517	0.06
981.937	0.06
982.358	0.06
982.779	0.06
983.2	0.06
983.621	0.06
984.042	0.06
984.462	0.06
984.883	0.06
985.304	0.06
985.724	0.06
986.145	0.06
986.565	0.06
986.986	0.06
987.407	0.06
987.827	0.06
988.248	0.06
988.668	0.06
989.088	0.06
989.509	0.06
989.929	0.06
990.35	0.06
990.77	0.06
991.19	0.06
991.61	0.06
992.031	0.06
992.451	0.05
992.871	0.05
993.291	0.05
993.711	0.05
994.131	0.05
994.551	0.05
994.971	0.05
995.391	0.05
995.811	0.05
996.231	0.05
996.651	0.05
997.071	0.05
997.491	0.05
997.911	0.05
998.331	0.05
998.75	0.05
999.17	0.05
999.59	0.05
1000.009	0.05
1000.429	0.05
1000.849	0.05
1001.268	0.05
1001.688	0.05
1002.107	0.05
1002.527	0.05
1002.946	0.05
1003.366	0.05
1003.785	0.05
1004.205	0.05
1004.624	0.05
1005.044	0.05
1005.463	0.05
1005.882	0.05
1006.301	0.05
1006.721	0.05
1007.14	0.05
1007.559	0.05
1007.978	0.05
1008.397	0.05
1008.816	0.05
1009.235	0.05
1009.655	0.05
1010.074	0.05
1010.492	0.05
1010.911	0.05
1011.33	0.05
1011.749	0.05
1012.168	0.05
1012.587	0.05
1013.006	0.05
1013.425	0.05
1013.843	0.04
1014.262	0.04
1014.681	0.04
1015.099	0.04
1015.518	0.04
1015.937	0.04
1016.355	0.04
1016.774	0.04
1017.192	0.04
1017.611	0.04
1018.029	0.04
1018.448	0.04
1018.866	0.04
1019.285	0.04
1019.703	0.04
1020.121	0.04
1020.54	0.04
1020.958	0.04
1021.376	0.05
1021.794	0.05
1022.213	0.05
1022.631	0.05
1023.049	0.05
1023.467	0.05
1023.885	0.05
1024.303	0.05
1024.721	0.05
1025.139	0.05
1025.557	0.05
1025.975	0.05
1026.393	0.05
1026.811	0.05
1027.229	0.05
1027.647	0.05
1028.065	0.05
1028.482	0.05
1028.9	0.06
1029.318	0.06
1029.735	0.06
1030.153	0.06
1030.571	0.06
1030.988	0.06
1031.406	0.06
1031.823	0.06
1032.241	0.06
1032.659	0.06
1033.076	0.06
1033.493	0.06
1033.911	0.06
1034.328	0.06
1034.746	0.06
1035.163	0.06
1035.58	0.05
1035.997	0.05
1036.415	0.05
1036.832	0.05
1037.249	0.05
1037.666	0.05
1038.083	0.05
1038.501	0.05
1038.918	0.05
1039.335	0.05
1039.752	0.05
1040.169	0.05
1040.586	0.05
1041.003	0.05
1041.419	0.05
1041.836	0.05
1042.253	0.05
1042.67	0.05
1043.087	0.05
1043.504	0.05
1043.92	0.05
1044.337	0.05
1044.754	0.05
1045.17	0.05
1045.587	0.05
1046.004	0.05
1046.42	0.05
1046.837	0.05
1047.253	0.05
1047.67	0.05
1048.086	0.05
1048.503	0.05
1048.919	0.05
1049.335	0.05
1049.752	0.05
1050.168	0.05
1050.584	0.05
1051.001	0.05
1051.417	0.05
1051.833	0.05
1052.249	0.05
1052.665	0.05
1053.081	0.05
1053.497	0.05
1053.914	0.05
1054.33	0.05
1054.746	0.05
1055.162	0.05
1055.578	0.05
1055.993	0.05
1056.409	0.05
1056.825	0.05
1057.241	0.05
1057.657	0.05
1058.073	0.05
1058.488	0.05
1058.904	0.05
1059.32	0.05
1059.736	0.05
1060.151	0.05
1060.567	0.05
1060.982	0.05
1061.398	0.05
1061.813	0.05
1062.229	0.05
1062.644	0.05
1063.06	0.05
1063.475	0.05
1063.891	0.05
1064.306	0.05
1064.721	0.05
1065.137	0.05
1065.552	0.05
1065.967	0.05
1066.382	0.05
1066.798	0.05
1067.213	0.05
1067.628	0.05
1068.043	0.05
1068.458	0.05
1068.873	0.05
1069.288	0.05
1069.703	0.05
1070.118	0.05
1070.533	0.05
1070.948	0.05
1071.363	0.05
1071.778	0.05
1072.193	0.05
1072.607	0.05
1073.022	0.05
1073.437	0.05
1073.852	0.05
1074.266	0.05
1074.681	0.05
1075.096	0.05
1075.51	0.05
1075.925	0.05
1076.339	0.05
1076.754	0.05
1077.168	0.05
1077.583	0.05
1077.997	0.05
1078.412	0.05
1078.826	0.05
1079.24	0.05
1079.655	0.05
1080.069	0.05
1080.483	0.05
1080.897	0.05
1081.312	0.05
1081.726	0.05
1082.14	0.05
1082.554	0.06
1082.968	0.06
1083.382	0.06
1083.796	0.06
1084.21	0.06
1084.624	0.06
1085.038	0.06
1085.452	0.06
1085.866	0.07
1086.28	0.07
1086.694	0.07
1087.108	0.07
1087.521	0.07
1087.935	0.07
1088.349	0.07
1088.763	0.07
1089.176	0.07
1089.59	0.07
1090.004	0.08
1090.417	0.08
1090.831	0.08
1091.244	0.08
1091.658	0.09
1092.071	0.09
1092.485	0.09
1092.898	0.1
1093.312	0.1
1093.725	0.1
1094.138	0.11
1094.552	0.11
1094.965	0.11
1095.378	0.12
1095.791	0.12
1096.205	0.12
1096.618	0.13
1097.031	0.13
1097.444	0.14
1097.857	0.14
1098.27	0.15
1098.683	0.15
1099.096	0.16
1099.509	0.17
1099.922	0.17
1100.335	0.18
1100.748	0.19
1101.161	0.2
1101.574	0.21
1101.986	0.22
1102.399	0.23
1102.812	0.24
1103.225	0.25
1103.637	0.27
1104.05	0.28
1104.463	0.3
1104.875	0.32
1105.288	0.34
1105.7	0.36
1106.113	0.38
1106.525	0.41
1106.938	0.45
1107.35	0.5
1107.763	0.69
1108.175	1.13
1108.588	-0
1109	-0
1109.412	-0
1109.824	-0
1110.237	-0
1110.649	-0
1111.061	-0
