Data from unagg-15c-2a-1h_Absorbance__50__00477.txt Node

Date: Mon May 06 09:34:24 CEST 2024
User: Laser008
Spectrometer: MAYP115816
Trigger mode: 0
Integration Time (sec): 2.000000E-1
Scans to average: 10
Electric dark correction enabled: true
Nonlinearity correction enabled: true
Boxcar width: 5
XAxis mode: Wavelengths
Number of Pixels in Spectrum: 2068
>>>>>Begin Spectral Data<<<<<
198.914	-1.58
199.384	-1.44
199.855	-1.3
200.325	-1.18
200.796	-1.1
201.266	-1.05
201.737	-0.98
202.207	-0.93
202.677	-0.88
203.147	-0.84
203.618	-0.81
204.088	-0.79
204.558	-0.76
205.028	-0.75
205.498	-0.75
205.968	-0.75
206.439	-0.75
206.909	-0.74
207.379	-0.74
207.849	-0.74
208.319	-0.74
208.789	-0.73
209.258	-0.73
209.728	-0.73
210.198	-0.73
210.668	-0.73
211.138	-0.73
211.608	-0.73
212.077	-0.73
212.547	-0.73
213.017	-0.72
213.486	-0.72
213.956	-0.72
214.426	-0.72
214.895	-0.72
215.365	-0.72
215.834	-0.72
216.304	-0.72
216.773	-0.71
217.243	-0.71
217.712	-0.71
218.181	-0.71
218.651	-0.71
219.12	-0.7
219.589	-0.7
220.058	-0.7
220.528	-0.7
220.997	-0.7
221.466	-0.69
221.935	-0.69
222.404	-0.68
222.873	-0.68
223.342	-0.67
223.812	-0.67
224.281	-0.66
224.749	-0.65
225.218	-0.64
225.687	-0.63
226.156	-0.62
226.625	-0.6
227.094	-0.59
227.563	-0.57
228.031	-0.55
228.5	-0.53
228.969	-0.5
229.438	-0.47
229.906	-0.44
230.375	-0.41
230.844	-0.37
231.312	-0.33
231.781	-0.28
232.249	-0.24
232.718	-0.19
233.186	-0.14
233.655	-0.09
234.123	-0.04
234.591	0.01
235.06	0.06
235.528	0.11
235.996	0.16
236.465	0.2
236.933	0.25
237.401	0.29
237.869	0.34
238.337	0.38
238.805	0.42
239.274	0.46
239.742	0.49
240.21	0.52
240.678	0.56
241.146	0.59
241.614	0.61
242.081	0.64
242.549	0.66
243.017	0.69
243.485	0.71
243.953	0.73
244.421	0.75
244.888	0.76
245.356	0.78
245.824	0.79
246.291	0.81
246.759	0.82
247.227	0.83
247.694	0.85
248.162	0.86
248.629	0.87
249.097	0.88
249.564	0.89
250.032	0.9
250.499	0.91
250.967	0.91
251.434	0.92
251.901	0.93
252.369	0.94
252.836	0.94
253.303	0.95
253.77	0.95
254.237	0.96
254.705	0.96
255.172	0.97
255.639	0.97
256.106	0.98
256.573	0.98
257.04	0.98
257.507	0.98
257.974	0.99
258.441	0.99
258.908	0.99
259.375	0.99
259.841	1
260.308	1
260.775	1
261.242	1
261.709	1
262.175	1
262.642	1
263.109	1
263.575	1
264.042	1
264.508	1
264.975	1
265.441	1
265.908	1
266.374	1
266.841	1
267.307	1
267.773	1
268.24	1
268.706	0.99
269.172	0.99
269.639	0.99
270.105	0.99
270.571	0.99
271.037	0.98
271.503	0.98
271.969	0.98
272.435	0.98
272.902	0.98
273.368	0.97
273.834	0.97
274.3	0.97
274.765	0.97
275.231	0.96
275.697	0.96
276.163	0.96
276.629	0.95
277.095	0.95
277.56	0.94
278.026	0.94
278.492	0.93
278.958	0.93
279.423	0.93
279.889	0.92
280.354	0.92
280.82	0.92
281.286	0.91
281.751	0.91
282.217	0.91
282.682	0.91
283.147	0.9
283.613	0.9
284.078	0.9
284.544	0.9
285.009	0.89
285.474	0.89
285.939	0.88
286.405	0.88
286.87	0.88
287.335	0.87
287.8	0.87
288.265	0.87
288.73	0.86
289.195	0.86
289.66	0.86
290.125	0.85
290.59	0.85
291.055	0.85
291.52	0.85
291.985	0.84
292.45	0.84
292.915	0.84
293.38	0.83
293.844	0.83
294.309	0.83
294.774	0.83
295.239	0.82
295.703	0.82
296.168	0.82
296.632	0.82
297.097	0.81
297.562	0.81
298.026	0.81
298.491	0.81
298.955	0.8
299.419	0.8
299.884	0.8
300.348	0.8
300.813	0.8
301.277	0.79
301.741	0.79
302.205	0.79
302.67	0.79
303.134	0.79
303.598	0.78
304.062	0.78
304.526	0.78
304.99	0.78
305.454	0.78
305.919	0.77
306.383	0.77
306.847	0.77
307.31	0.77
307.774	0.77
308.238	0.76
308.702	0.76
309.166	0.76
309.63	0.76
310.094	0.76
310.557	0.76
311.021	0.75
311.485	0.75
311.948	0.75
312.412	0.75
312.876	0.75
313.339	0.74
313.803	0.74
314.266	0.74
314.73	0.74
315.193	0.74
315.657	0.73
316.12	0.73
316.584	0.73
317.047	0.73
317.51	0.73
317.973	0.73
318.437	0.72
318.9	0.72
319.363	0.72
319.826	0.72
320.29	0.72
320.753	0.72
321.216	0.71
321.679	0.71
322.142	0.71
322.605	0.71
323.068	0.71
323.531	0.7
323.994	0.7
324.457	0.7
324.92	0.7
325.382	0.7
325.845	0.7
326.308	0.7
326.771	0.69
327.233	0.69
327.696	0.69
328.159	0.69
328.622	0.69
329.084	0.69
329.547	0.68
330.009	0.68
330.472	0.68
330.934	0.68
331.397	0.68
331.859	0.68
332.322	0.68
332.784	0.67
333.246	0.67
333.709	0.67
334.171	0.67
334.633	0.67
335.096	0.67
335.558	0.67
336.02	0.66
336.482	0.66
336.944	0.66
337.406	0.66
337.868	0.66
338.331	0.66
338.793	0.66
339.255	0.66
339.717	0.65
340.178	0.65
340.64	0.65
341.102	0.65
341.564	0.65
342.026	0.65
342.488	0.65
342.949	0.65
343.411	0.65
343.873	0.64
344.335	0.64
344.796	0.64
345.258	0.64
345.719	0.64
346.181	0.64
346.643	0.64
347.104	0.64
347.566	0.64
348.027	0.64
348.488	0.64
348.95	0.64
349.411	0.63
349.873	0.63
350.334	0.63
350.795	0.63
351.256	0.63
351.718	0.63
352.179	0.63
352.64	0.63
353.101	0.63
353.562	0.63
354.023	0.63
354.484	0.62
354.945	0.62
355.406	0.62
355.867	0.62
356.328	0.62
356.789	0.62
357.25	0.62
357.711	0.62
358.172	0.62
358.633	0.62
359.093	0.62
359.554	0.62
360.015	0.62
360.476	0.62
360.936	0.62
361.397	0.62
361.858	0.62
362.318	0.62
362.779	0.62
363.239	0.62
363.7	0.62
364.16	0.62
364.621	0.62
365.081	0.62
365.541	0.62
366.002	0.62
366.462	0.62
366.922	0.62
367.383	0.61
367.843	0.61
368.303	0.61
368.763	0.61
369.223	0.61
369.684	0.61
370.144	0.61
370.604	0.61
371.064	0.61
371.524	0.61
371.984	0.61
372.444	0.61
372.904	0.61
373.363	0.61
373.823	0.61
374.283	0.61
374.743	0.61
375.203	0.6
375.663	0.6
376.122	0.6
376.582	0.6
377.042	0.6
377.501	0.6
377.961	0.6
378.42	0.6
378.88	0.6
379.34	0.6
379.799	0.6
380.259	0.6
380.718	0.6
381.177	0.6
381.637	0.6
382.096	0.6
382.555	0.6
383.015	0.6
383.474	0.6
383.933	0.6
384.393	0.6
384.852	0.6
385.311	0.6
385.77	0.6
386.229	0.6
386.688	0.59
387.147	0.59
387.606	0.59
388.065	0.59
388.524	0.59
388.983	0.59
389.442	0.59
389.901	0.59
390.36	0.59
390.819	0.59
391.277	0.59
391.736	0.59
392.195	0.59
392.654	0.59
393.112	0.59
393.571	0.59
394.03	0.59
394.488	0.59
394.947	0.59
395.405	0.59
395.864	0.59
396.322	0.59
396.781	0.59
397.239	0.59
397.698	0.59
398.156	0.59
398.614	0.58
399.073	0.58
399.531	0.58
399.989	0.58
400.447	0.58
400.905	0.58
401.364	0.58
401.822	0.58
402.28	0.58
402.738	0.58
403.196	0.58
403.654	0.58
404.112	0.58
404.57	0.58
405.028	0.58
405.486	0.58
405.944	0.57
406.402	0.57
406.859	0.57
407.317	0.57
407.775	0.57
408.233	0.57
408.691	0.57
409.148	0.57
409.606	0.57
410.064	0.57
410.521	0.57
410.979	0.57
411.436	0.57
411.894	0.57
412.351	0.57
412.809	0.57
413.266	0.56
413.724	0.56
414.181	0.56
414.638	0.56
415.096	0.56
415.553	0.56
416.01	0.56
416.467	0.56
416.925	0.56
417.382	0.56
417.839	0.56
418.296	0.56
418.753	0.56
419.21	0.56
419.667	0.56
420.124	0.56
420.581	0.56
421.038	0.56
421.495	0.56
421.952	0.56
422.409	0.56
422.866	0.56
423.322	0.56
423.779	0.56
424.236	0.56
424.693	0.56
425.149	0.56
425.606	0.56
426.063	0.56
426.519	0.55
426.976	0.55
427.433	0.55
427.889	0.55
428.346	0.55
428.802	0.56
429.258	0.56
429.715	0.56
430.171	0.56
430.628	0.56
431.084	0.56
431.54	0.56
431.997	0.56
432.453	0.55
432.909	0.55
433.365	0.55
433.821	0.55
434.277	0.55
434.734	0.55
435.19	0.55
435.646	0.55
436.102	0.55
436.558	0.55
437.014	0.55
437.47	0.55
437.925	0.55
438.381	0.55
438.837	0.55
439.293	0.55
439.749	0.55
440.205	0.55
440.66	0.55
441.116	0.55
441.572	0.55
442.027	0.55
442.483	0.55
442.939	0.55
443.394	0.55
443.85	0.55
444.305	0.55
444.761	0.55
445.216	0.55
445.672	0.55
446.127	0.55
446.582	0.55
447.038	0.55
447.493	0.55
447.948	0.55
448.403	0.55
448.859	0.55
449.314	0.55
449.769	0.55
450.224	0.55
450.679	0.55
451.134	0.55
451.589	0.55
452.044	0.55
452.499	0.55
452.954	0.55
453.409	0.55
453.864	0.54
454.319	0.54
454.774	0.54
455.229	0.54
455.684	0.54
456.138	0.54
456.593	0.54
457.048	0.54
457.503	0.54
457.957	0.54
458.412	0.54
458.866	0.55
459.321	0.55
459.776	0.55
460.23	0.54
460.685	0.54
461.139	0.54
461.593	0.54
462.048	0.54
462.502	0.54
462.957	0.55
463.411	0.55
463.865	0.55
464.319	0.55
464.774	0.55
465.228	0.55
465.682	0.55
466.136	0.55
466.59	0.55
467.044	0.55
467.499	0.55
467.953	0.55
468.407	0.55
468.861	0.55
469.315	0.55
469.768	0.55
470.222	0.55
470.676	0.55
471.13	0.55
471.584	0.55
472.038	0.55
472.491	0.55
472.945	0.55
473.399	0.55
473.852	0.56
474.306	0.56
474.76	0.56
475.213	0.56
475.667	0.56
476.12	0.56
476.574	0.57
477.027	0.57
477.481	0.57
477.934	0.57
478.388	0.57
478.841	0.57
479.294	0.57
479.748	0.57
480.201	0.58
480.654	0.58
481.107	0.58
481.561	0.58
482.014	0.58
482.467	0.59
482.92	0.59
483.373	0.59
483.826	0.6
484.279	0.6
484.732	0.6
485.185	0.61
485.638	0.61
486.091	0.61
486.544	0.61
486.997	0.61
487.449	0.62
487.902	0.62
488.355	0.62
488.808	0.62
489.26	0.62
489.713	0.62
490.166	0.62
490.618	0.62
491.071	0.62
491.523	0.63
491.976	0.63
492.429	0.63
492.881	0.63
493.333	0.64
493.786	0.64
494.238	0.65
494.691	0.65
495.143	0.65
495.595	0.66
496.048	0.66
496.5	0.66
496.952	0.67
497.404	0.67
497.856	0.67
498.309	0.68
498.761	0.68
499.213	0.68
499.665	0.68
500.117	0.69
500.569	0.69
501.021	0.7
501.473	0.7
501.925	0.7
502.377	0.71
502.828	0.71
503.28	0.71
503.732	0.72
504.184	0.72
504.636	0.72
505.087	0.73
505.539	0.73
505.991	0.73
506.442	0.73
506.894	0.73
507.345	0.74
507.797	0.74
508.249	0.74
508.7	0.74
509.151	0.75
509.603	0.75
510.054	0.75
510.506	0.75
510.957	0.76
511.408	0.76
511.86	0.76
512.311	0.76
512.762	0.76
513.213	0.76
513.665	0.76
514.116	0.76
514.567	0.76
515.018	0.76
515.469	0.77
515.92	0.77
516.371	0.77
516.822	0.77
517.273	0.77
517.724	0.77
518.175	0.77
518.626	0.77
519.076	0.77
519.527	0.77
519.978	0.77
520.429	0.76
520.88	0.76
521.33	0.76
521.781	0.75
522.232	0.75
522.682	0.75
523.133	0.75
523.583	0.75
524.034	0.76
524.484	0.76
524.935	0.77
525.385	0.77
525.836	0.77
526.286	0.78
526.736	0.78
527.187	0.78
527.637	0.79
528.087	0.79
528.538	0.79
528.988	0.79
529.438	0.79
529.888	0.79
530.338	0.79
530.788	0.79
531.238	0.79
531.688	0.79
532.139	0.79
532.589	0.79
533.038	0.78
533.488	0.78
533.938	0.78
534.388	0.78
534.838	0.78
535.288	0.78
535.738	0.78
536.187	0.78
536.637	0.77
537.087	0.77
537.537	0.77
537.986	0.77
538.436	0.76
538.885	0.76
539.335	0.76
539.785	0.76
540.234	0.75
540.684	0.75
541.133	0.75
541.582	0.74
542.032	0.74
542.481	0.74
542.931	0.73
543.38	0.73
543.829	0.73
544.278	0.72
544.728	0.72
545.177	0.72
545.626	0.71
546.075	0.71
546.524	0.71
546.973	0.7
547.422	0.7
547.871	0.69
548.32	0.69
548.769	0.68
549.218	0.68
549.667	0.68
550.116	0.67
550.565	0.67
551.014	0.66
551.463	0.66
551.911	0.65
552.36	0.65
552.809	0.64
553.258	0.64
553.706	0.64
554.155	0.63
554.603	0.63
555.052	0.62
555.501	0.62
555.949	0.61
556.398	0.6
556.846	0.6
557.294	0.59
557.743	0.59
558.191	0.58
558.64	0.58
559.088	0.57
559.536	0.57
559.985	0.56
560.433	0.56
560.881	0.56
561.329	0.55
561.777	0.55
562.225	0.55
562.674	0.54
563.122	0.54
563.57	0.53
564.018	0.53
564.466	0.52
564.914	0.52
565.362	0.51
565.809	0.51
566.257	0.5
566.705	0.5
567.153	0.5
567.601	0.49
568.048	0.49
568.496	0.49
568.944	0.48
569.392	0.48
569.839	0.48
570.287	0.47
570.734	0.47
571.182	0.47
571.63	0.47
572.077	0.46
572.525	0.46
572.972	0.46
573.419	0.45
573.867	0.45
574.314	0.45
574.761	0.44
575.209	0.44
575.656	0.44
576.103	0.43
576.551	0.43
576.998	0.43
577.445	0.42
577.892	0.42
578.339	0.42
578.786	0.42
579.233	0.41
579.68	0.41
580.127	0.41
580.574	0.4
581.021	0.4
581.468	0.4
581.915	0.39
582.362	0.39
582.809	0.39
583.255	0.39
583.702	0.38
584.149	0.38
584.596	0.37
585.042	0.37
585.489	0.37
585.936	0.36
586.382	0.36
586.829	0.36
587.275	0.36
587.722	0.35
588.168	0.35
588.615	0.35
589.061	0.35
589.508	0.34
589.954	0.34
590.4	0.34
590.847	0.34
591.293	0.33
591.739	0.33
592.185	0.33
592.632	0.33
593.078	0.33
593.524	0.33
593.97	0.32
594.416	0.32
594.862	0.32
595.308	0.32
595.754	0.32
596.2	0.32
596.646	0.32
597.092	0.32
597.538	0.32
597.984	0.32
598.43	0.31
598.876	0.31
599.321	0.31
599.767	0.31
600.213	0.31
600.659	0.31
601.104	0.31
601.55	0.3
601.995	0.3
602.441	0.3
602.887	0.3
603.332	0.3
603.778	0.3
604.223	0.3
604.668	0.3
605.114	0.3
605.559	0.3
606.005	0.3
606.45	0.3
606.895	0.3
607.341	0.3
607.786	0.3
608.231	0.3
608.676	0.3
609.121	0.3
609.566	0.3
610.012	0.3
610.457	0.3
610.902	0.3
611.347	0.3
611.792	0.3
612.237	0.3
612.682	0.3
613.127	0.3
613.571	0.3
614.016	0.3
614.461	0.3
614.906	0.3
615.351	0.3
615.795	0.3
616.24	0.3
616.685	0.3
617.129	0.3
617.574	0.3
618.019	0.3
618.463	0.3
618.908	0.3
619.352	0.3
619.797	0.3
620.241	0.31
620.686	0.31
621.13	0.31
621.574	0.31
622.019	0.31
622.463	0.31
622.907	0.31
623.352	0.31
623.796	0.32
624.24	0.32
624.684	0.32
625.128	0.32
625.572	0.32
626.016	0.32
626.461	0.33
626.905	0.33
627.349	0.33
627.793	0.33
628.236	0.34
628.68	0.34
629.124	0.34
629.568	0.34
630.012	0.34
630.456	0.35
630.9	0.35
631.343	0.35
631.787	0.35
632.231	0.35
632.674	0.36
633.118	0.36
633.562	0.36
634.005	0.36
634.449	0.37
634.892	0.37
635.336	0.37
635.779	0.38
636.223	0.38
636.666	0.38
637.109	0.38
637.553	0.39
637.996	0.39
638.439	0.4
638.883	0.4
639.326	0.4
639.769	0.41
640.212	0.41
640.655	0.41
641.099	0.42
641.542	0.42
641.985	0.43
642.428	0.43
642.871	0.44
643.314	0.44
643.757	0.45
644.2	0.45
644.643	0.45
645.085	0.46
645.528	0.46
645.971	0.47
646.414	0.47
646.857	0.48
647.299	0.48
647.742	0.49
648.185	0.49
648.627	0.5
649.07	0.51
649.513	0.51
649.955	0.52
650.398	0.52
650.84	0.53
651.283	0.53
651.725	0.54
652.168	0.54
652.61	0.55
653.052	0.56
653.495	0.55
653.937	0.48
654.379	0.45
654.821	0.46
655.264	0.46
655.706	0.47
656.148	0.47
656.59	0.48
657.032	0.48
657.474	0.48
657.916	0.48
658.358	0.49
658.8	0.56
659.242	0.64
659.684	0.64
660.126	0.65
660.568	0.65
661.01	0.66
661.452	0.66
661.894	0.67
662.335	0.68
662.777	0.68
663.219	0.69
663.661	0.69
664.102	0.7
664.544	0.7
664.985	0.71
665.427	0.71
665.869	0.72
666.31	0.73
666.752	0.73
667.193	0.74
667.634	0.74
668.076	0.75
668.517	0.75
668.959	0.76
669.4	0.76
669.841	0.77
670.282	0.78
670.724	0.78
671.165	0.79
671.606	0.79
672.047	0.79
672.488	0.8
672.929	0.8
673.37	0.8
673.811	0.81
674.252	0.81
674.693	0.81
675.134	0.81
675.575	0.82
676.016	0.82
676.457	0.82
676.898	0.82
677.339	0.83
677.78	0.83
678.22	0.83
678.661	0.83
679.102	0.84
679.542	0.84
679.983	0.84
680.424	0.84
680.864	0.84
681.305	0.84
681.745	0.84
682.186	0.84
682.626	0.85
683.067	0.85
683.507	0.85
683.948	0.85
684.388	0.85
684.828	0.85
685.269	0.85
685.709	0.86
686.149	0.86
686.589	0.86
687.029	0.86
687.47	0.86
687.91	0.85
688.35	0.85
688.79	0.85
689.23	0.85
689.67	0.85
690.11	0.85
690.55	0.85
690.99	0.85
691.43	0.85
691.87	0.85
692.31	0.85
692.749	0.84
693.189	0.84
693.629	0.84
694.069	0.84
694.508	0.84
694.948	0.83
695.388	0.83
695.827	0.83
696.267	0.83
696.706	0.83
697.146	0.82
697.586	0.82
698.025	0.82
698.464	0.81
698.904	0.81
699.343	0.81
699.783	0.8
700.222	0.8
700.661	0.79
701.101	0.79
701.54	0.78
701.979	0.78
702.418	0.78
702.857	0.77
703.297	0.77
703.736	0.77
704.175	0.76
704.614	0.76
705.053	0.75
705.492	0.75
705.931	0.74
706.37	0.74
706.809	0.74
707.248	0.73
707.687	0.73
708.125	0.72
708.564	0.72
709.003	0.71
709.442	0.71
709.88	0.7
710.319	0.7
710.758	0.69
711.196	0.69
711.635	0.68
712.074	0.68
712.512	0.67
712.951	0.67
713.389	0.66
713.828	0.66
714.266	0.65
714.705	0.65
715.143	0.64
715.581	0.63
716.02	0.63
716.458	0.62
716.896	0.62
717.334	0.61
717.773	0.61
718.211	0.6
718.649	0.6
719.087	0.59
719.525	0.59
719.963	0.58
720.401	0.58
720.839	0.57
721.277	0.57
721.715	0.56
722.153	0.55
722.591	0.55
723.029	0.54
723.467	0.54
723.905	0.53
724.342	0.53
724.78	0.52
725.218	0.52
725.656	0.51
726.093	0.51
726.531	0.5
726.969	0.5
727.406	0.49
727.844	0.49
728.281	0.48
728.719	0.48
729.156	0.48
729.594	0.47
730.031	0.47
730.469	0.46
730.906	0.46
731.343	0.45
731.781	0.45
732.218	0.45
732.655	0.44
733.092	0.44
733.53	0.44
733.967	0.43
734.404	0.43
734.841	0.42
735.278	0.42
735.715	0.42
736.152	0.41
736.589	0.41
737.026	0.4
737.463	0.4
737.9	0.39
738.337	0.39
738.774	0.38
739.211	0.38
739.647	0.38
740.084	0.37
740.521	0.37
740.958	0.36
741.394	0.36
741.831	0.35
742.268	0.35
742.704	0.35
743.141	0.34
743.577	0.34
744.014	0.33
744.45	0.33
744.887	0.32
745.323	0.32
745.76	0.31
746.196	0.31
746.632	0.31
747.069	0.3
747.505	0.3
747.941	0.3
748.378	0.3
748.814	0.29
749.25	0.29
749.686	0.29
750.122	0.29
750.558	0.28
750.994	0.28
751.43	0.28
751.866	0.28
752.302	0.28
752.738	0.27
753.174	0.27
753.61	0.27
754.046	0.27
754.482	0.26
754.918	0.26
755.354	0.26
755.789	0.26
756.225	0.25
756.661	0.25
757.096	0.25
757.532	0.25
757.968	0.25
758.403	0.24
758.839	0.24
759.274	0.24
759.71	0.23
760.145	0.23
760.581	0.23
761.016	0.22
761.452	0.22
761.887	0.22
762.322	0.22
762.758	0.21
763.193	0.21
763.628	0.21
764.063	0.2
764.499	0.2
764.934	0.2
765.369	0.2
765.804	0.19
766.239	0.19
766.674	0.19
767.109	0.18
767.544	0.18
767.979	0.18
768.414	0.17
768.849	0.17
769.284	0.17
769.719	0.17
770.154	0.16
770.588	0.16
771.023	0.15
771.458	0.15
771.893	0.15
772.327	0.15
772.762	0.14
773.197	0.14
773.631	0.14
774.066	0.13
774.5	0.13
774.935	0.13
775.369	0.12
775.804	0.12
776.238	0.12
776.673	0.11
777.107	0.11
777.541	0.11
777.976	0.1
778.41	0.1
778.844	0.09
779.279	0.09
779.713	0.08
780.147	0.08
780.581	0.07
781.015	0.07
781.449	0.06
781.883	0.06
782.317	0.05
782.751	0.04
783.185	0.03
783.619	0.03
784.053	0.02
784.487	0.01
784.921	0
785.355	-0.01
785.789	-0.02
786.223	-0.02
786.656	-0.02
787.09	-0.03
787.524	-0.03
787.957	-0.04
788.391	-0.05
788.825	-0.05
789.258	-0.05
789.692	-0.06
790.125	-0.06
790.559	-0.06
790.992	-0.06
791.426	-0.06
791.859	-0.06
792.293	-0.05
792.726	-0.05
793.159	-0.04
793.593	-0.04
794.026	-0.04
794.459	-0.05
794.892	-0.05
795.326	-0.05
795.759	-0.05
796.192	-0.05
796.625	-0.06
797.058	-0.07
797.491	-0.07
797.924	-0.08
798.357	-0.08
798.79	-0.08
799.223	-0.08
799.656	-0.08
800.089	-0.08
800.522	-0.09
800.955	-0.09
801.387	-0.09
801.82	-0.09
802.253	-0.09
802.686	-0.09
803.118	-0.09
803.551	-0.09
803.984	-0.09
804.416	-0.08
804.849	-0.08
805.281	-0.07
805.714	-0.07
806.146	-0.07
806.579	-0.07
807.011	-0.07
807.444	-0.07
807.876	-0.07
808.308	-0.07
808.741	-0.07
809.173	-0.08
809.605	-0.08
810.037	-0.08
810.47	-0.09
810.902	-0.09
811.334	-0.09
811.766	-0.08
812.198	-0.08
812.63	-0.08
813.062	-0.08
813.494	-0.08
813.926	-0.08
814.358	-0.08
814.79	-0.08
815.222	-0.08
815.654	-0.07
816.086	-0.07
816.518	-0.08
816.949	-0.08
817.381	-0.08
817.813	-0.07
818.245	-0.07
818.676	-0.06
819.108	-0.05
819.54	-0.05
819.971	-0.04
820.403	-0.04
820.834	-0.03
821.266	-0.02
821.697	-0.01
822.129	-0
822.56	0
822.991	0.01
823.423	0.01
823.854	0.02
824.286	0.02
824.717	0.03
825.148	0.03
825.579	0.04
826.01	0.04
826.442	0.04
826.873	0.04
827.304	0.04
827.735	0.05
828.166	0.05
828.597	0.05
829.028	0.05
829.459	0.05
829.89	0.05
830.321	0.06
830.752	0.06
831.183	0.06
831.613	0.06
832.044	0.06
832.475	0.06
832.906	0.07
833.336	0.07
833.767	0.07
834.198	0.07
834.628	0.07
835.059	0.07
835.49	0.07
835.92	0.07
836.351	0.07
836.781	0.08
837.212	0.08
837.642	0.08
838.072	0.08
838.503	0.08
838.933	0.08
839.364	0.08
839.794	0.08
840.224	0.08
840.654	0.08
841.085	0.08
841.515	0.08
841.945	0.08
842.375	0.08
842.805	0.07
843.235	0.07
843.665	0.07
844.095	0.07
844.525	0.07
844.955	0.07
845.385	0.07
845.815	0.07
846.245	0.07
846.675	0.07
847.105	0.07
847.534	0.07
847.964	0.07
848.394	0.07
848.824	0.07
849.253	0.07
849.683	0.07
850.112	0.07
850.542	0.07
850.972	0.07
851.401	0.07
851.831	0.07
852.26	0.07
852.69	0.07
853.119	0.07
853.548	0.07
853.978	0.07
854.407	0.07
854.836	0.07
855.266	0.07
855.695	0.07
856.124	0.07
856.553	0.07
856.983	0.06
857.412	0.06
857.841	0.06
858.27	0.06
858.699	0.06
859.128	0.06
859.557	0.06
859.986	0.06
860.415	0.06
860.844	0.06
861.273	0.06
861.702	0.06
862.13	0.06
862.559	0.06
862.988	0.06
863.417	0.06
863.845	0.06
864.274	0.06
864.703	0.06
865.131	0.06
865.56	0.06
865.989	0.06
866.417	0.06
866.846	0.06
867.274	0.06
867.703	0.06
868.131	0.06
868.559	0.06
868.988	0.06
869.416	0.06
869.844	0.06
870.273	0.06
870.701	0.05
871.129	0.05
871.557	0.05
871.986	0.05
872.414	0.05
872.842	0.05
873.27	0.05
873.698	0.05
874.126	0.05
874.554	0.05
874.982	0.05
875.41	0.05
875.838	0.05
876.266	0.05
876.694	0.05
877.122	0.05
877.549	0.05
877.977	0.05
878.405	0.05
878.833	0.05
879.26	0.05
879.688	0.05
880.116	0.05
880.543	0.05
880.971	0.05
881.399	0.05
881.826	0.05
882.254	0.05
882.681	0.05
883.109	0.05
883.536	0.05
883.963	0.05
884.391	0.06
884.818	0.06
885.245	0.06
885.673	0.06
886.1	0.06
886.527	0.06
886.954	0.06
887.381	0.06
887.809	0.06
888.236	0.06
888.663	0.06
889.09	0.06
889.517	0.06
889.944	0.06
890.371	0.06
890.798	0.06
891.225	0.06
891.652	0.05
892.078	0.05
892.505	0.05
892.932	0.05
893.359	0.05
893.786	0.05
894.212	0.05
894.639	0.05
895.066	0.05
895.492	0.05
895.919	0.05
896.346	0.05
896.772	0.05
897.199	0.05
897.625	0.05
898.052	0.05
898.478	0.05
898.904	0.05
899.331	0.05
899.757	0.05
900.183	0.05
900.61	0.05
901.036	0.05
901.462	0.05
901.888	0.05
902.315	0.05
902.741	0.05
903.167	0.05
903.593	0.06
904.019	0.06
904.445	0.06
904.871	0.06
905.297	0.06
905.723	0.05
906.149	0.05
906.575	0.05
907.001	0.05
907.427	0.05
907.852	0.05
908.278	0.05
908.704	0.05
909.13	0.05
909.555	0.05
909.981	0.05
910.407	0.05
910.832	0.05
911.258	0.05
911.684	0.05
912.109	0.05
912.535	0.05
912.96	0.05
913.386	0.05
913.811	0.05
914.236	0.05
914.662	0.06
915.087	0.06
915.512	0.06
915.938	0.06
916.363	0.06
916.788	0.05
917.213	0.05
917.639	0.05
918.064	0.05
918.489	0.05
918.914	0.05
919.339	0.05
919.764	0.05
920.189	0.05
920.614	0.05
921.039	0.05
921.464	0.06
921.889	0.06
922.314	0.06
922.738	0.06
923.163	0.06
923.588	0.05
924.013	0.05
924.437	0.05
924.862	0.05
925.287	0.05
925.711	0.05
926.136	0.05
926.561	0.05
926.985	0.05
927.41	0.05
927.834	0.05
928.259	0.05
928.683	0.05
929.108	0.05
929.532	0.05
929.956	0.05
930.381	0.05
930.805	0.05
931.229	0.05
931.653	0.05
932.078	0.05
932.502	0.04
932.926	0.04
933.35	0.04
933.774	0.04
934.198	0.04
934.622	0.04
935.046	0.04
935.47	0.04
935.894	0.04
936.318	0.04
936.742	0.04
937.166	0.04
937.59	0.04
938.014	0.04
938.437	0.04
938.861	0.04
939.285	0.04
939.709	0.04
940.132	0.04
940.556	0.04
940.98	0.04
941.403	0.04
941.827	0.05
942.25	0.05
942.674	0.05
943.097	0.05
943.521	0.05
943.944	0.04
944.368	0.04
944.791	0.04
945.214	0.04
945.638	0.04
946.061	0.04
946.484	0.04
946.907	0.04
947.331	0.04
947.754	0.04
948.177	0.04
948.6	0.04
949.023	0.04
949.446	0.04
949.869	0.04
950.292	0.04
950.715	0.04
951.138	0.04
951.561	0.04
951.984	0.04
952.407	0.04
952.83	0.04
953.252	0.04
953.675	0.04
954.098	0.04
954.521	0.04
954.943	0.04
955.366	0.04
955.789	0.04
956.211	0.04
956.634	0.04
957.056	0.04
957.479	0.04
957.902	0.04
958.324	0.04
958.746	0.04
959.169	0.04
959.591	0.04
960.014	0.04
960.436	0.04
960.858	0.04
961.281	0.04
961.703	0.04
962.125	0.04
962.547	0.04
962.969	0.04
963.391	0.04
963.814	0.04
964.236	0.04
964.658	0.05
965.08	0.05
965.502	0.05
965.924	0.05
966.346	0.05
966.768	0.05
967.189	0.05
967.611	0.05
968.033	0.05
968.455	0.04
968.877	0.04
969.298	0.04
969.72	0.04
970.142	0.04
970.563	0.04
970.985	0.04
971.407	0.04
971.828	0.04
972.25	0.04
972.671	0.04
973.093	0.04
973.514	0.04
973.936	0.04
974.357	0.04
974.778	0.04
975.2	0.04
975.621	0.04
976.042	0.04
976.464	0.04
976.885	0.04
977.306	0.04
977.727	0.04
978.148	0.04
978.57	0.04
978.991	0.04
979.412	0.04
979.833	0.04
980.254	0.04
980.675	0.04
981.096	0.04
981.517	0.04
981.937	0.04
982.358	0.04
982.779	0.04
983.2	0.04
983.621	0.04
984.042	0.04
984.462	0.04
984.883	0.04
985.304	0.04
985.724	0.04
986.145	0.04
986.565	0.04
986.986	0.04
987.407	0.04
987.827	0.04
988.248	0.04
988.668	0.04
989.088	0.04
989.509	0.04
989.929	0.04
990.35	0.04
990.77	0.04
991.19	0.04
991.61	0.04
992.031	0.03
992.451	0.03
992.871	0.03
993.291	0.03
993.711	0.03
994.131	0.03
994.551	0.03
994.971	0.03
995.391	0.03
995.811	0.03
996.231	0.03
996.651	0.03
997.071	0.03
997.491	0.03
997.911	0.03
998.331	0.03
998.75	0.03
999.17	0.03
999.59	0.03
1000.009	0.03
1000.429	0.03
1000.849	0.03
1001.268	0.03
1001.688	0.03
1002.107	0.03
1002.527	0.03
1002.946	0.03
1003.366	0.03
1003.785	0.03
1004.205	0.03
1004.624	0.03
1005.044	0.03
1005.463	0.03
1005.882	0.03
1006.301	0.03
1006.721	0.03
1007.14	0.03
1007.559	0.03
1007.978	0.03
1008.397	0.03
1008.816	0.03
1009.235	0.03
1009.655	0.03
1010.074	0.03
1010.492	0.03
1010.911	0.03
1011.33	0.03
1011.749	0.03
1012.168	0.03
1012.587	0.03
1013.006	0.03
1013.425	0.03
1013.843	0.03
1014.262	0.03
1014.681	0.02
1015.099	0.02
1015.518	0.02
1015.937	0.02
1016.355	0.02
1016.774	0.02
1017.192	0.02
1017.611	0.02
1018.029	0.02
1018.448	0.02
1018.866	0.02
1019.285	0.02
1019.703	0.02
1020.121	0.02
1020.54	0.02
1020.958	0.02
1021.376	0.03
1021.794	0.03
1022.213	0.03
1022.631	0.03
1023.049	0.03
1023.467	0.03
1023.885	0.03
1024.303	0.03
1024.721	0.03
1025.139	0.03
1025.557	0.03
1025.975	0.03
1026.393	0.03
1026.811	0.03
1027.229	0.03
1027.647	0.03
1028.065	0.03
1028.482	0.04
1028.9	0.04
1029.318	0.04
1029.735	0.04
1030.153	0.04
1030.571	0.04
1030.988	0.04
1031.406	0.04
1031.823	0.04
1032.241	0.04
1032.659	0.04
1033.076	0.04
1033.493	0.04
1033.911	0.04
1034.328	0.04
1034.746	0.04
1035.163	0.04
1035.58	0.04
1035.997	0.03
1036.415	0.03
1036.832	0.03
1037.249	0.03
1037.666	0.03
1038.083	0.03
1038.501	0.03
1038.918	0.03
1039.335	0.03
1039.752	0.03
1040.169	0.03
1040.586	0.03
1041.003	0.03
1041.419	0.03
1041.836	0.03
1042.253	0.03
1042.67	0.03
1043.087	0.03
1043.504	0.03
1043.92	0.03
1044.337	0.03
1044.754	0.03
1045.17	0.03
1045.587	0.03
1046.004	0.03
1046.42	0.03
1046.837	0.03
1047.253	0.03
1047.67	0.03
1048.086	0.03
1048.503	0.03
1048.919	0.03
1049.335	0.03
1049.752	0.03
1050.168	0.03
1050.584	0.03
1051.001	0.03
1051.417	0.03
1051.833	0.03
1052.249	0.03
1052.665	0.03
1053.081	0.03
1053.497	0.03
1053.914	0.03
1054.33	0.03
1054.746	0.03
1055.162	0.03
1055.578	0.03
1055.993	0.03
1056.409	0.03
1056.825	0.03
1057.241	0.03
1057.657	0.03
1058.073	0.03
1058.488	0.03
1058.904	0.03
1059.32	0.03
1059.736	0.03
1060.151	0.03
1060.567	0.03
1060.982	0.03
1061.398	0.03
1061.813	0.03
1062.229	0.03
1062.644	0.03
1063.06	0.03
1063.475	0.03
1063.891	0.03
1064.306	0.03
1064.721	0.03
1065.137	0.02
1065.552	0.02
1065.967	0.02
1066.382	0.02
1066.798	0.02
1067.213	0.02
1067.628	0.02
1068.043	0.02
1068.458	0.02
1068.873	0.02
1069.288	0.02
1069.703	0.02
1070.118	0.02
1070.533	0.02
1070.948	0.02
1071.363	0.02
1071.778	0.02
1072.193	0.02
1072.607	0.03
1073.022	0.03
1073.437	0.03
1073.852	0.03
1074.266	0.03
1074.681	0.03
1075.096	0.03
1075.51	0.03
1075.925	0.03
1076.339	0.03
1076.754	0.02
1077.168	0.02
1077.583	0.02
1077.997	0.02
1078.412	0.02
1078.826	0.02
1079.24	0.02
1079.655	0.02
1080.069	0.02
1080.483	0.02
1080.897	0.02
1081.312	0.02
1081.726	0.03
1082.14	0.03
1082.554	0.03
1082.968	0.03
1083.382	0.03
1083.796	0.03
1084.21	0.03
1084.624	0.03
1085.038	0.03
1085.452	0.03
1085.866	0.03
1086.28	0.03
1086.694	0.03
1087.108	0.03
1087.521	0.03
1087.935	0.03
1088.349	0.04
1088.763	0.04
1089.176	0.04
1089.59	0.04
1090.004	0.04
1090.417	0.04
1090.831	0.04
1091.244	0.04
1091.658	0.04
1092.071	0.05
1092.485	0.05
1092.898	0.05
1093.312	0.05
1093.725	0.05
1094.138	0.06
1094.552	0.06
1094.965	0.06
1095.378	0.06
1095.791	0.07
1096.205	0.07
1096.618	0.07
1097.031	0.07
1097.444	0.08
1097.857	0.08
1098.27	0.08
1098.683	0.08
1099.096	0.09
1099.509	0.09
1099.922	0.09
1100.335	0.1
1100.748	0.1
1101.161	0.11
1101.574	0.11
1101.986	0.12
1102.399	0.12
1102.812	0.13
1103.225	0.14
1103.637	0.14
1104.05	0.15
1104.463	0.16
1104.875	0.16
1105.288	0.17
1105.7	0.18
1106.113	0.19
1106.525	0.2
1106.938	0.21
1107.35	0.23
1107.763	0.29
1108.175	0.38
1108.588	0.51
1109	0.8
1109.412	1.2
1109.824	-0
1110.237	-0
1110.649	-0
1111.061	-0
