Data from unagg-15c-2a-1h_Absorbance__723__01150.txt Node

Date: Mon May 06 09:56:50 CEST 2024
User: Laser008
Spectrometer: MAYP115816
Trigger mode: 0
Integration Time (sec): 2.000000E-1
Scans to average: 10
Electric dark correction enabled: true
Nonlinearity correction enabled: true
Boxcar width: 5
XAxis mode: Wavelengths
Number of Pixels in Spectrum: 2068
>>>>>Begin Spectral Data<<<<<
198.914	-1.84
199.384	-1.7
199.855	-1.56
200.325	-1.44
200.796	-1.35
201.266	-1.3
201.737	-1.23
202.207	-1.17
202.677	-1.12
203.147	-1.08
203.618	-1.05
204.088	-1.02
204.558	-1
205.028	-0.99
205.498	-0.99
205.968	-0.99
206.439	-0.98
206.909	-0.98
207.379	-0.98
207.849	-0.97
208.319	-0.97
208.789	-0.97
209.258	-0.97
209.728	-0.96
210.198	-0.96
210.668	-0.96
211.138	-0.96
211.608	-0.96
212.077	-0.96
212.547	-0.96
213.017	-0.96
213.486	-0.96
213.956	-0.96
214.426	-0.96
214.895	-0.96
215.365	-0.96
215.834	-0.95
216.304	-0.95
216.773	-0.95
217.243	-0.95
217.712	-0.95
218.181	-0.94
218.651	-0.94
219.12	-0.94
219.589	-0.93
220.058	-0.93
220.528	-0.93
220.997	-0.93
221.466	-0.93
221.935	-0.92
222.404	-0.92
222.873	-0.91
223.342	-0.91
223.812	-0.9
224.281	-0.89
224.749	-0.89
225.218	-0.88
225.687	-0.86
226.156	-0.85
226.625	-0.84
227.094	-0.82
227.563	-0.81
228.031	-0.79
228.5	-0.77
228.969	-0.74
229.438	-0.72
229.906	-0.69
230.375	-0.65
230.844	-0.62
231.312	-0.58
231.781	-0.54
232.249	-0.49
232.718	-0.45
233.186	-0.4
233.655	-0.36
234.123	-0.31
234.591	-0.27
235.06	-0.22
235.528	-0.18
235.996	-0.14
236.465	-0.1
236.933	-0.06
237.401	-0.03
237.869	0.01
238.337	0.04
238.805	0.07
239.274	0.1
239.742	0.13
240.21	0.15
240.678	0.17
241.146	0.19
241.614	0.21
242.081	0.23
242.549	0.25
243.017	0.26
243.485	0.28
243.953	0.29
244.421	0.31
244.888	0.32
245.356	0.33
245.824	0.34
246.291	0.35
246.759	0.36
247.227	0.37
247.694	0.38
248.162	0.39
248.629	0.39
249.097	0.4
249.564	0.41
250.032	0.42
250.499	0.42
250.967	0.43
251.434	0.43
251.901	0.44
252.369	0.45
252.836	0.45
253.303	0.46
253.77	0.46
254.237	0.47
254.705	0.47
255.172	0.47
255.639	0.48
256.106	0.48
256.573	0.48
257.04	0.49
257.507	0.49
257.974	0.49
258.441	0.49
258.908	0.49
259.375	0.5
259.841	0.5
260.308	0.5
260.775	0.5
261.242	0.5
261.709	0.5
262.175	0.5
262.642	0.5
263.109	0.5
263.575	0.5
264.042	0.5
264.508	0.5
264.975	0.5
265.441	0.5
265.908	0.5
266.374	0.5
266.841	0.5
267.307	0.5
267.773	0.49
268.24	0.49
268.706	0.49
269.172	0.49
269.639	0.49
270.105	0.49
270.571	0.48
271.037	0.48
271.503	0.48
271.969	0.48
272.435	0.47
272.902	0.47
273.368	0.47
273.834	0.47
274.3	0.46
274.765	0.46
275.231	0.46
275.697	0.46
276.163	0.45
276.629	0.45
277.095	0.45
277.56	0.44
278.026	0.44
278.492	0.44
278.958	0.43
279.423	0.43
279.889	0.43
280.354	0.42
280.82	0.42
281.286	0.42
281.751	0.42
282.217	0.41
282.682	0.41
283.147	0.41
283.613	0.41
284.078	0.4
284.544	0.4
285.009	0.4
285.474	0.4
285.939	0.39
286.405	0.39
286.87	0.39
287.335	0.39
287.8	0.38
288.265	0.38
288.73	0.38
289.195	0.38
289.66	0.38
290.125	0.37
290.59	0.37
291.055	0.37
291.52	0.37
291.985	0.37
292.45	0.37
292.915	0.36
293.38	0.36
293.844	0.36
294.309	0.36
294.774	0.36
295.239	0.36
295.703	0.36
296.168	0.36
296.632	0.35
297.097	0.35
297.562	0.35
298.026	0.35
298.491	0.35
298.955	0.35
299.419	0.35
299.884	0.35
300.348	0.35
300.813	0.35
301.277	0.35
301.741	0.35
302.205	0.35
302.67	0.35
303.134	0.35
303.598	0.35
304.062	0.35
304.526	0.35
304.99	0.34
305.454	0.34
305.919	0.34
306.383	0.34
306.847	0.34
307.31	0.34
307.774	0.34
308.238	0.34
308.702	0.34
309.166	0.34
309.63	0.34
310.094	0.34
310.557	0.34
311.021	0.34
311.485	0.34
311.948	0.34
312.412	0.34
312.876	0.34
313.339	0.34
313.803	0.34
314.266	0.34
314.73	0.34
315.193	0.34
315.657	0.34
316.12	0.34
316.584	0.34
317.047	0.34
317.51	0.34
317.973	0.34
318.437	0.34
318.9	0.34
319.363	0.34
319.826	0.34
320.29	0.34
320.753	0.33
321.216	0.33
321.679	0.33
322.142	0.33
322.605	0.33
323.068	0.33
323.531	0.33
323.994	0.33
324.457	0.33
324.92	0.33
325.382	0.33
325.845	0.33
326.308	0.33
326.771	0.33
327.233	0.33
327.696	0.33
328.159	0.33
328.622	0.33
329.084	0.33
329.547	0.33
330.009	0.33
330.472	0.33
330.934	0.33
331.397	0.33
331.859	0.33
332.322	0.32
332.784	0.32
333.246	0.32
333.709	0.32
334.171	0.32
334.633	0.32
335.096	0.32
335.558	0.32
336.02	0.32
336.482	0.32
336.944	0.32
337.406	0.32
337.868	0.32
338.331	0.32
338.793	0.32
339.255	0.32
339.717	0.32
340.178	0.32
340.64	0.32
341.102	0.32
341.564	0.32
342.026	0.32
342.488	0.32
342.949	0.32
343.411	0.32
343.873	0.31
344.335	0.31
344.796	0.31
345.258	0.31
345.719	0.31
346.181	0.31
346.643	0.31
347.104	0.31
347.566	0.31
348.027	0.31
348.488	0.31
348.95	0.31
349.411	0.31
349.873	0.31
350.334	0.31
350.795	0.31
351.256	0.31
351.718	0.31
352.179	0.31
352.64	0.31
353.101	0.31
353.562	0.3
354.023	0.3
354.484	0.3
354.945	0.3
355.406	0.3
355.867	0.3
356.328	0.3
356.789	0.3
357.25	0.3
357.711	0.3
358.172	0.3
358.633	0.3
359.093	0.3
359.554	0.3
360.015	0.3
360.476	0.3
360.936	0.3
361.397	0.3
361.858	0.3
362.318	0.3
362.779	0.3
363.239	0.3
363.7	0.3
364.16	0.3
364.621	0.3
365.081	0.3
365.541	0.3
366.002	0.3
366.462	0.3
366.922	0.3
367.383	0.3
367.843	0.3
368.303	0.3
368.763	0.3
369.223	0.3
369.684	0.3
370.144	0.3
370.604	0.3
371.064	0.3
371.524	0.3
371.984	0.3
372.444	0.3
372.904	0.3
373.363	0.3
373.823	0.3
374.283	0.3
374.743	0.3
375.203	0.3
375.663	0.3
376.122	0.3
376.582	0.3
377.042	0.3
377.501	0.3
377.961	0.3
378.42	0.3
378.88	0.3
379.34	0.3
379.799	0.3
380.259	0.3
380.718	0.3
381.177	0.3
381.637	0.3
382.096	0.3
382.555	0.3
383.015	0.3
383.474	0.3
383.933	0.3
384.393	0.3
384.852	0.3
385.311	0.3
385.77	0.3
386.229	0.3
386.688	0.3
387.147	0.3
387.606	0.3
388.065	0.3
388.524	0.3
388.983	0.3
389.442	0.3
389.901	0.3
390.36	0.3
390.819	0.3
391.277	0.3
391.736	0.3
392.195	0.3
392.654	0.3
393.112	0.3
393.571	0.3
394.03	0.3
394.488	0.3
394.947	0.3
395.405	0.3
395.864	0.3
396.322	0.31
396.781	0.31
397.239	0.31
397.698	0.31
398.156	0.31
398.614	0.31
399.073	0.31
399.531	0.31
399.989	0.31
400.447	0.31
400.905	0.3
401.364	0.3
401.822	0.3
402.28	0.3
402.738	0.3
403.196	0.3
403.654	0.3
404.112	0.3
404.57	0.3
405.028	0.3
405.486	0.3
405.944	0.3
406.402	0.3
406.859	0.3
407.317	0.3
407.775	0.3
408.233	0.3
408.691	0.3
409.148	0.3
409.606	0.3
410.064	0.3
410.521	0.3
410.979	0.3
411.436	0.3
411.894	0.3
412.351	0.3
412.809	0.3
413.266	0.3
413.724	0.3
414.181	0.3
414.638	0.3
415.096	0.3
415.553	0.3
416.01	0.3
416.467	0.3
416.925	0.3
417.382	0.3
417.839	0.3
418.296	0.3
418.753	0.3
419.21	0.3
419.667	0.3
420.124	0.3
420.581	0.3
421.038	0.3
421.495	0.3
421.952	0.3
422.409	0.3
422.866	0.3
423.322	0.3
423.779	0.3
424.236	0.3
424.693	0.3
425.149	0.3
425.606	0.3
426.063	0.3
426.519	0.3
426.976	0.3
427.433	0.3
427.889	0.3
428.346	0.3
428.802	0.3
429.258	0.3
429.715	0.3
430.171	0.3
430.628	0.3
431.084	0.3
431.54	0.3
431.997	0.3
432.453	0.3
432.909	0.3
433.365	0.3
433.821	0.3
434.277	0.3
434.734	0.3
435.19	0.3
435.646	0.3
436.102	0.3
436.558	0.3
437.014	0.3
437.47	0.29
437.925	0.29
438.381	0.29
438.837	0.29
439.293	0.29
439.749	0.29
440.205	0.29
440.66	0.29
441.116	0.29
441.572	0.29
442.027	0.29
442.483	0.29
442.939	0.29
443.394	0.29
443.85	0.29
444.305	0.29
444.761	0.29
445.216	0.29
445.672	0.29
446.127	0.29
446.582	0.29
447.038	0.29
447.493	0.29
447.948	0.29
448.403	0.29
448.859	0.29
449.314	0.29
449.769	0.29
450.224	0.29
450.679	0.29
451.134	0.29
451.589	0.29
452.044	0.29
452.499	0.29
452.954	0.29
453.409	0.29
453.864	0.29
454.319	0.29
454.774	0.29
455.229	0.29
455.684	0.29
456.138	0.29
456.593	0.29
457.048	0.29
457.503	0.29
457.957	0.29
458.412	0.29
458.866	0.29
459.321	0.29
459.776	0.28
460.23	0.28
460.685	0.28
461.139	0.28
461.593	0.28
462.048	0.28
462.502	0.28
462.957	0.28
463.411	0.28
463.865	0.28
464.319	0.28
464.774	0.28
465.228	0.28
465.682	0.28
466.136	0.28
466.59	0.28
467.044	0.28
467.499	0.28
467.953	0.28
468.407	0.28
468.861	0.28
469.315	0.28
469.768	0.28
470.222	0.27
470.676	0.27
471.13	0.27
471.584	0.27
472.038	0.27
472.491	0.27
472.945	0.27
473.399	0.28
473.852	0.28
474.306	0.28
474.76	0.28
475.213	0.28
475.667	0.28
476.12	0.28
476.574	0.28
477.027	0.28
477.481	0.28
477.934	0.28
478.388	0.28
478.841	0.28
479.294	0.28
479.748	0.28
480.201	0.28
480.654	0.28
481.107	0.28
481.561	0.28
482.014	0.28
482.467	0.28
482.92	0.28
483.373	0.28
483.826	0.28
484.279	0.29
484.732	0.29
485.185	0.29
485.638	0.29
486.091	0.29
486.544	0.29
486.997	0.29
487.449	0.29
487.902	0.29
488.355	0.29
488.808	0.29
489.26	0.28
489.713	0.28
490.166	0.28
490.618	0.28
491.071	0.28
491.523	0.28
491.976	0.28
492.429	0.28
492.881	0.28
493.333	0.28
493.786	0.29
494.238	0.29
494.691	0.29
495.143	0.29
495.595	0.29
496.048	0.29
496.5	0.29
496.952	0.29
497.404	0.29
497.856	0.29
498.309	0.29
498.761	0.29
499.213	0.29
499.665	0.29
500.117	0.29
500.569	0.3
501.021	0.3
501.473	0.3
501.925	0.3
502.377	0.3
502.828	0.3
503.28	0.3
503.732	0.3
504.184	0.3
504.636	0.31
505.087	0.31
505.539	0.31
505.991	0.31
506.442	0.31
506.894	0.31
507.345	0.31
507.797	0.31
508.249	0.31
508.7	0.31
509.151	0.31
509.603	0.31
510.054	0.31
510.506	0.31
510.957	0.31
511.408	0.31
511.86	0.31
512.311	0.31
512.762	0.31
513.213	0.31
513.665	0.31
514.116	0.31
514.567	0.31
515.018	0.31
515.469	0.31
515.92	0.31
516.371	0.31
516.822	0.31
517.273	0.32
517.724	0.32
518.175	0.32
518.626	0.31
519.076	0.31
519.527	0.31
519.978	0.31
520.429	0.31
520.88	0.31
521.33	0.31
521.781	0.31
522.232	0.31
522.682	0.31
523.133	0.31
523.583	0.31
524.034	0.31
524.484	0.32
524.935	0.32
525.385	0.32
525.836	0.33
526.286	0.33
526.736	0.33
527.187	0.34
527.637	0.34
528.087	0.34
528.538	0.34
528.988	0.34
529.438	0.35
529.888	0.35
530.338	0.35
530.788	0.35
531.238	0.35
531.688	0.35
532.139	0.35
532.589	0.35
533.038	0.35
533.488	0.36
533.938	0.36
534.388	0.36
534.838	0.36
535.288	0.36
535.738	0.36
536.187	0.36
536.637	0.36
537.087	0.36
537.537	0.37
537.986	0.37
538.436	0.37
538.885	0.37
539.335	0.37
539.785	0.37
540.234	0.37
540.684	0.37
541.133	0.37
541.582	0.37
542.032	0.37
542.481	0.37
542.931	0.37
543.38	0.38
543.829	0.38
544.278	0.38
544.728	0.38
545.177	0.38
545.626	0.38
546.075	0.38
546.524	0.39
546.973	0.39
547.422	0.39
547.871	0.39
548.32	0.39
548.769	0.39
549.218	0.39
549.667	0.39
550.116	0.39
550.565	0.39
551.014	0.39
551.463	0.39
551.911	0.39
552.36	0.39
552.809	0.39
553.258	0.39
553.706	0.4
554.155	0.4
554.603	0.4
555.052	0.4
555.501	0.4
555.949	0.4
556.398	0.39
556.846	0.39
557.294	0.39
557.743	0.39
558.191	0.39
558.64	0.4
559.088	0.4
559.536	0.4
559.985	0.4
560.433	0.4
560.881	0.4
561.329	0.41
561.777	0.41
562.225	0.41
562.674	0.41
563.122	0.41
563.57	0.41
564.018	0.41
564.466	0.41
564.914	0.41
565.362	0.41
565.809	0.41
566.257	0.41
566.705	0.41
567.153	0.41
567.601	0.42
568.048	0.42
568.496	0.42
568.944	0.42
569.392	0.43
569.839	0.43
570.287	0.43
570.734	0.44
571.182	0.44
571.63	0.44
572.077	0.44
572.525	0.44
572.972	0.44
573.419	0.45
573.867	0.45
574.314	0.45
574.761	0.45
575.209	0.45
575.656	0.45
576.103	0.45
576.551	0.45
576.998	0.45
577.445	0.45
577.892	0.45
578.339	0.45
578.786	0.46
579.233	0.46
579.68	0.46
580.127	0.46
580.574	0.46
581.021	0.46
581.468	0.46
581.915	0.46
582.362	0.46
582.809	0.46
583.255	0.46
583.702	0.45
584.149	0.45
584.596	0.45
585.042	0.45
585.489	0.45
585.936	0.45
586.382	0.45
586.829	0.45
587.275	0.45
587.722	0.45
588.168	0.44
588.615	0.44
589.061	0.44
589.508	0.44
589.954	0.44
590.4	0.44
590.847	0.44
591.293	0.44
591.739	0.44
592.185	0.44
592.632	0.44
593.078	0.44
593.524	0.44
593.97	0.44
594.416	0.43
594.862	0.43
595.308	0.43
595.754	0.43
596.2	0.43
596.646	0.43
597.092	0.43
597.538	0.43
597.984	0.43
598.43	0.43
598.876	0.44
599.321	0.43
599.767	0.43
600.213	0.43
600.659	0.43
601.104	0.43
601.55	0.43
601.995	0.43
602.441	0.42
602.887	0.42
603.332	0.42
603.778	0.42
604.223	0.42
604.668	0.42
605.114	0.42
605.559	0.42
606.005	0.42
606.45	0.42
606.895	0.42
607.341	0.42
607.786	0.42
608.231	0.41
608.676	0.41
609.121	0.41
609.566	0.41
610.012	0.4
610.457	0.4
610.902	0.4
611.347	0.4
611.792	0.4
612.237	0.4
612.682	0.4
613.127	0.4
613.571	0.4
614.016	0.4
614.461	0.4
614.906	0.39
615.351	0.39
615.795	0.39
616.24	0.39
616.685	0.39
617.129	0.38
617.574	0.38
618.019	0.38
618.463	0.38
618.908	0.37
619.352	0.37
619.797	0.37
620.241	0.37
620.686	0.37
621.13	0.37
621.574	0.37
622.019	0.37
622.463	0.37
622.907	0.37
623.352	0.37
623.796	0.36
624.24	0.36
624.684	0.36
625.128	0.36
625.572	0.36
626.016	0.36
626.461	0.36
626.905	0.36
627.349	0.36
627.793	0.35
628.236	0.35
628.68	0.35
629.124	0.35
629.568	0.35
630.012	0.35
630.456	0.35
630.9	0.35
631.343	0.34
631.787	0.34
632.231	0.34
632.674	0.34
633.118	0.34
633.562	0.34
634.005	0.34
634.449	0.34
634.892	0.34
635.336	0.34
635.779	0.34
636.223	0.33
636.666	0.33
637.109	0.33
637.553	0.33
637.996	0.33
638.439	0.33
638.883	0.33
639.326	0.33
639.769	0.33
640.212	0.33
640.655	0.33
641.099	0.33
641.542	0.33
641.985	0.33
642.428	0.33
642.871	0.33
643.314	0.33
643.757	0.33
644.2	0.33
644.643	0.33
645.085	0.33
645.528	0.33
645.971	0.33
646.414	0.33
646.857	0.33
647.299	0.33
647.742	0.33
648.185	0.33
648.627	0.33
649.07	0.33
649.513	0.33
649.955	0.33
650.398	0.33
650.84	0.33
651.283	0.33
651.725	0.33
652.168	0.33
652.61	0.33
653.052	0.34
653.495	0.33
653.937	0.26
654.379	0.21
654.821	0.22
655.264	0.22
655.706	0.22
656.148	0.22
656.59	0.22
657.032	0.22
657.474	0.22
657.916	0.22
658.358	0.22
658.8	0.28
659.242	0.35
659.684	0.35
660.126	0.35
660.568	0.35
661.01	0.35
661.452	0.35
661.894	0.35
662.335	0.35
662.777	0.35
663.219	0.35
663.661	0.35
664.102	0.35
664.544	0.35
664.985	0.35
665.427	0.36
665.869	0.36
666.31	0.36
666.752	0.36
667.193	0.36
667.634	0.36
668.076	0.36
668.517	0.36
668.959	0.37
669.4	0.37
669.841	0.37
670.282	0.37
670.724	0.37
671.165	0.37
671.606	0.38
672.047	0.38
672.488	0.38
672.929	0.38
673.37	0.38
673.811	0.38
674.252	0.38
674.693	0.38
675.134	0.38
675.575	0.38
676.016	0.38
676.457	0.38
676.898	0.38
677.339	0.39
677.78	0.39
678.22	0.39
678.661	0.39
679.102	0.39
679.542	0.39
679.983	0.39
680.424	0.39
680.864	0.39
681.305	0.39
681.745	0.39
682.186	0.39
682.626	0.4
683.067	0.4
683.507	0.4
683.948	0.4
684.388	0.4
684.828	0.4
685.269	0.4
685.709	0.4
686.149	0.4
686.589	0.41
687.029	0.41
687.47	0.41
687.91	0.41
688.35	0.41
688.79	0.41
689.23	0.41
689.67	0.41
690.11	0.42
690.55	0.42
690.99	0.42
691.43	0.42
691.87	0.42
692.31	0.42
692.749	0.42
693.189	0.42
693.629	0.42
694.069	0.42
694.508	0.42
694.948	0.43
695.388	0.43
695.827	0.43
696.267	0.43
696.706	0.43
697.146	0.43
697.586	0.43
698.025	0.43
698.464	0.43
698.904	0.43
699.343	0.43
699.783	0.43
700.222	0.43
700.661	0.43
701.101	0.43
701.54	0.43
701.979	0.43
702.418	0.44
702.857	0.44
703.297	0.44
703.736	0.44
704.175	0.44
704.614	0.44
705.053	0.44
705.492	0.44
705.931	0.44
706.37	0.45
706.809	0.45
707.248	0.45
707.687	0.45
708.125	0.45
708.564	0.45
709.003	0.45
709.442	0.45
709.88	0.45
710.319	0.45
710.758	0.45
711.196	0.45
711.635	0.45
712.074	0.45
712.512	0.45
712.951	0.45
713.389	0.45
713.828	0.45
714.266	0.45
714.705	0.45
715.143	0.45
715.581	0.45
716.02	0.45
716.458	0.45
716.896	0.45
717.334	0.45
717.773	0.45
718.211	0.45
718.649	0.45
719.087	0.45
719.525	0.45
719.963	0.45
720.401	0.45
720.839	0.45
721.277	0.45
721.715	0.45
722.153	0.45
722.591	0.45
723.029	0.45
723.467	0.45
723.905	0.45
724.342	0.45
724.78	0.45
725.218	0.45
725.656	0.45
726.093	0.45
726.531	0.45
726.969	0.45
727.406	0.45
727.844	0.45
728.281	0.45
728.719	0.45
729.156	0.46
729.594	0.46
730.031	0.46
730.469	0.46
730.906	0.46
731.343	0.46
731.781	0.46
732.218	0.46
732.655	0.46
733.092	0.46
733.53	0.46
733.967	0.46
734.404	0.46
734.841	0.46
735.278	0.46
735.715	0.46
736.152	0.46
736.589	0.46
737.026	0.46
737.463	0.46
737.9	0.46
738.337	0.45
738.774	0.45
739.211	0.45
739.647	0.45
740.084	0.45
740.521	0.45
740.958	0.45
741.394	0.45
741.831	0.44
742.268	0.44
742.704	0.44
743.141	0.44
743.577	0.44
744.014	0.44
744.45	0.43
744.887	0.43
745.323	0.43
745.76	0.43
746.196	0.43
746.632	0.43
747.069	0.43
747.505	0.43
747.941	0.43
748.378	0.43
748.814	0.43
749.25	0.43
749.686	0.43
750.122	0.43
750.558	0.43
750.994	0.43
751.43	0.43
751.866	0.43
752.302	0.43
752.738	0.43
753.174	0.43
753.61	0.43
754.046	0.43
754.482	0.43
754.918	0.43
755.354	0.43
755.789	0.43
756.225	0.43
756.661	0.43
757.096	0.43
757.532	0.43
757.968	0.43
758.403	0.43
758.839	0.43
759.274	0.43
759.71	0.43
760.145	0.42
760.581	0.42
761.016	0.42
761.452	0.42
761.887	0.42
762.322	0.42
762.758	0.41
763.193	0.41
763.628	0.41
764.063	0.4
764.499	0.4
764.934	0.4
765.369	0.39
765.804	0.39
766.239	0.39
766.674	0.39
767.109	0.38
767.544	0.38
767.979	0.37
768.414	0.37
768.849	0.37
769.284	0.37
769.719	0.36
770.154	0.36
770.588	0.36
771.023	0.35
771.458	0.34
771.893	0.34
772.327	0.34
772.762	0.33
773.197	0.33
773.631	0.32
774.066	0.32
774.5	0.31
774.935	0.31
775.369	0.3
775.804	0.29
776.238	0.29
776.673	0.28
777.107	0.28
777.541	0.27
777.976	0.26
778.41	0.25
778.844	0.25
779.279	0.24
779.713	0.24
780.147	0.23
780.581	0.22
781.015	0.21
781.449	0.2
781.883	0.19
782.317	0.17
782.751	0.16
783.185	0.14
783.619	0.13
784.053	0.11
784.487	0.09
784.921	0.08
785.355	0.06
785.789	0.04
786.223	0.03
786.656	0.02
787.09	0.01
787.524	-0
787.957	-0.02
788.391	-0.03
788.825	-0.04
789.258	-0.04
789.692	-0.05
790.125	-0.05
790.559	-0.06
790.992	-0.06
791.426	-0.06
791.859	-0.06
792.293	-0.05
792.726	-0.04
793.159	-0.04
793.593	-0.04
794.026	-0.04
794.459	-0.04
794.892	-0.05
795.326	-0.05
795.759	-0.05
796.192	-0.05
796.625	-0.06
797.058	-0.07
797.491	-0.07
797.924	-0.08
798.357	-0.08
798.79	-0.08
799.223	-0.08
799.656	-0.08
800.089	-0.08
800.522	-0.09
800.955	-0.09
801.387	-0.09
801.82	-0.09
802.253	-0.09
802.686	-0.09
803.118	-0.09
803.551	-0.09
803.984	-0.08
804.416	-0.08
804.849	-0.07
805.281	-0.07
805.714	-0.07
806.146	-0.07
806.579	-0.07
807.011	-0.07
807.444	-0.07
807.876	-0.07
808.308	-0.07
808.741	-0.07
809.173	-0.08
809.605	-0.08
810.037	-0.08
810.47	-0.08
810.902	-0.09
811.334	-0.09
811.766	-0.08
812.198	-0.08
812.63	-0.08
813.062	-0.08
813.494	-0.08
813.926	-0.08
814.358	-0.08
814.79	-0.08
815.222	-0.07
815.654	-0.07
816.086	-0.07
816.518	-0.08
816.949	-0.08
817.381	-0.07
817.813	-0.06
818.245	-0.05
818.676	-0.04
819.108	-0.02
819.54	-0.01
819.971	0.01
820.403	0.02
820.834	0.04
821.266	0.06
821.697	0.08
822.129	0.1
822.56	0.12
822.991	0.13
823.423	0.14
823.854	0.16
824.286	0.17
824.717	0.19
825.148	0.2
825.579	0.22
826.01	0.23
826.442	0.24
826.873	0.25
827.304	0.26
827.735	0.27
828.166	0.27
828.597	0.28
829.028	0.29
829.459	0.29
829.89	0.3
830.321	0.3
830.752	0.3
831.183	0.31
831.613	0.31
832.044	0.32
832.475	0.32
832.906	0.32
833.336	0.33
833.767	0.33
834.198	0.33
834.628	0.34
835.059	0.34
835.49	0.34
835.92	0.34
836.351	0.35
836.781	0.35
837.212	0.35
837.642	0.35
838.072	0.35
838.503	0.35
838.933	0.35
839.364	0.35
839.794	0.36
840.224	0.36
840.654	0.36
841.085	0.36
841.515	0.36
841.945	0.36
842.375	0.36
842.805	0.36
843.235	0.36
843.665	0.36
844.095	0.37
844.525	0.37
844.955	0.37
845.385	0.37
845.815	0.37
846.245	0.37
846.675	0.37
847.105	0.37
847.534	0.37
847.964	0.37
848.394	0.37
848.824	0.37
849.253	0.37
849.683	0.37
850.112	0.37
850.542	0.37
850.972	0.38
851.401	0.38
851.831	0.38
852.26	0.38
852.69	0.38
853.119	0.38
853.548	0.38
853.978	0.38
854.407	0.38
854.836	0.38
855.266	0.38
855.695	0.38
856.124	0.37
856.553	0.37
856.983	0.37
857.412	0.37
857.841	0.37
858.27	0.37
858.699	0.37
859.128	0.37
859.557	0.37
859.986	0.37
860.415	0.37
860.844	0.37
861.273	0.37
861.702	0.37
862.13	0.37
862.559	0.37
862.988	0.37
863.417	0.37
863.845	0.37
864.274	0.37
864.703	0.37
865.131	0.37
865.56	0.37
865.989	0.37
866.417	0.37
866.846	0.37
867.274	0.37
867.703	0.37
868.131	0.37
868.559	0.37
868.988	0.37
869.416	0.36
869.844	0.36
870.273	0.36
870.701	0.36
871.129	0.36
871.557	0.36
871.986	0.36
872.414	0.36
872.842	0.36
873.27	0.36
873.698	0.36
874.126	0.36
874.554	0.36
874.982	0.36
875.41	0.36
875.838	0.36
876.266	0.36
876.694	0.36
877.122	0.36
877.549	0.36
877.977	0.36
878.405	0.36
878.833	0.36
879.26	0.36
879.688	0.36
880.116	0.36
880.543	0.36
880.971	0.36
881.399	0.36
881.826	0.36
882.254	0.36
882.681	0.36
883.109	0.36
883.536	0.36
883.963	0.35
884.391	0.35
884.818	0.35
885.245	0.35
885.673	0.35
886.1	0.35
886.527	0.35
886.954	0.35
887.381	0.35
887.809	0.35
888.236	0.35
888.663	0.35
889.09	0.35
889.517	0.35
889.944	0.35
890.371	0.34
890.798	0.34
891.225	0.34
891.652	0.34
892.078	0.34
892.505	0.34
892.932	0.34
893.359	0.34
893.786	0.34
894.212	0.34
894.639	0.34
895.066	0.34
895.492	0.34
895.919	0.34
896.346	0.34
896.772	0.34
897.199	0.34
897.625	0.34
898.052	0.34
898.478	0.34
898.904	0.34
899.331	0.34
899.757	0.33
900.183	0.33
900.61	0.33
901.036	0.33
901.462	0.33
901.888	0.33
902.315	0.33
902.741	0.33
903.167	0.33
903.593	0.33
904.019	0.33
904.445	0.33
904.871	0.33
905.297	0.33
905.723	0.33
906.149	0.33
906.575	0.33
907.001	0.33
907.427	0.33
907.852	0.32
908.278	0.32
908.704	0.32
909.13	0.32
909.555	0.32
909.981	0.32
910.407	0.32
910.832	0.32
911.258	0.32
911.684	0.32
912.109	0.32
912.535	0.32
912.96	0.32
913.386	0.32
913.811	0.32
914.236	0.32
914.662	0.33
915.087	0.33
915.512	0.32
915.938	0.32
916.363	0.32
916.788	0.32
917.213	0.32
917.639	0.32
918.064	0.32
918.489	0.32
918.914	0.32
919.339	0.32
919.764	0.32
920.189	0.32
920.614	0.32
921.039	0.32
921.464	0.32
921.889	0.32
922.314	0.32
922.738	0.32
923.163	0.32
923.588	0.32
924.013	0.32
924.437	0.32
924.862	0.32
925.287	0.32
925.711	0.32
926.136	0.32
926.561	0.32
926.985	0.32
927.41	0.32
927.834	0.32
928.259	0.32
928.683	0.32
929.108	0.31
929.532	0.31
929.956	0.31
930.381	0.31
930.805	0.31
931.229	0.31
931.653	0.31
932.078	0.3
932.502	0.3
932.926	0.3
933.35	0.3
933.774	0.3
934.198	0.3
934.622	0.3
935.046	0.3
935.47	0.3
935.894	0.3
936.318	0.29
936.742	0.29
937.166	0.29
937.59	0.29
938.014	0.3
938.437	0.3
938.861	0.3
939.285	0.3
939.709	0.3
940.132	0.3
940.556	0.3
940.98	0.3
941.403	0.3
941.827	0.3
942.25	0.3
942.674	0.3
943.097	0.3
943.521	0.3
943.944	0.3
944.368	0.3
944.791	0.3
945.214	0.3
945.638	0.3
946.061	0.3
946.484	0.3
946.907	0.3
947.331	0.3
947.754	0.3
948.177	0.3
948.6	0.3
949.023	0.29
949.446	0.29
949.869	0.29
950.292	0.29
950.715	0.29
951.138	0.29
951.561	0.29
951.984	0.28
952.407	0.28
952.83	0.28
953.252	0.28
953.675	0.28
954.098	0.28
954.521	0.28
954.943	0.28
955.366	0.27
955.789	0.27
956.211	0.27
956.634	0.27
957.056	0.27
957.479	0.27
957.902	0.27
958.324	0.27
958.746	0.27
959.169	0.27
959.591	0.27
960.014	0.27
960.436	0.27
960.858	0.27
961.281	0.27
961.703	0.27
962.125	0.27
962.547	0.27
962.969	0.27
963.391	0.27
963.814	0.27
964.236	0.27
964.658	0.27
965.08	0.27
965.502	0.27
965.924	0.27
966.346	0.27
966.768	0.27
967.189	0.27
967.611	0.27
968.033	0.27
968.455	0.27
968.877	0.27
969.298	0.27
969.72	0.27
970.142	0.27
970.563	0.27
970.985	0.26
971.407	0.26
971.828	0.26
972.25	0.26
972.671	0.26
973.093	0.26
973.514	0.26
973.936	0.26
974.357	0.26
974.778	0.26
975.2	0.26
975.621	0.26
976.042	0.26
976.464	0.26
976.885	0.26
977.306	0.26
977.727	0.26
978.148	0.26
978.57	0.26
978.991	0.26
979.412	0.26
979.833	0.26
980.254	0.26
980.675	0.26
981.096	0.26
981.517	0.26
981.937	0.26
982.358	0.25
982.779	0.25
983.2	0.25
983.621	0.25
984.042	0.25
984.462	0.25
984.883	0.25
985.304	0.25
985.724	0.25
986.145	0.25
986.565	0.25
986.986	0.25
987.407	0.25
987.827	0.25
988.248	0.25
988.668	0.25
989.088	0.25
989.509	0.25
989.929	0.25
990.35	0.25
990.77	0.25
991.19	0.25
991.61	0.25
992.031	0.25
992.451	0.25
992.871	0.25
993.291	0.25
993.711	0.24
994.131	0.24
994.551	0.24
994.971	0.24
995.391	0.24
995.811	0.24
996.231	0.24
996.651	0.24
997.071	0.24
997.491	0.24
997.911	0.24
998.331	0.24
998.75	0.24
999.17	0.24
999.59	0.24
1000.009	0.24
1000.429	0.24
1000.849	0.24
1001.268	0.24
1001.688	0.24
1002.107	0.24
1002.527	0.24
1002.946	0.24
1003.366	0.24
1003.785	0.24
1004.205	0.24
1004.624	0.24
1005.044	0.24
1005.463	0.24
1005.882	0.24
1006.301	0.24
1006.721	0.24
1007.14	0.24
1007.559	0.24
1007.978	0.24
1008.397	0.24
1008.816	0.24
1009.235	0.24
1009.655	0.24
1010.074	0.24
1010.492	0.24
1010.911	0.24
1011.33	0.24
1011.749	0.24
1012.168	0.24
1012.587	0.24
1013.006	0.24
1013.425	0.24
1013.843	0.24
1014.262	0.23
1014.681	0.23
1015.099	0.23
1015.518	0.23
1015.937	0.23
1016.355	0.23
1016.774	0.23
1017.192	0.23
1017.611	0.23
1018.029	0.23
1018.448	0.23
1018.866	0.23
1019.285	0.23
1019.703	0.23
1020.121	0.23
1020.54	0.23
1020.958	0.23
1021.376	0.23
1021.794	0.23
1022.213	0.23
1022.631	0.23
1023.049	0.23
1023.467	0.23
1023.885	0.23
1024.303	0.23
1024.721	0.23
1025.139	0.23
1025.557	0.23
1025.975	0.23
1026.393	0.23
1026.811	0.23
1027.229	0.24
1027.647	0.24
1028.065	0.24
1028.482	0.24
1028.9	0.24
1029.318	0.24
1029.735	0.24
1030.153	0.24
1030.571	0.24
1030.988	0.24
1031.406	0.24
1031.823	0.24
1032.241	0.24
1032.659	0.24
1033.076	0.24
1033.493	0.24
1033.911	0.24
1034.328	0.24
1034.746	0.24
1035.163	0.24
1035.58	0.23
1035.997	0.23
1036.415	0.23
1036.832	0.23
1037.249	0.23
1037.666	0.23
1038.083	0.23
1038.501	0.23
1038.918	0.23
1039.335	0.23
1039.752	0.23
1040.169	0.23
1040.586	0.23
1041.003	0.23
1041.419	0.23
1041.836	0.23
1042.253	0.23
1042.67	0.23
1043.087	0.23
1043.504	0.23
1043.92	0.23
1044.337	0.23
1044.754	0.22
1045.17	0.22
1045.587	0.22
1046.004	0.22
1046.42	0.22
1046.837	0.22
1047.253	0.22
1047.67	0.22
1048.086	0.22
1048.503	0.22
1048.919	0.22
1049.335	0.22
1049.752	0.22
1050.168	0.22
1050.584	0.22
1051.001	0.22
1051.417	0.22
1051.833	0.22
1052.249	0.22
1052.665	0.22
1053.081	0.22
1053.497	0.22
1053.914	0.22
1054.33	0.22
1054.746	0.22
1055.162	0.22
1055.578	0.22
1055.993	0.22
1056.409	0.22
1056.825	0.22
1057.241	0.22
1057.657	0.22
1058.073	0.22
1058.488	0.22
1058.904	0.22
1059.32	0.22
1059.736	0.22
1060.151	0.22
1060.567	0.22
1060.982	0.22
1061.398	0.22
1061.813	0.22
1062.229	0.22
1062.644	0.22
1063.06	0.22
1063.475	0.22
1063.891	0.22
1064.306	0.22
1064.721	0.22
1065.137	0.22
1065.552	0.22
1065.967	0.22
1066.382	0.22
1066.798	0.22
1067.213	0.22
1067.628	0.22
1068.043	0.22
1068.458	0.22
1068.873	0.22
1069.288	0.22
1069.703	0.22
1070.118	0.22
1070.533	0.22
1070.948	0.22
1071.363	0.22
1071.778	0.22
1072.193	0.22
1072.607	0.22
1073.022	0.22
1073.437	0.22
1073.852	0.22
1074.266	0.23
1074.681	0.23
1075.096	0.23
1075.51	0.23
1075.925	0.23
1076.339	0.23
1076.754	0.23
1077.168	0.23
1077.583	0.23
1077.997	0.23
1078.412	0.23
1078.826	0.23
1079.24	0.23
1079.655	0.23
1080.069	0.23
1080.483	0.23
1080.897	0.23
1081.312	0.24
1081.726	0.24
1082.14	0.24
1082.554	0.24
1082.968	0.24
1083.382	0.24
1083.796	0.25
1084.21	0.25
1084.624	0.25
1085.038	0.25
1085.452	0.25
1085.866	0.26
1086.28	0.26
1086.694	0.26
1087.108	0.26
1087.521	0.26
1087.935	0.26
1088.349	0.27
1088.763	0.27
1089.176	0.27
1089.59	0.27
1090.004	0.28
1090.417	0.28
1090.831	0.29
1091.244	0.29
1091.658	0.29
1092.071	0.3
1092.485	0.31
1092.898	0.31
1093.312	0.32
1093.725	0.32
1094.138	0.33
1094.552	0.33
1094.965	0.34
1095.378	0.35
1095.791	0.36
1096.205	0.37
1096.618	0.38
1097.031	0.38
1097.444	0.39
1097.857	0.4
1098.27	0.41
1098.683	0.43
1099.096	0.44
1099.509	0.46
1099.922	0.47
1100.335	0.49
1100.748	0.51
1101.161	0.53
1101.574	0.56
1101.986	0.59
1102.399	0.62
1102.812	0.67
1103.225	0.71
1103.637	0.77
1104.05	0.84
1104.463	0.93
1104.875	1.05
1105.288	1.21
1105.7	1.46
1106.113	2.71
1106.525	-0
1106.938	-0
1107.35	-0
1107.763	-0
1108.175	-0
1108.588	-0
1109	-0
1109.412	-0
1109.824	-0
1110.237	-0
1110.649	-0
1111.061	-0
