Data from unagg-15c-2a-1h_Absorbance__972__01399.txt Node

Date: Mon May 06 10:05:08 CEST 2024
User: Laser008
Spectrometer: MAYP115816
Trigger mode: 0
Integration Time (sec): 2.000000E-1
Scans to average: 10
Electric dark correction enabled: true
Nonlinearity correction enabled: true
Boxcar width: 5
XAxis mode: Wavelengths
Number of Pixels in Spectrum: 2068
>>>>>Begin Spectral Data<<<<<
198.914	-1.82
199.384	-1.68
199.855	-1.54
200.325	-1.41
200.796	-1.33
201.266	-1.28
201.737	-1.21
202.207	-1.15
202.677	-1.1
203.147	-1.06
203.618	-1.03
204.088	-1.01
204.558	-0.98
205.028	-0.97
205.498	-0.97
205.968	-0.97
206.439	-0.97
206.909	-0.96
207.379	-0.96
207.849	-0.96
208.319	-0.96
208.789	-0.95
209.258	-0.95
209.728	-0.95
210.198	-0.95
210.668	-0.95
211.138	-0.95
211.608	-0.94
212.077	-0.94
212.547	-0.94
213.017	-0.94
213.486	-0.94
213.956	-0.94
214.426	-0.94
214.895	-0.94
215.365	-0.94
215.834	-0.94
216.304	-0.93
216.773	-0.93
217.243	-0.93
217.712	-0.93
218.181	-0.93
218.651	-0.92
219.12	-0.92
219.589	-0.92
220.058	-0.92
220.528	-0.92
220.997	-0.91
221.466	-0.91
221.935	-0.91
222.404	-0.9
222.873	-0.9
223.342	-0.89
223.812	-0.89
224.281	-0.88
224.749	-0.87
225.218	-0.86
225.687	-0.85
226.156	-0.84
226.625	-0.82
227.094	-0.81
227.563	-0.79
228.031	-0.77
228.5	-0.75
228.969	-0.73
229.438	-0.7
229.906	-0.67
230.375	-0.64
230.844	-0.6
231.312	-0.56
231.781	-0.53
232.249	-0.48
232.718	-0.44
233.186	-0.4
233.655	-0.35
234.123	-0.31
234.591	-0.26
235.06	-0.22
235.528	-0.18
235.996	-0.14
236.465	-0.11
236.933	-0.07
237.401	-0.03
237.869	-0
238.337	0.03
238.805	0.06
239.274	0.08
239.742	0.11
240.21	0.13
240.678	0.15
241.146	0.17
241.614	0.19
242.081	0.2
242.549	0.22
243.017	0.23
243.485	0.25
243.953	0.26
244.421	0.27
244.888	0.28
245.356	0.29
245.824	0.3
246.291	0.31
246.759	0.32
247.227	0.33
247.694	0.34
248.162	0.34
248.629	0.35
249.097	0.36
249.564	0.36
250.032	0.37
250.499	0.38
250.967	0.38
251.434	0.39
251.901	0.39
252.369	0.4
252.836	0.41
253.303	0.41
253.77	0.41
254.237	0.42
254.705	0.42
255.172	0.43
255.639	0.43
256.106	0.43
256.573	0.44
257.04	0.44
257.507	0.44
257.974	0.44
258.441	0.44
258.908	0.45
259.375	0.45
259.841	0.45
260.308	0.45
260.775	0.45
261.242	0.45
261.709	0.45
262.175	0.45
262.642	0.45
263.109	0.45
263.575	0.45
264.042	0.45
264.508	0.45
264.975	0.45
265.441	0.45
265.908	0.45
266.374	0.45
266.841	0.44
267.307	0.44
267.773	0.44
268.24	0.44
268.706	0.44
269.172	0.43
269.639	0.43
270.105	0.43
270.571	0.43
271.037	0.43
271.503	0.42
271.969	0.42
272.435	0.42
272.902	0.41
273.368	0.41
273.834	0.41
274.3	0.41
274.765	0.4
275.231	0.4
275.697	0.4
276.163	0.39
276.629	0.39
277.095	0.39
277.56	0.38
278.026	0.38
278.492	0.38
278.958	0.37
279.423	0.37
279.889	0.37
280.354	0.36
280.82	0.36
281.286	0.36
281.751	0.35
282.217	0.35
282.682	0.35
283.147	0.35
283.613	0.34
284.078	0.34
284.544	0.34
285.009	0.34
285.474	0.33
285.939	0.33
286.405	0.33
286.87	0.33
287.335	0.32
287.8	0.32
288.265	0.32
288.73	0.32
289.195	0.31
289.66	0.31
290.125	0.31
290.59	0.31
291.055	0.31
291.52	0.3
291.985	0.3
292.45	0.3
292.915	0.3
293.38	0.3
293.844	0.3
294.309	0.3
294.774	0.29
295.239	0.29
295.703	0.29
296.168	0.29
296.632	0.29
297.097	0.29
297.562	0.29
298.026	0.29
298.491	0.29
298.955	0.29
299.419	0.28
299.884	0.28
300.348	0.28
300.813	0.28
301.277	0.28
301.741	0.28
302.205	0.28
302.67	0.28
303.134	0.28
303.598	0.28
304.062	0.28
304.526	0.28
304.99	0.28
305.454	0.28
305.919	0.28
306.383	0.28
306.847	0.28
307.31	0.28
307.774	0.28
308.238	0.28
308.702	0.28
309.166	0.28
309.63	0.28
310.094	0.28
310.557	0.28
311.021	0.28
311.485	0.27
311.948	0.27
312.412	0.27
312.876	0.27
313.339	0.27
313.803	0.27
314.266	0.27
314.73	0.27
315.193	0.27
315.657	0.27
316.12	0.27
316.584	0.27
317.047	0.27
317.51	0.27
317.973	0.27
318.437	0.27
318.9	0.27
319.363	0.27
319.826	0.27
320.29	0.27
320.753	0.27
321.216	0.27
321.679	0.27
322.142	0.27
322.605	0.27
323.068	0.27
323.531	0.27
323.994	0.27
324.457	0.27
324.92	0.27
325.382	0.27
325.845	0.27
326.308	0.27
326.771	0.27
327.233	0.27
327.696	0.27
328.159	0.26
328.622	0.26
329.084	0.26
329.547	0.26
330.009	0.26
330.472	0.26
330.934	0.26
331.397	0.26
331.859	0.26
332.322	0.26
332.784	0.26
333.246	0.26
333.709	0.26
334.171	0.26
334.633	0.26
335.096	0.26
335.558	0.26
336.02	0.26
336.482	0.26
336.944	0.26
337.406	0.26
337.868	0.26
338.331	0.26
338.793	0.26
339.255	0.26
339.717	0.26
340.178	0.25
340.64	0.25
341.102	0.25
341.564	0.25
342.026	0.25
342.488	0.25
342.949	0.25
343.411	0.25
343.873	0.25
344.335	0.25
344.796	0.25
345.258	0.25
345.719	0.25
346.181	0.25
346.643	0.25
347.104	0.25
347.566	0.25
348.027	0.25
348.488	0.25
348.95	0.25
349.411	0.25
349.873	0.25
350.334	0.25
350.795	0.25
351.256	0.25
351.718	0.25
352.179	0.25
352.64	0.25
353.101	0.25
353.562	0.24
354.023	0.24
354.484	0.24
354.945	0.24
355.406	0.24
355.867	0.24
356.328	0.24
356.789	0.24
357.25	0.24
357.711	0.24
358.172	0.24
358.633	0.24
359.093	0.24
359.554	0.24
360.015	0.24
360.476	0.24
360.936	0.24
361.397	0.24
361.858	0.24
362.318	0.24
362.779	0.24
363.239	0.24
363.7	0.24
364.16	0.24
364.621	0.24
365.081	0.24
365.541	0.24
366.002	0.24
366.462	0.24
366.922	0.24
367.383	0.24
367.843	0.24
368.303	0.24
368.763	0.24
369.223	0.24
369.684	0.24
370.144	0.24
370.604	0.24
371.064	0.24
371.524	0.24
371.984	0.24
372.444	0.24
372.904	0.24
373.363	0.24
373.823	0.24
374.283	0.24
374.743	0.24
375.203	0.24
375.663	0.24
376.122	0.24
376.582	0.24
377.042	0.24
377.501	0.24
377.961	0.24
378.42	0.24
378.88	0.24
379.34	0.24
379.799	0.24
380.259	0.24
380.718	0.24
381.177	0.24
381.637	0.24
382.096	0.24
382.555	0.24
383.015	0.24
383.474	0.24
383.933	0.24
384.393	0.24
384.852	0.24
385.311	0.24
385.77	0.24
386.229	0.24
386.688	0.24
387.147	0.24
387.606	0.24
388.065	0.24
388.524	0.24
388.983	0.24
389.442	0.24
389.901	0.24
390.36	0.24
390.819	0.24
391.277	0.24
391.736	0.24
392.195	0.24
392.654	0.24
393.112	0.24
393.571	0.24
394.03	0.24
394.488	0.24
394.947	0.24
395.405	0.24
395.864	0.24
396.322	0.24
396.781	0.25
397.239	0.25
397.698	0.25
398.156	0.25
398.614	0.25
399.073	0.25
399.531	0.25
399.989	0.25
400.447	0.25
400.905	0.25
401.364	0.24
401.822	0.24
402.28	0.24
402.738	0.24
403.196	0.24
403.654	0.24
404.112	0.24
404.57	0.24
405.028	0.24
405.486	0.24
405.944	0.24
406.402	0.24
406.859	0.24
407.317	0.24
407.775	0.24
408.233	0.24
408.691	0.24
409.148	0.24
409.606	0.24
410.064	0.24
410.521	0.24
410.979	0.24
411.436	0.24
411.894	0.24
412.351	0.24
412.809	0.24
413.266	0.24
413.724	0.24
414.181	0.24
414.638	0.24
415.096	0.24
415.553	0.24
416.01	0.24
416.467	0.24
416.925	0.24
417.382	0.24
417.839	0.24
418.296	0.24
418.753	0.24
419.21	0.24
419.667	0.24
420.124	0.24
420.581	0.24
421.038	0.24
421.495	0.24
421.952	0.24
422.409	0.24
422.866	0.24
423.322	0.24
423.779	0.24
424.236	0.24
424.693	0.24
425.149	0.24
425.606	0.24
426.063	0.24
426.519	0.24
426.976	0.24
427.433	0.24
427.889	0.24
428.346	0.24
428.802	0.24
429.258	0.24
429.715	0.24
430.171	0.24
430.628	0.24
431.084	0.24
431.54	0.24
431.997	0.24
432.453	0.24
432.909	0.24
433.365	0.24
433.821	0.24
434.277	0.24
434.734	0.24
435.19	0.24
435.646	0.24
436.102	0.24
436.558	0.24
437.014	0.24
437.47	0.24
437.925	0.24
438.381	0.24
438.837	0.24
439.293	0.24
439.749	0.24
440.205	0.24
440.66	0.24
441.116	0.24
441.572	0.24
442.027	0.24
442.483	0.24
442.939	0.24
443.394	0.24
443.85	0.24
444.305	0.24
444.761	0.24
445.216	0.24
445.672	0.24
446.127	0.24
446.582	0.24
447.038	0.24
447.493	0.24
447.948	0.24
448.403	0.24
448.859	0.24
449.314	0.24
449.769	0.24
450.224	0.24
450.679	0.24
451.134	0.24
451.589	0.23
452.044	0.23
452.499	0.23
452.954	0.23
453.409	0.23
453.864	0.23
454.319	0.23
454.774	0.23
455.229	0.23
455.684	0.23
456.138	0.23
456.593	0.23
457.048	0.23
457.503	0.23
457.957	0.23
458.412	0.23
458.866	0.23
459.321	0.23
459.776	0.23
460.23	0.23
460.685	0.23
461.139	0.23
461.593	0.23
462.048	0.23
462.502	0.23
462.957	0.23
463.411	0.23
463.865	0.23
464.319	0.23
464.774	0.23
465.228	0.23
465.682	0.23
466.136	0.23
466.59	0.23
467.044	0.23
467.499	0.23
467.953	0.23
468.407	0.22
468.861	0.22
469.315	0.22
469.768	0.22
470.222	0.22
470.676	0.22
471.13	0.22
471.584	0.22
472.038	0.22
472.491	0.22
472.945	0.22
473.399	0.22
473.852	0.22
474.306	0.22
474.76	0.22
475.213	0.22
475.667	0.22
476.12	0.22
476.574	0.22
477.027	0.22
477.481	0.22
477.934	0.22
478.388	0.22
478.841	0.22
479.294	0.22
479.748	0.22
480.201	0.22
480.654	0.22
481.107	0.22
481.561	0.22
482.014	0.23
482.467	0.23
482.92	0.23
483.373	0.23
483.826	0.23
484.279	0.23
484.732	0.23
485.185	0.23
485.638	0.23
486.091	0.23
486.544	0.23
486.997	0.23
487.449	0.23
487.902	0.23
488.355	0.23
488.808	0.23
489.26	0.23
489.713	0.23
490.166	0.23
490.618	0.23
491.071	0.23
491.523	0.23
491.976	0.23
492.429	0.23
492.881	0.23
493.333	0.23
493.786	0.23
494.238	0.23
494.691	0.23
495.143	0.23
495.595	0.23
496.048	0.23
496.5	0.23
496.952	0.24
497.404	0.24
497.856	0.24
498.309	0.24
498.761	0.24
499.213	0.24
499.665	0.24
500.117	0.24
500.569	0.24
501.021	0.24
501.473	0.24
501.925	0.24
502.377	0.24
502.828	0.24
503.28	0.24
503.732	0.25
504.184	0.25
504.636	0.25
505.087	0.25
505.539	0.25
505.991	0.25
506.442	0.25
506.894	0.25
507.345	0.25
507.797	0.25
508.249	0.25
508.7	0.25
509.151	0.25
509.603	0.25
510.054	0.25
510.506	0.25
510.957	0.25
511.408	0.25
511.86	0.25
512.311	0.25
512.762	0.25
513.213	0.25
513.665	0.25
514.116	0.25
514.567	0.25
515.018	0.25
515.469	0.25
515.92	0.25
516.371	0.25
516.822	0.25
517.273	0.26
517.724	0.26
518.175	0.26
518.626	0.25
519.076	0.25
519.527	0.25
519.978	0.25
520.429	0.25
520.88	0.25
521.33	0.25
521.781	0.25
522.232	0.25
522.682	0.25
523.133	0.25
523.583	0.25
524.034	0.25
524.484	0.26
524.935	0.26
525.385	0.26
525.836	0.26
526.286	0.27
526.736	0.27
527.187	0.27
527.637	0.27
528.087	0.28
528.538	0.28
528.988	0.28
529.438	0.28
529.888	0.28
530.338	0.28
530.788	0.28
531.238	0.28
531.688	0.28
532.139	0.28
532.589	0.29
533.038	0.29
533.488	0.29
533.938	0.29
534.388	0.29
534.838	0.29
535.288	0.29
535.738	0.29
536.187	0.29
536.637	0.29
537.087	0.3
537.537	0.3
537.986	0.3
538.436	0.3
538.885	0.3
539.335	0.3
539.785	0.3
540.234	0.3
540.684	0.3
541.133	0.3
541.582	0.3
542.032	0.3
542.481	0.3
542.931	0.3
543.38	0.3
543.829	0.31
544.278	0.31
544.728	0.31
545.177	0.31
545.626	0.31
546.075	0.31
546.524	0.31
546.973	0.31
547.422	0.31
547.871	0.31
548.32	0.31
548.769	0.31
549.218	0.31
549.667	0.31
550.116	0.31
550.565	0.31
551.014	0.31
551.463	0.32
551.911	0.32
552.36	0.32
552.809	0.32
553.258	0.32
553.706	0.32
554.155	0.32
554.603	0.32
555.052	0.32
555.501	0.32
555.949	0.32
556.398	0.32
556.846	0.32
557.294	0.32
557.743	0.32
558.191	0.32
558.64	0.32
559.088	0.32
559.536	0.32
559.985	0.33
560.433	0.33
560.881	0.33
561.329	0.33
561.777	0.33
562.225	0.33
562.674	0.33
563.122	0.33
563.57	0.33
564.018	0.33
564.466	0.33
564.914	0.33
565.362	0.33
565.809	0.33
566.257	0.33
566.705	0.33
567.153	0.34
567.601	0.34
568.048	0.34
568.496	0.34
568.944	0.34
569.392	0.35
569.839	0.35
570.287	0.35
570.734	0.35
571.182	0.35
571.63	0.36
572.077	0.36
572.525	0.36
572.972	0.36
573.419	0.36
573.867	0.36
574.314	0.36
574.761	0.36
575.209	0.36
575.656	0.37
576.103	0.37
576.551	0.37
576.998	0.37
577.445	0.37
577.892	0.37
578.339	0.37
578.786	0.37
579.233	0.37
579.68	0.37
580.127	0.37
580.574	0.37
581.021	0.37
581.468	0.37
581.915	0.37
582.362	0.37
582.809	0.37
583.255	0.37
583.702	0.37
584.149	0.37
584.596	0.36
585.042	0.36
585.489	0.36
585.936	0.36
586.382	0.36
586.829	0.36
587.275	0.36
587.722	0.36
588.168	0.36
588.615	0.36
589.061	0.36
589.508	0.36
589.954	0.35
590.4	0.35
590.847	0.35
591.293	0.35
591.739	0.35
592.185	0.35
592.632	0.35
593.078	0.35
593.524	0.35
593.97	0.35
594.416	0.35
594.862	0.35
595.308	0.35
595.754	0.35
596.2	0.35
596.646	0.35
597.092	0.35
597.538	0.35
597.984	0.35
598.43	0.35
598.876	0.35
599.321	0.35
599.767	0.35
600.213	0.35
600.659	0.35
601.104	0.35
601.55	0.35
601.995	0.34
602.441	0.34
602.887	0.34
603.332	0.34
603.778	0.34
604.223	0.34
604.668	0.34
605.114	0.34
605.559	0.34
606.005	0.34
606.45	0.34
606.895	0.34
607.341	0.34
607.786	0.34
608.231	0.34
608.676	0.34
609.121	0.33
609.566	0.33
610.012	0.33
610.457	0.33
610.902	0.33
611.347	0.33
611.792	0.33
612.237	0.33
612.682	0.33
613.127	0.33
613.571	0.33
614.016	0.32
614.461	0.32
614.906	0.32
615.351	0.32
615.795	0.32
616.24	0.32
616.685	0.31
617.129	0.31
617.574	0.31
618.019	0.31
618.463	0.31
618.908	0.31
619.352	0.31
619.797	0.31
620.241	0.31
620.686	0.3
621.13	0.3
621.574	0.3
622.019	0.3
622.463	0.3
622.907	0.3
623.352	0.3
623.796	0.3
624.24	0.3
624.684	0.3
625.128	0.3
625.572	0.29
626.016	0.29
626.461	0.29
626.905	0.29
627.349	0.29
627.793	0.29
628.236	0.29
628.68	0.29
629.124	0.29
629.568	0.29
630.012	0.29
630.456	0.29
630.9	0.28
631.343	0.28
631.787	0.28
632.231	0.28
632.674	0.28
633.118	0.28
633.562	0.28
634.005	0.28
634.449	0.28
634.892	0.27
635.336	0.27
635.779	0.27
636.223	0.27
636.666	0.27
637.109	0.27
637.553	0.27
637.996	0.27
638.439	0.27
638.883	0.27
639.326	0.27
639.769	0.27
640.212	0.27
640.655	0.27
641.099	0.27
641.542	0.27
641.985	0.27
642.428	0.27
642.871	0.27
643.314	0.27
643.757	0.27
644.2	0.27
644.643	0.27
645.085	0.27
645.528	0.27
645.971	0.27
646.414	0.27
646.857	0.27
647.299	0.27
647.742	0.27
648.185	0.27
648.627	0.27
649.07	0.27
649.513	0.27
649.955	0.27
650.398	0.27
650.84	0.27
651.283	0.27
651.725	0.27
652.168	0.27
652.61	0.27
653.052	0.28
653.495	0.27
653.937	0.21
654.379	0.17
654.821	0.18
655.264	0.18
655.706	0.18
656.148	0.18
656.59	0.18
657.032	0.18
657.474	0.18
657.916	0.18
658.358	0.18
658.8	0.22
659.242	0.28
659.684	0.29
660.126	0.29
660.568	0.29
661.01	0.29
661.452	0.29
661.894	0.29
662.335	0.29
662.777	0.29
663.219	0.29
663.661	0.29
664.102	0.29
664.544	0.29
664.985	0.29
665.427	0.29
665.869	0.29
666.31	0.29
666.752	0.29
667.193	0.29
667.634	0.3
668.076	0.3
668.517	0.3
668.959	0.3
669.4	0.3
669.841	0.3
670.282	0.3
670.724	0.31
671.165	0.31
671.606	0.31
672.047	0.31
672.488	0.31
672.929	0.31
673.37	0.31
673.811	0.31
674.252	0.31
674.693	0.31
675.134	0.31
675.575	0.31
676.016	0.32
676.457	0.32
676.898	0.32
677.339	0.32
677.78	0.32
678.22	0.32
678.661	0.32
679.102	0.32
679.542	0.32
679.983	0.32
680.424	0.32
680.864	0.32
681.305	0.32
681.745	0.32
682.186	0.32
682.626	0.32
683.067	0.32
683.507	0.33
683.948	0.33
684.388	0.33
684.828	0.33
685.269	0.33
685.709	0.33
686.149	0.33
686.589	0.33
687.029	0.33
687.47	0.33
687.91	0.33
688.35	0.33
688.79	0.33
689.23	0.34
689.67	0.34
690.11	0.34
690.55	0.34
690.99	0.34
691.43	0.34
691.87	0.34
692.31	0.34
692.749	0.34
693.189	0.35
693.629	0.35
694.069	0.35
694.508	0.35
694.948	0.35
695.388	0.35
695.827	0.35
696.267	0.35
696.706	0.35
697.146	0.35
697.586	0.36
698.025	0.35
698.464	0.36
698.904	0.36
699.343	0.36
699.783	0.35
700.222	0.36
700.661	0.36
701.101	0.36
701.54	0.36
701.979	0.36
702.418	0.36
702.857	0.36
703.297	0.36
703.736	0.36
704.175	0.36
704.614	0.36
705.053	0.36
705.492	0.37
705.931	0.37
706.37	0.37
706.809	0.37
707.248	0.37
707.687	0.37
708.125	0.37
708.564	0.37
709.003	0.37
709.442	0.37
709.88	0.37
710.319	0.37
710.758	0.37
711.196	0.37
711.635	0.37
712.074	0.37
712.512	0.37
712.951	0.37
713.389	0.37
713.828	0.37
714.266	0.37
714.705	0.37
715.143	0.37
715.581	0.37
716.02	0.37
716.458	0.37
716.896	0.37
717.334	0.37
717.773	0.37
718.211	0.37
718.649	0.37
719.087	0.37
719.525	0.37
719.963	0.37
720.401	0.37
720.839	0.37
721.277	0.37
721.715	0.37
722.153	0.37
722.591	0.37
723.029	0.37
723.467	0.37
723.905	0.37
724.342	0.37
724.78	0.37
725.218	0.37
725.656	0.37
726.093	0.37
726.531	0.37
726.969	0.37
727.406	0.37
727.844	0.37
728.281	0.37
728.719	0.37
729.156	0.37
729.594	0.37
730.031	0.37
730.469	0.37
730.906	0.37
731.343	0.37
731.781	0.37
732.218	0.37
732.655	0.38
733.092	0.38
733.53	0.38
733.967	0.37
734.404	0.37
734.841	0.38
735.278	0.38
735.715	0.37
736.152	0.37
736.589	0.37
737.026	0.37
737.463	0.37
737.9	0.37
738.337	0.37
738.774	0.37
739.211	0.37
739.647	0.37
740.084	0.37
740.521	0.37
740.958	0.37
741.394	0.37
741.831	0.36
742.268	0.36
742.704	0.36
743.141	0.36
743.577	0.36
744.014	0.36
744.45	0.36
744.887	0.35
745.323	0.35
745.76	0.35
746.196	0.35
746.632	0.35
747.069	0.35
747.505	0.35
747.941	0.35
748.378	0.35
748.814	0.35
749.25	0.35
749.686	0.35
750.122	0.35
750.558	0.35
750.994	0.35
751.43	0.35
751.866	0.35
752.302	0.35
752.738	0.35
753.174	0.35
753.61	0.35
754.046	0.35
754.482	0.35
754.918	0.35
755.354	0.36
755.789	0.36
756.225	0.36
756.661	0.36
757.096	0.36
757.532	0.36
757.968	0.36
758.403	0.36
758.839	0.36
759.274	0.35
759.71	0.35
760.145	0.35
760.581	0.35
761.016	0.34
761.452	0.34
761.887	0.34
762.322	0.34
762.758	0.34
763.193	0.34
763.628	0.33
764.063	0.33
764.499	0.33
764.934	0.33
765.369	0.32
765.804	0.32
766.239	0.32
766.674	0.32
767.109	0.31
767.544	0.31
767.979	0.31
768.414	0.3
768.849	0.3
769.284	0.3
769.719	0.3
770.154	0.29
770.588	0.29
771.023	0.29
771.458	0.28
771.893	0.28
772.327	0.27
772.762	0.27
773.197	0.27
773.631	0.26
774.066	0.26
774.5	0.25
774.935	0.25
775.369	0.24
775.804	0.24
776.238	0.23
776.673	0.23
777.107	0.22
777.541	0.22
777.976	0.21
778.41	0.2
778.844	0.2
779.279	0.19
779.713	0.19
780.147	0.18
780.581	0.17
781.015	0.16
781.449	0.15
781.883	0.14
782.317	0.13
782.751	0.12
783.185	0.11
783.619	0.09
784.053	0.08
784.487	0.06
784.921	0.05
785.355	0.03
785.789	0.02
786.223	0.01
786.656	-0
787.09	-0.01
787.524	-0.02
787.957	-0.03
788.391	-0.04
788.825	-0.05
789.258	-0.05
789.692	-0.05
790.125	-0.05
790.559	-0.06
790.992	-0.06
791.426	-0.06
791.859	-0.06
792.293	-0.05
792.726	-0.04
793.159	-0.04
793.593	-0.04
794.026	-0.04
794.459	-0.04
794.892	-0.05
795.326	-0.05
795.759	-0.05
796.192	-0.05
796.625	-0.06
797.058	-0.07
797.491	-0.07
797.924	-0.08
798.357	-0.08
798.79	-0.08
799.223	-0.08
799.656	-0.08
800.089	-0.08
800.522	-0.09
800.955	-0.09
801.387	-0.09
801.82	-0.09
802.253	-0.09
802.686	-0.09
803.118	-0.09
803.551	-0.09
803.984	-0.08
804.416	-0.08
804.849	-0.07
805.281	-0.07
805.714	-0.07
806.146	-0.07
806.579	-0.07
807.011	-0.07
807.444	-0.07
807.876	-0.07
808.308	-0.07
808.741	-0.07
809.173	-0.08
809.605	-0.08
810.037	-0.08
810.47	-0.08
810.902	-0.09
811.334	-0.09
811.766	-0.08
812.198	-0.08
812.63	-0.08
813.062	-0.08
813.494	-0.08
813.926	-0.08
814.358	-0.08
814.79	-0.08
815.222	-0.07
815.654	-0.07
816.086	-0.07
816.518	-0.08
816.949	-0.08
817.381	-0.07
817.813	-0.07
818.245	-0.06
818.676	-0.04
819.108	-0.03
819.54	-0.02
819.971	-0.01
820.403	0
820.834	0.02
821.266	0.04
821.697	0.06
822.129	0.07
822.56	0.09
822.991	0.1
823.423	0.11
823.854	0.12
824.286	0.14
824.717	0.15
825.148	0.16
825.579	0.17
826.01	0.18
826.442	0.19
826.873	0.2
827.304	0.21
827.735	0.22
828.166	0.22
828.597	0.23
829.028	0.23
829.459	0.24
829.89	0.24
830.321	0.25
830.752	0.25
831.183	0.26
831.613	0.26
832.044	0.26
832.475	0.27
832.906	0.27
833.336	0.27
833.767	0.28
834.198	0.28
834.628	0.28
835.059	0.28
835.49	0.29
835.92	0.29
836.351	0.29
836.781	0.29
837.212	0.29
837.642	0.29
838.072	0.3
838.503	0.3
838.933	0.3
839.364	0.3
839.794	0.3
840.224	0.3
840.654	0.3
841.085	0.3
841.515	0.3
841.945	0.3
842.375	0.3
842.805	0.3
843.235	0.3
843.665	0.3
844.095	0.3
844.525	0.3
844.955	0.3
845.385	0.3
845.815	0.3
846.245	0.3
846.675	0.3
847.105	0.3
847.534	0.3
847.964	0.3
848.394	0.31
848.824	0.31
849.253	0.31
849.683	0.31
850.112	0.31
850.542	0.31
850.972	0.31
851.401	0.31
851.831	0.31
852.26	0.31
852.69	0.31
853.119	0.31
853.548	0.31
853.978	0.31
854.407	0.31
854.836	0.31
855.266	0.31
855.695	0.31
856.124	0.31
856.553	0.31
856.983	0.31
857.412	0.31
857.841	0.31
858.27	0.31
858.699	0.3
859.128	0.3
859.557	0.3
859.986	0.3
860.415	0.3
860.844	0.3
861.273	0.3
861.702	0.3
862.13	0.3
862.559	0.3
862.988	0.3
863.417	0.3
863.845	0.3
864.274	0.3
864.703	0.3
865.131	0.3
865.56	0.3
865.989	0.3
866.417	0.3
866.846	0.3
867.274	0.3
867.703	0.3
868.131	0.3
868.559	0.3
868.988	0.3
869.416	0.3
869.844	0.3
870.273	0.3
870.701	0.3
871.129	0.3
871.557	0.3
871.986	0.3
872.414	0.3
872.842	0.3
873.27	0.3
873.698	0.3
874.126	0.3
874.554	0.29
874.982	0.29
875.41	0.29
875.838	0.29
876.266	0.29
876.694	0.29
877.122	0.29
877.549	0.29
877.977	0.29
878.405	0.29
878.833	0.29
879.26	0.29
879.688	0.29
880.116	0.29
880.543	0.29
880.971	0.29
881.399	0.29
881.826	0.29
882.254	0.29
882.681	0.29
883.109	0.29
883.536	0.29
883.963	0.29
884.391	0.29
884.818	0.29
885.245	0.29
885.673	0.29
886.1	0.29
886.527	0.29
886.954	0.29
887.381	0.29
887.809	0.29
888.236	0.29
888.663	0.29
889.09	0.29
889.517	0.29
889.944	0.29
890.371	0.29
890.798	0.29
891.225	0.29
891.652	0.29
892.078	0.29
892.505	0.29
892.932	0.29
893.359	0.29
893.786	0.29
894.212	0.29
894.639	0.29
895.066	0.29
895.492	0.29
895.919	0.29
896.346	0.29
896.772	0.29
897.199	0.29
897.625	0.28
898.052	0.28
898.478	0.28
898.904	0.28
899.331	0.28
899.757	0.28
900.183	0.28
900.61	0.28
901.036	0.28
901.462	0.28
901.888	0.28
902.315	0.28
902.741	0.28
903.167	0.28
903.593	0.28
904.019	0.28
904.445	0.28
904.871	0.28
905.297	0.28
905.723	0.28
906.149	0.28
906.575	0.28
907.001	0.27
907.427	0.27
907.852	0.27
908.278	0.27
908.704	0.27
909.13	0.27
909.555	0.27
909.981	0.27
910.407	0.27
910.832	0.27
911.258	0.27
911.684	0.27
912.109	0.27
912.535	0.27
912.96	0.27
913.386	0.27
913.811	0.27
914.236	0.27
914.662	0.28
915.087	0.28
915.512	0.28
915.938	0.28
916.363	0.28
916.788	0.28
917.213	0.27
917.639	0.27
918.064	0.27
918.489	0.27
918.914	0.27
919.339	0.27
919.764	0.27
920.189	0.27
920.614	0.27
921.039	0.27
921.464	0.27
921.889	0.27
922.314	0.27
922.738	0.27
923.163	0.27
923.588	0.27
924.013	0.27
924.437	0.26
924.862	0.26
925.287	0.26
925.711	0.26
926.136	0.26
926.561	0.26
926.985	0.26
927.41	0.26
927.834	0.26
928.259	0.26
928.683	0.26
929.108	0.26
929.532	0.26
929.956	0.26
930.381	0.26
930.805	0.26
931.229	0.25
931.653	0.25
932.078	0.25
932.502	0.25
932.926	0.25
933.35	0.25
933.774	0.25
934.198	0.25
934.622	0.25
935.046	0.25
935.47	0.25
935.894	0.25
936.318	0.25
936.742	0.25
937.166	0.25
937.59	0.25
938.014	0.25
938.437	0.25
938.861	0.25
939.285	0.25
939.709	0.25
940.132	0.25
940.556	0.25
940.98	0.25
941.403	0.25
941.827	0.25
942.25	0.25
942.674	0.25
943.097	0.25
943.521	0.25
943.944	0.25
944.368	0.25
944.791	0.25
945.214	0.25
945.638	0.25
946.061	0.24
946.484	0.24
946.907	0.24
947.331	0.24
947.754	0.24
948.177	0.24
948.6	0.24
949.023	0.24
949.446	0.24
949.869	0.24
950.292	0.24
950.715	0.24
951.138	0.23
951.561	0.23
951.984	0.23
952.407	0.23
952.83	0.23
953.252	0.23
953.675	0.23
954.098	0.23
954.521	0.23
954.943	0.23
955.366	0.23
955.789	0.23
956.211	0.23
956.634	0.23
957.056	0.23
957.479	0.23
957.902	0.23
958.324	0.23
958.746	0.23
959.169	0.23
959.591	0.23
960.014	0.23
960.436	0.23
960.858	0.23
961.281	0.23
961.703	0.23
962.125	0.23
962.547	0.23
962.969	0.23
963.391	0.23
963.814	0.23
964.236	0.23
964.658	0.23
965.08	0.23
965.502	0.23
965.924	0.23
966.346	0.23
966.768	0.23
967.189	0.23
967.611	0.23
968.033	0.23
968.455	0.23
968.877	0.23
969.298	0.23
969.72	0.23
970.142	0.23
970.563	0.23
970.985	0.23
971.407	0.23
971.828	0.23
972.25	0.23
972.671	0.23
973.093	0.23
973.514	0.23
973.936	0.23
974.357	0.23
974.778	0.23
975.2	0.23
975.621	0.23
976.042	0.23
976.464	0.23
976.885	0.23
977.306	0.22
977.727	0.22
978.148	0.22
978.57	0.22
978.991	0.22
979.412	0.22
979.833	0.22
980.254	0.22
980.675	0.22
981.096	0.22
981.517	0.22
981.937	0.22
982.358	0.21
982.779	0.21
983.2	0.21
983.621	0.21
984.042	0.21
984.462	0.21
984.883	0.21
985.304	0.21
985.724	0.21
986.145	0.21
986.565	0.21
986.986	0.21
987.407	0.21
987.827	0.21
988.248	0.21
988.668	0.21
989.088	0.21
989.509	0.21
989.929	0.21
990.35	0.21
990.77	0.21
991.19	0.21
991.61	0.21
992.031	0.21
992.451	0.21
992.871	0.21
993.291	0.21
993.711	0.21
994.131	0.2
994.551	0.2
994.971	0.2
995.391	0.2
995.811	0.2
996.231	0.2
996.651	0.2
997.071	0.2
997.491	0.2
997.911	0.2
998.331	0.2
998.75	0.2
999.17	0.2
999.59	0.2
1000.009	0.2
1000.429	0.2
1000.849	0.2
1001.268	0.2
1001.688	0.2
1002.107	0.2
1002.527	0.2
1002.946	0.2
1003.366	0.21
1003.785	0.21
1004.205	0.21
1004.624	0.2
1005.044	0.2
1005.463	0.2
1005.882	0.2
1006.301	0.2
1006.721	0.2
1007.14	0.2
1007.559	0.2
1007.978	0.2
1008.397	0.2
1008.816	0.2
1009.235	0.2
1009.655	0.2
1010.074	0.2
1010.492	0.2
1010.911	0.2
1011.33	0.2
1011.749	0.2
1012.168	0.2
1012.587	0.2
1013.006	0.19
1013.425	0.19
1013.843	0.19
1014.262	0.19
1014.681	0.19
1015.099	0.19
1015.518	0.19
1015.937	0.19
1016.355	0.19
1016.774	0.19
1017.192	0.19
1017.611	0.19
1018.029	0.19
1018.448	0.19
1018.866	0.19
1019.285	0.19
1019.703	0.19
1020.121	0.19
1020.54	0.19
1020.958	0.19
1021.376	0.19
1021.794	0.19
1022.213	0.19
1022.631	0.2
1023.049	0.2
1023.467	0.2
1023.885	0.2
1024.303	0.2
1024.721	0.2
1025.139	0.2
1025.557	0.2
1025.975	0.2
1026.393	0.2
1026.811	0.2
1027.229	0.2
1027.647	0.2
1028.065	0.2
1028.482	0.2
1028.9	0.2
1029.318	0.2
1029.735	0.21
1030.153	0.21
1030.571	0.21
1030.988	0.21
1031.406	0.21
1031.823	0.21
1032.241	0.21
1032.659	0.21
1033.076	0.21
1033.493	0.21
1033.911	0.2
1034.328	0.2
1034.746	0.2
1035.163	0.2
1035.58	0.2
1035.997	0.2
1036.415	0.2
1036.832	0.2
1037.249	0.19
1037.666	0.19
1038.083	0.19
1038.501	0.19
1038.918	0.19
1039.335	0.19
1039.752	0.19
1040.169	0.19
1040.586	0.19
1041.003	0.19
1041.419	0.19
1041.836	0.19
1042.253	0.19
1042.67	0.19
1043.087	0.19
1043.504	0.19
1043.92	0.19
1044.337	0.19
1044.754	0.19
1045.17	0.19
1045.587	0.19
1046.004	0.19
1046.42	0.19
1046.837	0.19
1047.253	0.19
1047.67	0.19
1048.086	0.19
1048.503	0.19
1048.919	0.19
1049.335	0.19
1049.752	0.18
1050.168	0.18
1050.584	0.18
1051.001	0.18
1051.417	0.18
1051.833	0.18
1052.249	0.18
1052.665	0.18
1053.081	0.18
1053.497	0.18
1053.914	0.18
1054.33	0.18
1054.746	0.18
1055.162	0.19
1055.578	0.18
1055.993	0.19
1056.409	0.19
1056.825	0.19
1057.241	0.18
1057.657	0.18
1058.073	0.18
1058.488	0.18
1058.904	0.19
1059.32	0.19
1059.736	0.19
1060.151	0.19
1060.567	0.19
1060.982	0.19
1061.398	0.19
1061.813	0.19
1062.229	0.19
1062.644	0.19
1063.06	0.19
1063.475	0.19
1063.891	0.19
1064.306	0.19
1064.721	0.19
1065.137	0.19
1065.552	0.19
1065.967	0.19
1066.382	0.19
1066.798	0.19
1067.213	0.19
1067.628	0.19
1068.043	0.19
1068.458	0.19
1068.873	0.19
1069.288	0.18
1069.703	0.18
1070.118	0.18
1070.533	0.18
1070.948	0.19
1071.363	0.18
1071.778	0.19
1072.193	0.19
1072.607	0.19
1073.022	0.19
1073.437	0.19
1073.852	0.19
1074.266	0.19
1074.681	0.19
1075.096	0.19
1075.51	0.19
1075.925	0.19
1076.339	0.19
1076.754	0.19
1077.168	0.19
1077.583	0.19
1077.997	0.19
1078.412	0.19
1078.826	0.19
1079.24	0.19
1079.655	0.19
1080.069	0.19
1080.483	0.19
1080.897	0.19
1081.312	0.19
1081.726	0.19
1082.14	0.2
1082.554	0.2
1082.968	0.2
1083.382	0.2
1083.796	0.2
1084.21	0.2
1084.624	0.21
1085.038	0.21
1085.452	0.21
1085.866	0.21
1086.28	0.21
1086.694	0.21
1087.108	0.22
1087.521	0.22
1087.935	0.22
1088.349	0.22
1088.763	0.22
1089.176	0.22
1089.59	0.23
1090.004	0.23
1090.417	0.23
1090.831	0.23
1091.244	0.24
1091.658	0.24
1092.071	0.25
1092.485	0.25
1092.898	0.25
1093.312	0.26
1093.725	0.26
1094.138	0.27
1094.552	0.27
1094.965	0.28
1095.378	0.29
1095.791	0.3
1096.205	0.3
1096.618	0.31
1097.031	0.32
1097.444	0.32
1097.857	0.33
1098.27	0.34
1098.683	0.35
1099.096	0.36
1099.509	0.37
1099.922	0.39
1100.335	0.4
1100.748	0.41
1101.161	0.43
1101.574	0.45
1101.986	0.47
1102.399	0.5
1102.812	0.52
1103.225	0.55
1103.637	0.59
1104.05	0.63
1104.463	0.68
1104.875	0.74
1105.288	0.8
1105.7	0.87
1106.113	0.97
1106.525	1.13
1106.938	1.52
1107.35	-0
1107.763	-0
1108.175	-0
1108.588	-0
1109	-0
1109.412	-0
1109.824	-0
1110.237	-0
1110.649	-0
1111.061	-0
