Data from unagg-15c-2a-1h_Absorbance__52__00479.txt Node

Date: Mon May 06 09:34:28 CEST 2024
User: Laser008
Spectrometer: MAYP115816
Trigger mode: 0
Integration Time (sec): 2.000000E-1
Scans to average: 10
Electric dark correction enabled: true
Nonlinearity correction enabled: true
Boxcar width: 5
XAxis mode: Wavelengths
Number of Pixels in Spectrum: 2068
>>>>>Begin Spectral Data<<<<<
198.914	-1.69
199.384	-1.54
199.855	-1.4
200.325	-1.28
200.796	-1.2
201.266	-1.15
201.737	-1.08
202.207	-1.02
202.677	-0.97
203.147	-0.93
203.618	-0.9
204.088	-0.88
204.558	-0.85
205.028	-0.84
205.498	-0.84
205.968	-0.84
206.439	-0.84
206.909	-0.83
207.379	-0.83
207.849	-0.83
208.319	-0.83
208.789	-0.82
209.258	-0.82
209.728	-0.82
210.198	-0.82
210.668	-0.82
211.138	-0.82
211.608	-0.82
212.077	-0.82
212.547	-0.82
213.017	-0.81
213.486	-0.81
213.956	-0.81
214.426	-0.81
214.895	-0.81
215.365	-0.81
215.834	-0.81
216.304	-0.8
216.773	-0.8
217.243	-0.8
217.712	-0.8
218.181	-0.8
218.651	-0.79
219.12	-0.79
219.589	-0.79
220.058	-0.79
220.528	-0.79
220.997	-0.78
221.466	-0.78
221.935	-0.77
222.404	-0.77
222.873	-0.76
223.342	-0.76
223.812	-0.75
224.281	-0.74
224.749	-0.73
225.218	-0.72
225.687	-0.71
226.156	-0.7
226.625	-0.69
227.094	-0.67
227.563	-0.65
228.031	-0.64
228.5	-0.61
228.969	-0.59
229.438	-0.56
229.906	-0.53
230.375	-0.49
230.844	-0.45
231.312	-0.41
231.781	-0.37
232.249	-0.32
232.718	-0.27
233.186	-0.23
233.655	-0.18
234.123	-0.13
234.591	-0.07
235.06	-0.02
235.528	0.03
235.996	0.07
236.465	0.12
236.933	0.17
237.401	0.21
237.869	0.25
238.337	0.3
238.805	0.34
239.274	0.37
239.742	0.41
240.21	0.44
240.678	0.47
241.146	0.5
241.614	0.53
242.081	0.56
242.549	0.58
243.017	0.6
243.485	0.63
243.953	0.65
244.421	0.66
244.888	0.68
245.356	0.7
245.824	0.71
246.291	0.73
246.759	0.74
247.227	0.76
247.694	0.77
248.162	0.78
248.629	0.79
249.097	0.8
249.564	0.81
250.032	0.82
250.499	0.83
250.967	0.84
251.434	0.85
251.901	0.85
252.369	0.86
252.836	0.87
253.303	0.87
253.77	0.88
254.237	0.88
254.705	0.89
255.172	0.89
255.639	0.9
256.106	0.9
256.573	0.91
257.04	0.91
257.507	0.91
257.974	0.92
258.441	0.92
258.908	0.92
259.375	0.92
259.841	0.93
260.308	0.93
260.775	0.93
261.242	0.93
261.709	0.93
262.175	0.93
262.642	0.93
263.109	0.93
263.575	0.93
264.042	0.93
264.508	0.93
264.975	0.93
265.441	0.93
265.908	0.93
266.374	0.93
266.841	0.93
267.307	0.93
267.773	0.93
268.24	0.93
268.706	0.93
269.172	0.93
269.639	0.93
270.105	0.92
270.571	0.92
271.037	0.92
271.503	0.92
271.969	0.92
272.435	0.91
272.902	0.91
273.368	0.91
273.834	0.91
274.3	0.91
274.765	0.9
275.231	0.9
275.697	0.9
276.163	0.9
276.629	0.89
277.095	0.89
277.56	0.89
278.026	0.88
278.492	0.88
278.958	0.87
279.423	0.87
279.889	0.87
280.354	0.87
280.82	0.86
281.286	0.86
281.751	0.86
282.217	0.86
282.682	0.85
283.147	0.85
283.613	0.85
284.078	0.85
284.544	0.85
285.009	0.84
285.474	0.84
285.939	0.84
286.405	0.83
286.87	0.83
287.335	0.83
287.8	0.83
288.265	0.82
288.73	0.82
289.195	0.82
289.66	0.81
290.125	0.81
290.59	0.81
291.055	0.81
291.52	0.8
291.985	0.8
292.45	0.8
292.915	0.79
293.38	0.79
293.844	0.79
294.309	0.79
294.774	0.79
295.239	0.78
295.703	0.78
296.168	0.78
296.632	0.78
297.097	0.77
297.562	0.77
298.026	0.77
298.491	0.77
298.955	0.77
299.419	0.77
299.884	0.76
300.348	0.76
300.813	0.76
301.277	0.76
301.741	0.76
302.205	0.75
302.67	0.75
303.134	0.75
303.598	0.75
304.062	0.75
304.526	0.75
304.99	0.74
305.454	0.74
305.919	0.74
306.383	0.74
306.847	0.74
307.31	0.74
307.774	0.73
308.238	0.73
308.702	0.73
309.166	0.73
309.63	0.73
310.094	0.73
310.557	0.72
311.021	0.72
311.485	0.72
311.948	0.72
312.412	0.72
312.876	0.72
313.339	0.71
313.803	0.71
314.266	0.71
314.73	0.71
315.193	0.71
315.657	0.71
316.12	0.7
316.584	0.7
317.047	0.7
317.51	0.7
317.973	0.7
318.437	0.7
318.9	0.7
319.363	0.69
319.826	0.69
320.29	0.69
320.753	0.69
321.216	0.69
321.679	0.69
322.142	0.68
322.605	0.68
323.068	0.68
323.531	0.68
323.994	0.68
324.457	0.68
324.92	0.67
325.382	0.67
325.845	0.67
326.308	0.67
326.771	0.67
327.233	0.67
327.696	0.67
328.159	0.66
328.622	0.66
329.084	0.66
329.547	0.66
330.009	0.66
330.472	0.66
330.934	0.66
331.397	0.65
331.859	0.65
332.322	0.65
332.784	0.65
333.246	0.65
333.709	0.65
334.171	0.65
334.633	0.64
335.096	0.64
335.558	0.64
336.02	0.64
336.482	0.64
336.944	0.64
337.406	0.64
337.868	0.64
338.331	0.63
338.793	0.63
339.255	0.63
339.717	0.63
340.178	0.63
340.64	0.63
341.102	0.63
341.564	0.63
342.026	0.63
342.488	0.62
342.949	0.62
343.411	0.62
343.873	0.62
344.335	0.62
344.796	0.62
345.258	0.62
345.719	0.62
346.181	0.62
346.643	0.62
347.104	0.62
347.566	0.61
348.027	0.61
348.488	0.61
348.95	0.61
349.411	0.61
349.873	0.61
350.334	0.61
350.795	0.61
351.256	0.61
351.718	0.61
352.179	0.61
352.64	0.61
353.101	0.6
353.562	0.6
354.023	0.6
354.484	0.6
354.945	0.6
355.406	0.6
355.867	0.6
356.328	0.6
356.789	0.59
357.25	0.59
357.711	0.59
358.172	0.59
358.633	0.59
359.093	0.59
359.554	0.59
360.015	0.6
360.476	0.6
360.936	0.6
361.397	0.6
361.858	0.6
362.318	0.6
362.779	0.6
363.239	0.6
363.7	0.6
364.16	0.6
364.621	0.6
365.081	0.59
365.541	0.59
366.002	0.59
366.462	0.59
366.922	0.59
367.383	0.59
367.843	0.59
368.303	0.59
368.763	0.59
369.223	0.59
369.684	0.59
370.144	0.59
370.604	0.59
371.064	0.59
371.524	0.59
371.984	0.59
372.444	0.59
372.904	0.59
373.363	0.59
373.823	0.59
374.283	0.58
374.743	0.58
375.203	0.58
375.663	0.58
376.122	0.58
376.582	0.58
377.042	0.58
377.501	0.58
377.961	0.58
378.42	0.58
378.88	0.58
379.34	0.58
379.799	0.58
380.259	0.58
380.718	0.58
381.177	0.58
381.637	0.58
382.096	0.58
382.555	0.58
383.015	0.58
383.474	0.58
383.933	0.58
384.393	0.58
384.852	0.58
385.311	0.58
385.77	0.58
386.229	0.58
386.688	0.58
387.147	0.58
387.606	0.58
388.065	0.57
388.524	0.57
388.983	0.57
389.442	0.57
389.901	0.57
390.36	0.57
390.819	0.57
391.277	0.57
391.736	0.57
392.195	0.57
392.654	0.57
393.112	0.57
393.571	0.57
394.03	0.57
394.488	0.57
394.947	0.57
395.405	0.57
395.864	0.57
396.322	0.57
396.781	0.57
397.239	0.57
397.698	0.57
398.156	0.57
398.614	0.57
399.073	0.57
399.531	0.57
399.989	0.57
400.447	0.56
400.905	0.56
401.364	0.56
401.822	0.56
402.28	0.56
402.738	0.56
403.196	0.56
403.654	0.56
404.112	0.56
404.57	0.56
405.028	0.56
405.486	0.56
405.944	0.56
406.402	0.56
406.859	0.56
407.317	0.55
407.775	0.55
408.233	0.55
408.691	0.55
409.148	0.55
409.606	0.55
410.064	0.55
410.521	0.55
410.979	0.55
411.436	0.55
411.894	0.55
412.351	0.55
412.809	0.55
413.266	0.55
413.724	0.55
414.181	0.55
414.638	0.55
415.096	0.55
415.553	0.54
416.01	0.54
416.467	0.54
416.925	0.54
417.382	0.54
417.839	0.54
418.296	0.54
418.753	0.54
419.21	0.54
419.667	0.54
420.124	0.54
420.581	0.54
421.038	0.54
421.495	0.54
421.952	0.54
422.409	0.54
422.866	0.54
423.322	0.54
423.779	0.54
424.236	0.54
424.693	0.54
425.149	0.54
425.606	0.54
426.063	0.54
426.519	0.54
426.976	0.54
427.433	0.54
427.889	0.54
428.346	0.54
428.802	0.54
429.258	0.54
429.715	0.54
430.171	0.54
430.628	0.54
431.084	0.54
431.54	0.54
431.997	0.54
432.453	0.54
432.909	0.54
433.365	0.53
433.821	0.53
434.277	0.53
434.734	0.53
435.19	0.53
435.646	0.53
436.102	0.53
436.558	0.53
437.014	0.53
437.47	0.53
437.925	0.53
438.381	0.53
438.837	0.53
439.293	0.53
439.749	0.53
440.205	0.53
440.66	0.53
441.116	0.53
441.572	0.53
442.027	0.53
442.483	0.53
442.939	0.53
443.394	0.53
443.85	0.53
444.305	0.53
444.761	0.53
445.216	0.53
445.672	0.53
446.127	0.53
446.582	0.53
447.038	0.53
447.493	0.53
447.948	0.53
448.403	0.53
448.859	0.53
449.314	0.53
449.769	0.53
450.224	0.53
450.679	0.53
451.134	0.53
451.589	0.53
452.044	0.53
452.499	0.53
452.954	0.53
453.409	0.53
453.864	0.53
454.319	0.53
454.774	0.53
455.229	0.53
455.684	0.53
456.138	0.52
456.593	0.52
457.048	0.52
457.503	0.53
457.957	0.53
458.412	0.53
458.866	0.53
459.321	0.53
459.776	0.53
460.23	0.53
460.685	0.52
461.139	0.52
461.593	0.52
462.048	0.52
462.502	0.52
462.957	0.52
463.411	0.53
463.865	0.53
464.319	0.53
464.774	0.53
465.228	0.53
465.682	0.53
466.136	0.53
466.59	0.53
467.044	0.53
467.499	0.53
467.953	0.53
468.407	0.53
468.861	0.52
469.315	0.52
469.768	0.52
470.222	0.52
470.676	0.52
471.13	0.52
471.584	0.52
472.038	0.52
472.491	0.53
472.945	0.53
473.399	0.53
473.852	0.53
474.306	0.53
474.76	0.53
475.213	0.54
475.667	0.54
476.12	0.54
476.574	0.54
477.027	0.54
477.481	0.54
477.934	0.54
478.388	0.54
478.841	0.54
479.294	0.54
479.748	0.55
480.201	0.55
480.654	0.55
481.107	0.55
481.561	0.55
482.014	0.55
482.467	0.56
482.92	0.56
483.373	0.56
483.826	0.57
484.279	0.57
484.732	0.57
485.185	0.58
485.638	0.58
486.091	0.58
486.544	0.58
486.997	0.59
487.449	0.59
487.902	0.59
488.355	0.59
488.808	0.59
489.26	0.59
489.713	0.59
490.166	0.59
490.618	0.59
491.071	0.59
491.523	0.59
491.976	0.59
492.429	0.6
492.881	0.6
493.333	0.6
493.786	0.61
494.238	0.61
494.691	0.61
495.143	0.62
495.595	0.62
496.048	0.62
496.5	0.62
496.952	0.63
497.404	0.63
497.856	0.63
498.309	0.64
498.761	0.64
499.213	0.64
499.665	0.64
500.117	0.65
500.569	0.65
501.021	0.65
501.473	0.66
501.925	0.66
502.377	0.66
502.828	0.67
503.28	0.67
503.732	0.67
504.184	0.67
504.636	0.68
505.087	0.68
505.539	0.68
505.991	0.68
506.442	0.69
506.894	0.69
507.345	0.69
507.797	0.69
508.249	0.69
508.7	0.7
509.151	0.7
509.603	0.7
510.054	0.7
510.506	0.7
510.957	0.7
511.408	0.71
511.86	0.71
512.311	0.71
512.762	0.71
513.213	0.71
513.665	0.71
514.116	0.71
514.567	0.71
515.018	0.71
515.469	0.71
515.92	0.71
516.371	0.71
516.822	0.71
517.273	0.71
517.724	0.72
518.175	0.72
518.626	0.72
519.076	0.71
519.527	0.71
519.978	0.71
520.429	0.71
520.88	0.7
521.33	0.7
521.781	0.7
522.232	0.7
522.682	0.7
523.133	0.7
523.583	0.7
524.034	0.7
524.484	0.71
524.935	0.71
525.385	0.72
525.836	0.72
526.286	0.72
526.736	0.73
527.187	0.73
527.637	0.74
528.087	0.74
528.538	0.74
528.988	0.74
529.438	0.74
529.888	0.74
530.338	0.74
530.788	0.74
531.238	0.74
531.688	0.74
532.139	0.74
532.589	0.74
533.038	0.74
533.488	0.74
533.938	0.74
534.388	0.74
534.838	0.74
535.288	0.74
535.738	0.74
536.187	0.74
536.637	0.74
537.087	0.74
537.537	0.73
537.986	0.73
538.436	0.73
538.885	0.73
539.335	0.73
539.785	0.73
540.234	0.72
540.684	0.72
541.133	0.72
541.582	0.72
542.032	0.71
542.481	0.71
542.931	0.71
543.38	0.71
543.829	0.7
544.278	0.7
544.728	0.7
545.177	0.7
545.626	0.7
546.075	0.7
546.524	0.69
546.973	0.69
547.422	0.69
547.871	0.68
548.32	0.68
548.769	0.68
549.218	0.67
549.667	0.67
550.116	0.67
550.565	0.66
551.014	0.66
551.463	0.65
551.911	0.65
552.36	0.65
552.809	0.65
553.258	0.64
553.706	0.64
554.155	0.64
554.603	0.63
555.052	0.63
555.501	0.62
555.949	0.62
556.398	0.61
556.846	0.61
557.294	0.6
557.743	0.6
558.191	0.6
558.64	0.59
559.088	0.59
559.536	0.59
559.985	0.58
560.433	0.58
560.881	0.58
561.329	0.58
561.777	0.58
562.225	0.57
562.674	0.57
563.122	0.57
563.57	0.56
564.018	0.56
564.466	0.55
564.914	0.55
565.362	0.54
565.809	0.54
566.257	0.54
566.705	0.53
567.153	0.53
567.601	0.53
568.048	0.53
568.496	0.52
568.944	0.52
569.392	0.52
569.839	0.52
570.287	0.52
570.734	0.52
571.182	0.52
571.63	0.51
572.077	0.51
572.525	0.51
572.972	0.51
573.419	0.5
573.867	0.5
574.314	0.5
574.761	0.49
575.209	0.49
575.656	0.49
576.103	0.49
576.551	0.48
576.998	0.48
577.445	0.48
577.892	0.48
578.339	0.47
578.786	0.47
579.233	0.47
579.68	0.47
580.127	0.46
580.574	0.46
581.021	0.46
581.468	0.45
581.915	0.45
582.362	0.45
582.809	0.45
583.255	0.44
583.702	0.44
584.149	0.43
584.596	0.43
585.042	0.43
585.489	0.42
585.936	0.42
586.382	0.42
586.829	0.42
587.275	0.41
587.722	0.41
588.168	0.41
588.615	0.4
589.061	0.4
589.508	0.4
589.954	0.39
590.4	0.39
590.847	0.39
591.293	0.39
591.739	0.38
592.185	0.38
592.632	0.38
593.078	0.38
593.524	0.38
593.97	0.38
594.416	0.37
594.862	0.37
595.308	0.37
595.754	0.37
596.2	0.37
596.646	0.37
597.092	0.37
597.538	0.37
597.984	0.36
598.43	0.36
598.876	0.36
599.321	0.36
599.767	0.36
600.213	0.36
600.659	0.36
601.104	0.35
601.55	0.35
601.995	0.35
602.441	0.35
602.887	0.35
603.332	0.35
603.778	0.35
604.223	0.35
604.668	0.35
605.114	0.35
605.559	0.35
606.005	0.35
606.45	0.35
606.895	0.35
607.341	0.34
607.786	0.34
608.231	0.34
608.676	0.34
609.121	0.34
609.566	0.34
610.012	0.34
610.457	0.34
610.902	0.34
611.347	0.34
611.792	0.34
612.237	0.34
612.682	0.34
613.127	0.34
613.571	0.34
614.016	0.34
614.461	0.34
614.906	0.34
615.351	0.34
615.795	0.33
616.24	0.33
616.685	0.33
617.129	0.33
617.574	0.33
618.019	0.33
618.463	0.33
618.908	0.33
619.352	0.33
619.797	0.33
620.241	0.34
620.686	0.34
621.13	0.34
621.574	0.34
622.019	0.34
622.463	0.34
622.907	0.34
623.352	0.34
623.796	0.34
624.24	0.34
624.684	0.34
625.128	0.34
625.572	0.35
626.016	0.35
626.461	0.35
626.905	0.35
627.349	0.35
627.793	0.36
628.236	0.36
628.68	0.36
629.124	0.36
629.568	0.36
630.012	0.36
630.456	0.36
630.9	0.37
631.343	0.37
631.787	0.37
632.231	0.37
632.674	0.37
633.118	0.37
633.562	0.38
634.005	0.38
634.449	0.38
634.892	0.38
635.336	0.39
635.779	0.39
636.223	0.39
636.666	0.39
637.109	0.4
637.553	0.4
637.996	0.4
638.439	0.41
638.883	0.41
639.326	0.41
639.769	0.41
640.212	0.42
640.655	0.42
641.099	0.43
641.542	0.43
641.985	0.43
642.428	0.44
642.871	0.44
643.314	0.44
643.757	0.45
644.2	0.45
644.643	0.46
645.085	0.46
645.528	0.46
645.971	0.47
646.414	0.47
646.857	0.48
647.299	0.48
647.742	0.49
648.185	0.49
648.627	0.5
649.07	0.5
649.513	0.51
649.955	0.51
650.398	0.52
650.84	0.52
651.283	0.53
651.725	0.53
652.168	0.54
652.61	0.54
653.052	0.55
653.495	0.55
653.937	0.48
654.379	0.44
654.821	0.45
655.264	0.46
655.706	0.46
656.148	0.46
656.59	0.47
657.032	0.47
657.474	0.47
657.916	0.47
658.358	0.48
658.8	0.55
659.242	0.62
659.684	0.63
660.126	0.63
660.568	0.63
661.01	0.64
661.452	0.64
661.894	0.65
662.335	0.65
662.777	0.66
663.219	0.66
663.661	0.67
664.102	0.67
664.544	0.68
664.985	0.68
665.427	0.69
665.869	0.69
666.31	0.7
666.752	0.7
667.193	0.71
667.634	0.71
668.076	0.72
668.517	0.72
668.959	0.73
669.4	0.73
669.841	0.74
670.282	0.74
670.724	0.75
671.165	0.75
671.606	0.76
672.047	0.76
672.488	0.76
672.929	0.77
673.37	0.77
673.811	0.77
674.252	0.77
674.693	0.77
675.134	0.78
675.575	0.78
676.016	0.78
676.457	0.78
676.898	0.79
677.339	0.79
677.78	0.79
678.22	0.79
678.661	0.8
679.102	0.8
679.542	0.8
679.983	0.8
680.424	0.8
680.864	0.8
681.305	0.8
681.745	0.8
682.186	0.81
682.626	0.81
683.067	0.81
683.507	0.81
683.948	0.81
684.388	0.81
684.828	0.81
685.269	0.82
685.709	0.82
686.149	0.82
686.589	0.82
687.029	0.82
687.47	0.82
687.91	0.82
688.35	0.82
688.79	0.81
689.23	0.81
689.67	0.82
690.11	0.81
690.55	0.81
690.99	0.81
691.43	0.81
691.87	0.81
692.31	0.81
692.749	0.81
693.189	0.81
693.629	0.81
694.069	0.8
694.508	0.8
694.948	0.8
695.388	0.8
695.827	0.8
696.267	0.8
696.706	0.8
697.146	0.79
697.586	0.79
698.025	0.79
698.464	0.78
698.904	0.78
699.343	0.78
699.783	0.77
700.222	0.77
700.661	0.77
701.101	0.76
701.54	0.76
701.979	0.76
702.418	0.75
702.857	0.75
703.297	0.75
703.736	0.74
704.175	0.74
704.614	0.74
705.053	0.74
705.492	0.73
705.931	0.73
706.37	0.73
706.809	0.72
707.248	0.72
707.687	0.71
708.125	0.71
708.564	0.71
709.003	0.7
709.442	0.7
709.88	0.69
710.319	0.69
710.758	0.68
711.196	0.68
711.635	0.67
712.074	0.67
712.512	0.66
712.951	0.66
713.389	0.66
713.828	0.65
714.266	0.65
714.705	0.64
715.143	0.64
715.581	0.63
716.02	0.63
716.458	0.62
716.896	0.62
717.334	0.61
717.773	0.61
718.211	0.6
718.649	0.6
719.087	0.59
719.525	0.59
719.963	0.59
720.401	0.58
720.839	0.58
721.277	0.57
721.715	0.57
722.153	0.56
722.591	0.56
723.029	0.55
723.467	0.55
723.905	0.54
724.342	0.54
724.78	0.53
725.218	0.53
725.656	0.52
726.093	0.52
726.531	0.51
726.969	0.51
727.406	0.51
727.844	0.5
728.281	0.5
728.719	0.5
729.156	0.49
729.594	0.49
730.031	0.48
730.469	0.48
730.906	0.48
731.343	0.47
731.781	0.47
732.218	0.47
732.655	0.46
733.092	0.46
733.53	0.46
733.967	0.45
734.404	0.45
734.841	0.45
735.278	0.44
735.715	0.44
736.152	0.43
736.589	0.43
737.026	0.43
737.463	0.42
737.9	0.42
738.337	0.41
738.774	0.41
739.211	0.41
739.647	0.4
740.084	0.4
740.521	0.39
740.958	0.39
741.394	0.39
741.831	0.38
742.268	0.38
742.704	0.37
743.141	0.37
743.577	0.36
744.014	0.36
744.45	0.35
744.887	0.35
745.323	0.34
745.76	0.34
746.196	0.34
746.632	0.33
747.069	0.33
747.505	0.33
747.941	0.33
748.378	0.32
748.814	0.32
749.25	0.32
749.686	0.32
750.122	0.31
750.558	0.31
750.994	0.31
751.43	0.31
751.866	0.31
752.302	0.3
752.738	0.3
753.174	0.3
753.61	0.3
754.046	0.3
754.482	0.29
754.918	0.29
755.354	0.29
755.789	0.29
756.225	0.29
756.661	0.28
757.096	0.28
757.532	0.28
757.968	0.28
758.403	0.27
758.839	0.27
759.274	0.27
759.71	0.26
760.145	0.26
760.581	0.26
761.016	0.25
761.452	0.25
761.887	0.25
762.322	0.25
762.758	0.24
763.193	0.24
763.628	0.24
764.063	0.23
764.499	0.23
764.934	0.23
765.369	0.22
765.804	0.22
766.239	0.22
766.674	0.22
767.109	0.21
767.544	0.21
767.979	0.2
768.414	0.2
768.849	0.2
769.284	0.19
769.719	0.19
770.154	0.19
770.588	0.18
771.023	0.18
771.458	0.17
771.893	0.17
772.327	0.17
772.762	0.16
773.197	0.16
773.631	0.16
774.066	0.15
774.5	0.15
774.935	0.14
775.369	0.14
775.804	0.14
776.238	0.13
776.673	0.13
777.107	0.12
777.541	0.12
777.976	0.11
778.41	0.11
778.844	0.1
779.279	0.1
779.713	0.09
780.147	0.09
780.581	0.08
781.015	0.08
781.449	0.07
781.883	0.06
782.317	0.05
782.751	0.04
783.185	0.03
783.619	0.02
784.053	0.01
784.487	0
784.921	-0.01
785.355	-0.02
785.789	-0.03
786.223	-0.03
786.656	-0.04
787.09	-0.04
787.524	-0.04
787.957	-0.05
788.391	-0.05
788.825	-0.06
789.258	-0.06
789.692	-0.06
790.125	-0.06
790.559	-0.06
790.992	-0.06
791.426	-0.06
791.859	-0.06
792.293	-0.05
792.726	-0.04
793.159	-0.04
793.593	-0.04
794.026	-0.04
794.459	-0.05
794.892	-0.05
795.326	-0.05
795.759	-0.05
796.192	-0.05
796.625	-0.06
797.058	-0.07
797.491	-0.07
797.924	-0.08
798.357	-0.08
798.79	-0.08
799.223	-0.08
799.656	-0.08
800.089	-0.08
800.522	-0.09
800.955	-0.09
801.387	-0.09
801.82	-0.09
802.253	-0.09
802.686	-0.09
803.118	-0.09
803.551	-0.09
803.984	-0.09
804.416	-0.08
804.849	-0.08
805.281	-0.07
805.714	-0.07
806.146	-0.07
806.579	-0.07
807.011	-0.07
807.444	-0.07
807.876	-0.07
808.308	-0.07
808.741	-0.07
809.173	-0.08
809.605	-0.08
810.037	-0.08
810.47	-0.08
810.902	-0.09
811.334	-0.09
811.766	-0.08
812.198	-0.08
812.63	-0.08
813.062	-0.08
813.494	-0.08
813.926	-0.08
814.358	-0.08
814.79	-0.08
815.222	-0.07
815.654	-0.07
816.086	-0.07
816.518	-0.08
816.949	-0.08
817.381	-0.08
817.813	-0.08
818.245	-0.07
818.676	-0.07
819.108	-0.06
819.54	-0.06
819.971	-0.05
820.403	-0.04
820.834	-0.04
821.266	-0.03
821.697	-0.02
822.129	-0.01
822.56	0
822.991	0.01
823.423	0.01
823.854	0.02
824.286	0.03
824.717	0.03
825.148	0.04
825.579	0.04
826.01	0.05
826.442	0.05
826.873	0.05
827.304	0.06
827.735	0.06
828.166	0.06
828.597	0.06
829.028	0.07
829.459	0.07
829.89	0.07
830.321	0.07
830.752	0.07
831.183	0.08
831.613	0.08
832.044	0.08
832.475	0.08
832.906	0.08
833.336	0.08
833.767	0.09
834.198	0.09
834.628	0.09
835.059	0.09
835.49	0.09
835.92	0.09
836.351	0.09
836.781	0.1
837.212	0.1
837.642	0.1
838.072	0.1
838.503	0.1
838.933	0.1
839.364	0.1
839.794	0.1
840.224	0.1
840.654	0.1
841.085	0.1
841.515	0.1
841.945	0.1
842.375	0.1
842.805	0.09
843.235	0.09
843.665	0.09
844.095	0.09
844.525	0.09
844.955	0.09
845.385	0.09
845.815	0.09
846.245	0.09
846.675	0.09
847.105	0.09
847.534	0.09
847.964	0.09
848.394	0.09
848.824	0.09
849.253	0.09
849.683	0.09
850.112	0.09
850.542	0.09
850.972	0.09
851.401	0.09
851.831	0.09
852.26	0.09
852.69	0.09
853.119	0.09
853.548	0.09
853.978	0.09
854.407	0.09
854.836	0.09
855.266	0.09
855.695	0.09
856.124	0.09
856.553	0.09
856.983	0.09
857.412	0.08
857.841	0.08
858.27	0.08
858.699	0.08
859.128	0.08
859.557	0.08
859.986	0.08
860.415	0.08
860.844	0.08
861.273	0.08
861.702	0.08
862.13	0.08
862.559	0.08
862.988	0.08
863.417	0.08
863.845	0.08
864.274	0.08
864.703	0.08
865.131	0.08
865.56	0.08
865.989	0.08
866.417	0.08
866.846	0.08
867.274	0.08
867.703	0.08
868.131	0.08
868.559	0.08
868.988	0.08
869.416	0.08
869.844	0.08
870.273	0.08
870.701	0.08
871.129	0.07
871.557	0.07
871.986	0.07
872.414	0.07
872.842	0.07
873.27	0.07
873.698	0.07
874.126	0.07
874.554	0.07
874.982	0.07
875.41	0.07
875.838	0.07
876.266	0.07
876.694	0.07
877.122	0.07
877.549	0.07
877.977	0.07
878.405	0.07
878.833	0.07
879.26	0.07
879.688	0.07
880.116	0.07
880.543	0.07
880.971	0.07
881.399	0.07
881.826	0.07
882.254	0.07
882.681	0.07
883.109	0.07
883.536	0.07
883.963	0.07
884.391	0.07
884.818	0.07
885.245	0.08
885.673	0.08
886.1	0.08
886.527	0.08
886.954	0.08
887.381	0.08
887.809	0.08
888.236	0.08
888.663	0.08
889.09	0.08
889.517	0.08
889.944	0.08
890.371	0.07
890.798	0.07
891.225	0.07
891.652	0.07
892.078	0.07
892.505	0.07
892.932	0.07
893.359	0.07
893.786	0.07
894.212	0.07
894.639	0.07
895.066	0.07
895.492	0.07
895.919	0.07
896.346	0.07
896.772	0.07
897.199	0.07
897.625	0.07
898.052	0.07
898.478	0.07
898.904	0.07
899.331	0.07
899.757	0.07
900.183	0.07
900.61	0.07
901.036	0.07
901.462	0.07
901.888	0.07
902.315	0.07
902.741	0.07
903.167	0.07
903.593	0.07
904.019	0.07
904.445	0.07
904.871	0.07
905.297	0.07
905.723	0.07
906.149	0.07
906.575	0.07
907.001	0.07
907.427	0.07
907.852	0.07
908.278	0.07
908.704	0.07
909.13	0.07
909.555	0.07
909.981	0.07
910.407	0.06
910.832	0.06
911.258	0.06
911.684	0.07
912.109	0.07
912.535	0.07
912.96	0.07
913.386	0.07
913.811	0.07
914.236	0.07
914.662	0.07
915.087	0.07
915.512	0.07
915.938	0.07
916.363	0.07
916.788	0.07
917.213	0.07
917.639	0.07
918.064	0.07
918.489	0.07
918.914	0.07
919.339	0.07
919.764	0.07
920.189	0.07
920.614	0.07
921.039	0.07
921.464	0.07
921.889	0.07
922.314	0.07
922.738	0.07
923.163	0.07
923.588	0.07
924.013	0.07
924.437	0.07
924.862	0.07
925.287	0.07
925.711	0.07
926.136	0.07
926.561	0.07
926.985	0.07
927.41	0.07
927.834	0.07
928.259	0.07
928.683	0.07
929.108	0.07
929.532	0.07
929.956	0.07
930.381	0.07
930.805	0.06
931.229	0.06
931.653	0.06
932.078	0.06
932.502	0.06
932.926	0.06
933.35	0.06
933.774	0.05
934.198	0.05
934.622	0.05
935.046	0.05
935.47	0.05
935.894	0.05
936.318	0.05
936.742	0.05
937.166	0.05
937.59	0.05
938.014	0.05
938.437	0.06
938.861	0.06
939.285	0.06
939.709	0.06
940.132	0.06
940.556	0.06
940.98	0.06
941.403	0.06
941.827	0.06
942.25	0.06
942.674	0.06
943.097	0.06
943.521	0.06
943.944	0.06
944.368	0.06
944.791	0.06
945.214	0.06
945.638	0.06
946.061	0.06
946.484	0.06
946.907	0.06
947.331	0.05
947.754	0.05
948.177	0.05
948.6	0.05
949.023	0.05
949.446	0.05
949.869	0.05
950.292	0.05
950.715	0.05
951.138	0.05
951.561	0.05
951.984	0.05
952.407	0.05
952.83	0.05
953.252	0.05
953.675	0.05
954.098	0.05
954.521	0.05
954.943	0.05
955.366	0.05
955.789	0.05
956.211	0.05
956.634	0.05
957.056	0.05
957.479	0.05
957.902	0.05
958.324	0.05
958.746	0.05
959.169	0.05
959.591	0.05
960.014	0.05
960.436	0.05
960.858	0.05
961.281	0.05
961.703	0.05
962.125	0.05
962.547	0.05
962.969	0.05
963.391	0.06
963.814	0.06
964.236	0.06
964.658	0.06
965.08	0.06
965.502	0.06
965.924	0.06
966.346	0.06
966.768	0.06
967.189	0.06
967.611	0.06
968.033	0.06
968.455	0.06
968.877	0.06
969.298	0.05
969.72	0.05
970.142	0.05
970.563	0.05
970.985	0.05
971.407	0.05
971.828	0.05
972.25	0.05
972.671	0.05
973.093	0.05
973.514	0.05
973.936	0.05
974.357	0.05
974.778	0.05
975.2	0.06
975.621	0.06
976.042	0.06
976.464	0.06
976.885	0.06
977.306	0.05
977.727	0.05
978.148	0.05
978.57	0.05
978.991	0.05
979.412	0.05
979.833	0.05
980.254	0.05
980.675	0.05
981.096	0.05
981.517	0.05
981.937	0.05
982.358	0.05
982.779	0.05
983.2	0.05
983.621	0.05
984.042	0.05
984.462	0.05
984.883	0.05
985.304	0.05
985.724	0.05
986.145	0.05
986.565	0.05
986.986	0.05
987.407	0.05
987.827	0.05
988.248	0.05
988.668	0.05
989.088	0.05
989.509	0.05
989.929	0.05
990.35	0.05
990.77	0.05
991.19	0.05
991.61	0.05
992.031	0.05
992.451	0.04
992.871	0.04
993.291	0.04
993.711	0.04
994.131	0.04
994.551	0.04
994.971	0.04
995.391	0.04
995.811	0.04
996.231	0.04
996.651	0.04
997.071	0.04
997.491	0.04
997.911	0.04
998.331	0.04
998.75	0.04
999.17	0.04
999.59	0.04
1000.009	0.04
1000.429	0.04
1000.849	0.04
1001.268	0.04
1001.688	0.04
1002.107	0.04
1002.527	0.04
1002.946	0.04
1003.366	0.04
1003.785	0.04
1004.205	0.04
1004.624	0.04
1005.044	0.04
1005.463	0.04
1005.882	0.04
1006.301	0.04
1006.721	0.04
1007.14	0.04
1007.559	0.04
1007.978	0.04
1008.397	0.04
1008.816	0.04
1009.235	0.04
1009.655	0.04
1010.074	0.04
1010.492	0.04
1010.911	0.04
1011.33	0.04
1011.749	0.04
1012.168	0.04
1012.587	0.04
1013.006	0.04
1013.425	0.04
1013.843	0.04
1014.262	0.04
1014.681	0.04
1015.099	0.04
1015.518	0.03
1015.937	0.03
1016.355	0.03
1016.774	0.03
1017.192	0.03
1017.611	0.03
1018.029	0.03
1018.448	0.03
1018.866	0.03
1019.285	0.03
1019.703	0.03
1020.121	0.03
1020.54	0.03
1020.958	0.04
1021.376	0.04
1021.794	0.04
1022.213	0.04
1022.631	0.04
1023.049	0.04
1023.467	0.04
1023.885	0.04
1024.303	0.04
1024.721	0.04
1025.139	0.04
1025.557	0.04
1025.975	0.04
1026.393	0.04
1026.811	0.04
1027.229	0.04
1027.647	0.04
1028.065	0.04
1028.482	0.05
1028.9	0.05
1029.318	0.05
1029.735	0.05
1030.153	0.05
1030.571	0.05
1030.988	0.05
1031.406	0.05
1031.823	0.05
1032.241	0.05
1032.659	0.05
1033.076	0.05
1033.493	0.05
1033.911	0.05
1034.328	0.05
1034.746	0.05
1035.163	0.05
1035.58	0.05
1035.997	0.04
1036.415	0.04
1036.832	0.04
1037.249	0.04
1037.666	0.04
1038.083	0.04
1038.501	0.04
1038.918	0.04
1039.335	0.04
1039.752	0.04
1040.169	0.04
1040.586	0.04
1041.003	0.04
1041.419	0.04
1041.836	0.04
1042.253	0.04
1042.67	0.04
1043.087	0.04
1043.504	0.04
1043.92	0.04
1044.337	0.04
1044.754	0.04
1045.17	0.04
1045.587	0.04
1046.004	0.04
1046.42	0.04
1046.837	0.04
1047.253	0.04
1047.67	0.04
1048.086	0.04
1048.503	0.04
1048.919	0.04
1049.335	0.04
1049.752	0.04
1050.168	0.04
1050.584	0.04
1051.001	0.04
1051.417	0.04
1051.833	0.04
1052.249	0.04
1052.665	0.04
1053.081	0.04
1053.497	0.04
1053.914	0.04
1054.33	0.04
1054.746	0.04
1055.162	0.04
1055.578	0.04
1055.993	0.04
1056.409	0.04
1056.825	0.04
1057.241	0.04
1057.657	0.04
1058.073	0.04
1058.488	0.04
1058.904	0.04
1059.32	0.04
1059.736	0.04
1060.151	0.04
1060.567	0.04
1060.982	0.04
1061.398	0.04
1061.813	0.04
1062.229	0.04
1062.644	0.04
1063.06	0.04
1063.475	0.04
1063.891	0.04
1064.306	0.04
1064.721	0.04
1065.137	0.04
1065.552	0.04
1065.967	0.04
1066.382	0.04
1066.798	0.04
1067.213	0.04
1067.628	0.04
1068.043	0.04
1068.458	0.04
1068.873	0.04
1069.288	0.04
1069.703	0.04
1070.118	0.04
1070.533	0.04
1070.948	0.04
1071.363	0.04
1071.778	0.04
1072.193	0.04
1072.607	0.04
1073.022	0.04
1073.437	0.04
1073.852	0.04
1074.266	0.04
1074.681	0.04
1075.096	0.04
1075.51	0.04
1075.925	0.04
1076.339	0.04
1076.754	0.04
1077.168	0.04
1077.583	0.04
1077.997	0.04
1078.412	0.04
1078.826	0.04
1079.24	0.04
1079.655	0.04
1080.069	0.04
1080.483	0.04
1080.897	0.04
1081.312	0.04
1081.726	0.04
1082.14	0.04
1082.554	0.04
1082.968	0.05
1083.382	0.05
1083.796	0.05
1084.21	0.05
1084.624	0.05
1085.038	0.05
1085.452	0.05
1085.866	0.05
1086.28	0.05
1086.694	0.05
1087.108	0.05
1087.521	0.06
1087.935	0.06
1088.349	0.06
1088.763	0.06
1089.176	0.06
1089.59	0.06
1090.004	0.06
1090.417	0.06
1090.831	0.07
1091.244	0.07
1091.658	0.07
1092.071	0.07
1092.485	0.08
1092.898	0.08
1093.312	0.08
1093.725	0.08
1094.138	0.09
1094.552	0.09
1094.965	0.09
1095.378	0.1
1095.791	0.1
1096.205	0.1
1096.618	0.11
1097.031	0.11
1097.444	0.12
1097.857	0.12
1098.27	0.13
1098.683	0.13
1099.096	0.13
1099.509	0.14
1099.922	0.15
1100.335	0.15
1100.748	0.16
1101.161	0.16
1101.574	0.17
1101.986	0.18
1102.399	0.19
1102.812	0.2
1103.225	0.21
1103.637	0.22
1104.05	0.23
1104.463	0.24
1104.875	0.26
1105.288	0.27
1105.7	0.29
1106.113	0.31
1106.525	0.32
1106.938	0.36
1107.35	0.39
1107.763	0.51
1108.175	0.72
1108.588	1.35
1109	-0
1109.412	-0
1109.824	-0
1110.237	-0
1110.649	-0
1111.061	-0
