Data from unagg-15c-2a-1h_Absorbance__345__00772.txt Node

Date: Mon May 06 09:44:14 CEST 2024
User: Laser008
Spectrometer: MAYP115816
Trigger mode: 0
Integration Time (sec): 2.000000E-1
Scans to average: 10
Electric dark correction enabled: true
Nonlinearity correction enabled: true
Boxcar width: 5
XAxis mode: Wavelengths
Number of Pixels in Spectrum: 2068
>>>>>Begin Spectral Data<<<<<
198.914	-1.86
199.384	-1.72
199.855	-1.58
200.325	-1.45
200.796	-1.37
201.266	-1.32
201.737	-1.25
202.207	-1.19
202.677	-1.14
203.147	-1.09
203.618	-1.06
204.088	-1.04
204.558	-1.02
205.028	-1.01
205.498	-1
205.968	-1
206.439	-1
206.909	-0.99
207.379	-0.99
207.849	-0.99
208.319	-0.99
208.789	-0.98
209.258	-0.98
209.728	-0.98
210.198	-0.98
210.668	-0.98
211.138	-0.98
211.608	-0.97
212.077	-0.97
212.547	-0.97
213.017	-0.97
213.486	-0.97
213.956	-0.97
214.426	-0.97
214.895	-0.97
215.365	-0.97
215.834	-0.96
216.304	-0.96
216.773	-0.96
217.243	-0.96
217.712	-0.96
218.181	-0.96
218.651	-0.95
219.12	-0.95
219.589	-0.95
220.058	-0.95
220.528	-0.95
220.997	-0.94
221.466	-0.94
221.935	-0.94
222.404	-0.93
222.873	-0.93
223.342	-0.92
223.812	-0.91
224.281	-0.91
224.749	-0.9
225.218	-0.89
225.687	-0.88
226.156	-0.87
226.625	-0.85
227.094	-0.84
227.563	-0.82
228.031	-0.8
228.5	-0.78
228.969	-0.75
229.438	-0.73
229.906	-0.7
230.375	-0.66
230.844	-0.62
231.312	-0.58
231.781	-0.54
232.249	-0.5
232.718	-0.45
233.186	-0.41
233.655	-0.36
234.123	-0.31
234.591	-0.27
235.06	-0.22
235.528	-0.18
235.996	-0.13
236.465	-0.09
236.933	-0.05
237.401	-0.01
237.869	0.02
238.337	0.06
238.805	0.09
239.274	0.12
239.742	0.15
240.21	0.18
240.678	0.2
241.146	0.22
241.614	0.25
242.081	0.27
242.549	0.28
243.017	0.3
243.485	0.32
243.953	0.33
244.421	0.35
244.888	0.36
245.356	0.37
245.824	0.39
246.291	0.4
246.759	0.41
247.227	0.42
247.694	0.43
248.162	0.44
248.629	0.44
249.097	0.45
249.564	0.46
250.032	0.47
250.499	0.48
250.967	0.48
251.434	0.49
251.901	0.49
252.369	0.5
252.836	0.51
253.303	0.51
253.77	0.52
254.237	0.52
254.705	0.53
255.172	0.53
255.639	0.53
256.106	0.54
256.573	0.54
257.04	0.54
257.507	0.55
257.974	0.55
258.441	0.55
258.908	0.55
259.375	0.55
259.841	0.56
260.308	0.56
260.775	0.56
261.242	0.56
261.709	0.56
262.175	0.56
262.642	0.56
263.109	0.56
263.575	0.56
264.042	0.56
264.508	0.56
264.975	0.56
265.441	0.56
265.908	0.56
266.374	0.56
266.841	0.56
267.307	0.56
267.773	0.56
268.24	0.56
268.706	0.55
269.172	0.55
269.639	0.55
270.105	0.55
270.571	0.55
271.037	0.55
271.503	0.54
271.969	0.54
272.435	0.54
272.902	0.54
273.368	0.54
273.834	0.53
274.3	0.53
274.765	0.53
275.231	0.53
275.697	0.52
276.163	0.52
276.629	0.52
277.095	0.51
277.56	0.51
278.026	0.51
278.492	0.51
278.958	0.5
279.423	0.5
279.889	0.5
280.354	0.49
280.82	0.49
281.286	0.49
281.751	0.49
282.217	0.49
282.682	0.48
283.147	0.48
283.613	0.48
284.078	0.48
284.544	0.48
285.009	0.47
285.474	0.47
285.939	0.47
286.405	0.47
286.87	0.47
287.335	0.46
287.8	0.46
288.265	0.46
288.73	0.46
289.195	0.46
289.66	0.45
290.125	0.45
290.59	0.45
291.055	0.45
291.52	0.45
291.985	0.45
292.45	0.44
292.915	0.44
293.38	0.44
293.844	0.44
294.309	0.44
294.774	0.44
295.239	0.44
295.703	0.44
296.168	0.44
296.632	0.43
297.097	0.43
297.562	0.43
298.026	0.43
298.491	0.43
298.955	0.43
299.419	0.43
299.884	0.43
300.348	0.43
300.813	0.43
301.277	0.43
301.741	0.43
302.205	0.43
302.67	0.43
303.134	0.43
303.598	0.43
304.062	0.43
304.526	0.43
304.99	0.42
305.454	0.42
305.919	0.42
306.383	0.42
306.847	0.42
307.31	0.42
307.774	0.42
308.238	0.42
308.702	0.42
309.166	0.42
309.63	0.42
310.094	0.42
310.557	0.42
311.021	0.42
311.485	0.42
311.948	0.42
312.412	0.42
312.876	0.42
313.339	0.42
313.803	0.42
314.266	0.42
314.73	0.42
315.193	0.42
315.657	0.42
316.12	0.42
316.584	0.42
317.047	0.42
317.51	0.41
317.973	0.41
318.437	0.41
318.9	0.41
319.363	0.41
319.826	0.41
320.29	0.41
320.753	0.41
321.216	0.41
321.679	0.41
322.142	0.41
322.605	0.41
323.068	0.41
323.531	0.41
323.994	0.41
324.457	0.41
324.92	0.41
325.382	0.41
325.845	0.41
326.308	0.41
326.771	0.41
327.233	0.41
327.696	0.41
328.159	0.4
328.622	0.4
329.084	0.4
329.547	0.4
330.009	0.4
330.472	0.4
330.934	0.4
331.397	0.4
331.859	0.4
332.322	0.4
332.784	0.4
333.246	0.4
333.709	0.4
334.171	0.4
334.633	0.4
335.096	0.4
335.558	0.4
336.02	0.4
336.482	0.39
336.944	0.39
337.406	0.39
337.868	0.39
338.331	0.39
338.793	0.39
339.255	0.39
339.717	0.39
340.178	0.39
340.64	0.39
341.102	0.39
341.564	0.39
342.026	0.39
342.488	0.39
342.949	0.39
343.411	0.39
343.873	0.39
344.335	0.39
344.796	0.39
345.258	0.39
345.719	0.39
346.181	0.39
346.643	0.38
347.104	0.38
347.566	0.38
348.027	0.38
348.488	0.38
348.95	0.38
349.411	0.38
349.873	0.38
350.334	0.38
350.795	0.38
351.256	0.38
351.718	0.38
352.179	0.38
352.64	0.38
353.101	0.38
353.562	0.38
354.023	0.37
354.484	0.37
354.945	0.37
355.406	0.37
355.867	0.37
356.328	0.37
356.789	0.37
357.25	0.37
357.711	0.37
358.172	0.37
358.633	0.37
359.093	0.37
359.554	0.37
360.015	0.37
360.476	0.37
360.936	0.37
361.397	0.37
361.858	0.37
362.318	0.37
362.779	0.37
363.239	0.37
363.7	0.37
364.16	0.37
364.621	0.37
365.081	0.37
365.541	0.37
366.002	0.37
366.462	0.37
366.922	0.37
367.383	0.37
367.843	0.37
368.303	0.37
368.763	0.37
369.223	0.37
369.684	0.37
370.144	0.37
370.604	0.37
371.064	0.37
371.524	0.37
371.984	0.37
372.444	0.37
372.904	0.37
373.363	0.37
373.823	0.37
374.283	0.37
374.743	0.37
375.203	0.37
375.663	0.37
376.122	0.37
376.582	0.37
377.042	0.37
377.501	0.37
377.961	0.37
378.42	0.37
378.88	0.37
379.34	0.37
379.799	0.37
380.259	0.37
380.718	0.37
381.177	0.37
381.637	0.37
382.096	0.37
382.555	0.37
383.015	0.37
383.474	0.37
383.933	0.37
384.393	0.37
384.852	0.37
385.311	0.37
385.77	0.37
386.229	0.37
386.688	0.37
387.147	0.37
387.606	0.37
388.065	0.37
388.524	0.37
388.983	0.37
389.442	0.37
389.901	0.37
390.36	0.37
390.819	0.37
391.277	0.37
391.736	0.37
392.195	0.37
392.654	0.37
393.112	0.37
393.571	0.37
394.03	0.37
394.488	0.37
394.947	0.37
395.405	0.37
395.864	0.37
396.322	0.37
396.781	0.37
397.239	0.37
397.698	0.37
398.156	0.37
398.614	0.37
399.073	0.37
399.531	0.37
399.989	0.37
400.447	0.37
400.905	0.37
401.364	0.37
401.822	0.37
402.28	0.37
402.738	0.37
403.196	0.37
403.654	0.37
404.112	0.37
404.57	0.37
405.028	0.37
405.486	0.37
405.944	0.37
406.402	0.37
406.859	0.37
407.317	0.37
407.775	0.37
408.233	0.37
408.691	0.37
409.148	0.37
409.606	0.37
410.064	0.37
410.521	0.37
410.979	0.37
411.436	0.37
411.894	0.37
412.351	0.37
412.809	0.37
413.266	0.37
413.724	0.37
414.181	0.37
414.638	0.37
415.096	0.37
415.553	0.37
416.01	0.36
416.467	0.36
416.925	0.36
417.382	0.36
417.839	0.36
418.296	0.36
418.753	0.36
419.21	0.36
419.667	0.37
420.124	0.37
420.581	0.37
421.038	0.37
421.495	0.37
421.952	0.37
422.409	0.37
422.866	0.37
423.322	0.37
423.779	0.37
424.236	0.37
424.693	0.37
425.149	0.36
425.606	0.36
426.063	0.36
426.519	0.36
426.976	0.36
427.433	0.36
427.889	0.36
428.346	0.36
428.802	0.37
429.258	0.37
429.715	0.37
430.171	0.37
430.628	0.37
431.084	0.37
431.54	0.37
431.997	0.36
432.453	0.36
432.909	0.36
433.365	0.36
433.821	0.36
434.277	0.36
434.734	0.36
435.19	0.36
435.646	0.36
436.102	0.36
436.558	0.36
437.014	0.36
437.47	0.36
437.925	0.36
438.381	0.36
438.837	0.36
439.293	0.36
439.749	0.36
440.205	0.36
440.66	0.36
441.116	0.36
441.572	0.36
442.027	0.36
442.483	0.36
442.939	0.36
443.394	0.36
443.85	0.36
444.305	0.36
444.761	0.36
445.216	0.36
445.672	0.36
446.127	0.36
446.582	0.36
447.038	0.36
447.493	0.36
447.948	0.36
448.403	0.36
448.859	0.36
449.314	0.36
449.769	0.36
450.224	0.36
450.679	0.35
451.134	0.35
451.589	0.35
452.044	0.35
452.499	0.35
452.954	0.35
453.409	0.35
453.864	0.35
454.319	0.35
454.774	0.35
455.229	0.35
455.684	0.35
456.138	0.35
456.593	0.35
457.048	0.35
457.503	0.35
457.957	0.35
458.412	0.35
458.866	0.35
459.321	0.35
459.776	0.35
460.23	0.34
460.685	0.34
461.139	0.34
461.593	0.34
462.048	0.34
462.502	0.34
462.957	0.34
463.411	0.34
463.865	0.34
464.319	0.34
464.774	0.34
465.228	0.34
465.682	0.34
466.136	0.34
466.59	0.34
467.044	0.34
467.499	0.34
467.953	0.34
468.407	0.34
468.861	0.34
469.315	0.33
469.768	0.33
470.222	0.33
470.676	0.33
471.13	0.33
471.584	0.33
472.038	0.33
472.491	0.33
472.945	0.33
473.399	0.33
473.852	0.33
474.306	0.33
474.76	0.34
475.213	0.34
475.667	0.34
476.12	0.34
476.574	0.34
477.027	0.34
477.481	0.34
477.934	0.34
478.388	0.34
478.841	0.34
479.294	0.34
479.748	0.34
480.201	0.34
480.654	0.34
481.107	0.34
481.561	0.34
482.014	0.34
482.467	0.34
482.92	0.34
483.373	0.34
483.826	0.34
484.279	0.35
484.732	0.35
485.185	0.35
485.638	0.35
486.091	0.35
486.544	0.35
486.997	0.35
487.449	0.35
487.902	0.35
488.355	0.35
488.808	0.35
489.26	0.35
489.713	0.34
490.166	0.34
490.618	0.34
491.071	0.34
491.523	0.34
491.976	0.34
492.429	0.34
492.881	0.34
493.333	0.34
493.786	0.35
494.238	0.35
494.691	0.35
495.143	0.35
495.595	0.35
496.048	0.35
496.5	0.35
496.952	0.35
497.404	0.35
497.856	0.35
498.309	0.35
498.761	0.35
499.213	0.35
499.665	0.36
500.117	0.36
500.569	0.36
501.021	0.36
501.473	0.36
501.925	0.36
502.377	0.36
502.828	0.36
503.28	0.37
503.732	0.37
504.184	0.37
504.636	0.37
505.087	0.37
505.539	0.37
505.991	0.37
506.442	0.37
506.894	0.37
507.345	0.37
507.797	0.37
508.249	0.37
508.7	0.37
509.151	0.37
509.603	0.37
510.054	0.37
510.506	0.37
510.957	0.38
511.408	0.38
511.86	0.38
512.311	0.38
512.762	0.38
513.213	0.38
513.665	0.38
514.116	0.38
514.567	0.38
515.018	0.38
515.469	0.38
515.92	0.38
516.371	0.38
516.822	0.38
517.273	0.38
517.724	0.38
518.175	0.38
518.626	0.38
519.076	0.38
519.527	0.38
519.978	0.38
520.429	0.37
520.88	0.37
521.33	0.37
521.781	0.37
522.232	0.37
522.682	0.37
523.133	0.37
523.583	0.37
524.034	0.38
524.484	0.38
524.935	0.38
525.385	0.39
525.836	0.39
526.286	0.4
526.736	0.4
527.187	0.4
527.637	0.41
528.087	0.41
528.538	0.41
528.988	0.41
529.438	0.41
529.888	0.42
530.338	0.42
530.788	0.42
531.238	0.42
531.688	0.42
532.139	0.42
532.589	0.42
533.038	0.43
533.488	0.43
533.938	0.43
534.388	0.43
534.838	0.43
535.288	0.43
535.738	0.43
536.187	0.44
536.637	0.44
537.087	0.44
537.537	0.44
537.986	0.44
538.436	0.44
538.885	0.44
539.335	0.44
539.785	0.44
540.234	0.44
540.684	0.45
541.133	0.45
541.582	0.45
542.032	0.45
542.481	0.45
542.931	0.45
543.38	0.45
543.829	0.45
544.278	0.45
544.728	0.45
545.177	0.46
545.626	0.46
546.075	0.46
546.524	0.46
546.973	0.46
547.422	0.46
547.871	0.46
548.32	0.46
548.769	0.46
549.218	0.47
549.667	0.47
550.116	0.47
550.565	0.47
551.014	0.47
551.463	0.47
551.911	0.47
552.36	0.47
552.809	0.47
553.258	0.47
553.706	0.48
554.155	0.48
554.603	0.48
555.052	0.48
555.501	0.48
555.949	0.48
556.398	0.48
556.846	0.47
557.294	0.47
557.743	0.47
558.191	0.48
558.64	0.48
559.088	0.48
559.536	0.48
559.985	0.48
560.433	0.48
560.881	0.49
561.329	0.49
561.777	0.49
562.225	0.49
562.674	0.49
563.122	0.49
563.57	0.49
564.018	0.49
564.466	0.49
564.914	0.49
565.362	0.49
565.809	0.49
566.257	0.49
566.705	0.49
567.153	0.5
567.601	0.5
568.048	0.5
568.496	0.51
568.944	0.51
569.392	0.52
569.839	0.52
570.287	0.52
570.734	0.53
571.182	0.53
571.63	0.53
572.077	0.54
572.525	0.54
572.972	0.54
573.419	0.54
573.867	0.54
574.314	0.54
574.761	0.54
575.209	0.55
575.656	0.55
576.103	0.55
576.551	0.55
576.998	0.55
577.445	0.55
577.892	0.55
578.339	0.55
578.786	0.55
579.233	0.56
579.68	0.56
580.127	0.56
580.574	0.56
581.021	0.56
581.468	0.55
581.915	0.55
582.362	0.55
582.809	0.55
583.255	0.56
583.702	0.55
584.149	0.55
584.596	0.55
585.042	0.55
585.489	0.55
585.936	0.55
586.382	0.55
586.829	0.55
587.275	0.54
587.722	0.54
588.168	0.54
588.615	0.54
589.061	0.53
589.508	0.53
589.954	0.53
590.4	0.53
590.847	0.53
591.293	0.53
591.739	0.53
592.185	0.53
592.632	0.53
593.078	0.53
593.524	0.53
593.97	0.53
594.416	0.53
594.862	0.52
595.308	0.52
595.754	0.52
596.2	0.52
596.646	0.52
597.092	0.52
597.538	0.52
597.984	0.52
598.43	0.52
598.876	0.52
599.321	0.52
599.767	0.52
600.213	0.52
600.659	0.52
601.104	0.52
601.55	0.51
601.995	0.51
602.441	0.51
602.887	0.51
603.332	0.51
603.778	0.51
604.223	0.51
604.668	0.51
605.114	0.51
605.559	0.51
606.005	0.51
606.45	0.51
606.895	0.5
607.341	0.5
607.786	0.5
608.231	0.5
608.676	0.5
609.121	0.49
609.566	0.49
610.012	0.49
610.457	0.48
610.902	0.48
611.347	0.48
611.792	0.48
612.237	0.48
612.682	0.48
613.127	0.48
613.571	0.48
614.016	0.48
614.461	0.47
614.906	0.47
615.351	0.47
615.795	0.47
616.24	0.47
616.685	0.46
617.129	0.46
617.574	0.46
618.019	0.45
618.463	0.45
618.908	0.45
619.352	0.45
619.797	0.45
620.241	0.44
620.686	0.44
621.13	0.44
621.574	0.44
622.019	0.44
622.463	0.44
622.907	0.44
623.352	0.44
623.796	0.43
624.24	0.43
624.684	0.43
625.128	0.43
625.572	0.43
626.016	0.43
626.461	0.43
626.905	0.42
627.349	0.42
627.793	0.42
628.236	0.42
628.68	0.42
629.124	0.42
629.568	0.42
630.012	0.41
630.456	0.41
630.9	0.41
631.343	0.41
631.787	0.41
632.231	0.4
632.674	0.4
633.118	0.4
633.562	0.4
634.005	0.4
634.449	0.4
634.892	0.4
635.336	0.4
635.779	0.4
636.223	0.4
636.666	0.4
637.109	0.39
637.553	0.39
637.996	0.39
638.439	0.39
638.883	0.39
639.326	0.39
639.769	0.39
640.212	0.39
640.655	0.39
641.099	0.39
641.542	0.39
641.985	0.39
642.428	0.39
642.871	0.39
643.314	0.39
643.757	0.39
644.2	0.39
644.643	0.39
645.085	0.39
645.528	0.39
645.971	0.39
646.414	0.39
646.857	0.39
647.299	0.39
647.742	0.39
648.185	0.39
648.627	0.39
649.07	0.39
649.513	0.39
649.955	0.39
650.398	0.39
650.84	0.39
651.283	0.39
651.725	0.39
652.168	0.39
652.61	0.4
653.052	0.4
653.495	0.39
653.937	0.31
654.379	0.27
654.821	0.28
655.264	0.28
655.706	0.28
656.148	0.28
656.59	0.29
657.032	0.29
657.474	0.29
657.916	0.28
658.358	0.28
658.8	0.35
659.242	0.41
659.684	0.41
660.126	0.41
660.568	0.41
661.01	0.41
661.452	0.41
661.894	0.41
662.335	0.41
662.777	0.42
663.219	0.42
663.661	0.42
664.102	0.42
664.544	0.42
664.985	0.42
665.427	0.42
665.869	0.42
666.31	0.42
666.752	0.43
667.193	0.43
667.634	0.43
668.076	0.43
668.517	0.43
668.959	0.43
669.4	0.43
669.841	0.44
670.282	0.44
670.724	0.44
671.165	0.44
671.606	0.44
672.047	0.45
672.488	0.45
672.929	0.45
673.37	0.45
673.811	0.45
674.252	0.45
674.693	0.45
675.134	0.45
675.575	0.45
676.016	0.45
676.457	0.45
676.898	0.46
677.339	0.46
677.78	0.46
678.22	0.46
678.661	0.46
679.102	0.46
679.542	0.46
679.983	0.46
680.424	0.46
680.864	0.46
681.305	0.46
681.745	0.47
682.186	0.47
682.626	0.47
683.067	0.47
683.507	0.47
683.948	0.47
684.388	0.48
684.828	0.48
685.269	0.48
685.709	0.48
686.149	0.48
686.589	0.48
687.029	0.48
687.47	0.48
687.91	0.48
688.35	0.49
688.79	0.49
689.23	0.49
689.67	0.49
690.11	0.49
690.55	0.49
690.99	0.49
691.43	0.5
691.87	0.5
692.31	0.5
692.749	0.5
693.189	0.5
693.629	0.5
694.069	0.5
694.508	0.5
694.948	0.51
695.388	0.51
695.827	0.51
696.267	0.51
696.706	0.51
697.146	0.51
697.586	0.52
698.025	0.52
698.464	0.52
698.904	0.52
699.343	0.52
699.783	0.52
700.222	0.52
700.661	0.52
701.101	0.52
701.54	0.52
701.979	0.52
702.418	0.52
702.857	0.52
703.297	0.52
703.736	0.52
704.175	0.53
704.614	0.53
705.053	0.53
705.492	0.53
705.931	0.53
706.37	0.53
706.809	0.53
707.248	0.53
707.687	0.53
708.125	0.54
708.564	0.54
709.003	0.54
709.442	0.54
709.88	0.54
710.319	0.54
710.758	0.54
711.196	0.54
711.635	0.54
712.074	0.54
712.512	0.54
712.951	0.54
713.389	0.54
713.828	0.54
714.266	0.54
714.705	0.54
715.143	0.54
715.581	0.54
716.02	0.54
716.458	0.54
716.896	0.54
717.334	0.54
717.773	0.54
718.211	0.54
718.649	0.54
719.087	0.54
719.525	0.54
719.963	0.54
720.401	0.54
720.839	0.54
721.277	0.54
721.715	0.54
722.153	0.54
722.591	0.54
723.029	0.54
723.467	0.54
723.905	0.54
724.342	0.54
724.78	0.54
725.218	0.54
725.656	0.54
726.093	0.54
726.531	0.54
726.969	0.54
727.406	0.54
727.844	0.54
728.281	0.54
728.719	0.54
729.156	0.54
729.594	0.54
730.031	0.55
730.469	0.55
730.906	0.55
731.343	0.55
731.781	0.55
732.218	0.55
732.655	0.55
733.092	0.55
733.53	0.55
733.967	0.55
734.404	0.55
734.841	0.55
735.278	0.55
735.715	0.55
736.152	0.55
736.589	0.54
737.026	0.54
737.463	0.54
737.9	0.54
738.337	0.54
738.774	0.54
739.211	0.54
739.647	0.54
740.084	0.54
740.521	0.53
740.958	0.53
741.394	0.53
741.831	0.53
742.268	0.53
742.704	0.52
743.141	0.52
743.577	0.52
744.014	0.52
744.45	0.52
744.887	0.51
745.323	0.51
745.76	0.51
746.196	0.51
746.632	0.51
747.069	0.51
747.505	0.51
747.941	0.51
748.378	0.51
748.814	0.51
749.25	0.51
749.686	0.51
750.122	0.51
750.558	0.51
750.994	0.51
751.43	0.51
751.866	0.51
752.302	0.51
752.738	0.51
753.174	0.51
753.61	0.51
754.046	0.51
754.482	0.51
754.918	0.52
755.354	0.52
755.789	0.52
756.225	0.52
756.661	0.52
757.096	0.52
757.532	0.52
757.968	0.52
758.403	0.52
758.839	0.52
759.274	0.51
759.71	0.51
760.145	0.51
760.581	0.5
761.016	0.5
761.452	0.5
761.887	0.49
762.322	0.49
762.758	0.49
763.193	0.49
763.628	0.48
764.063	0.48
764.499	0.48
764.934	0.47
765.369	0.47
765.804	0.47
766.239	0.46
766.674	0.46
767.109	0.46
767.544	0.45
767.979	0.44
768.414	0.44
768.849	0.44
769.284	0.43
769.719	0.43
770.154	0.43
770.588	0.42
771.023	0.42
771.458	0.41
771.893	0.4
772.327	0.4
772.762	0.39
773.197	0.39
773.631	0.38
774.066	0.37
774.5	0.37
774.935	0.36
775.369	0.35
775.804	0.35
776.238	0.34
776.673	0.33
777.107	0.32
777.541	0.32
777.976	0.31
778.41	0.3
778.844	0.29
779.279	0.28
779.713	0.28
780.147	0.27
780.581	0.26
781.015	0.25
781.449	0.23
781.883	0.22
782.317	0.2
782.751	0.19
783.185	0.17
783.619	0.15
784.053	0.14
784.487	0.12
784.921	0.1
785.355	0.08
785.789	0.06
786.223	0.05
786.656	0.03
787.09	0.02
787.524	0.01
787.957	-0.01
788.391	-0.02
788.825	-0.03
789.258	-0.04
789.692	-0.04
790.125	-0.05
790.559	-0.05
790.992	-0.06
791.426	-0.06
791.859	-0.06
792.293	-0.05
792.726	-0.04
793.159	-0.04
793.593	-0.04
794.026	-0.04
794.459	-0.04
794.892	-0.05
795.326	-0.05
795.759	-0.05
796.192	-0.05
796.625	-0.06
797.058	-0.06
797.491	-0.07
797.924	-0.08
798.357	-0.08
798.79	-0.08
799.223	-0.08
799.656	-0.08
800.089	-0.08
800.522	-0.09
800.955	-0.09
801.387	-0.09
801.82	-0.09
802.253	-0.09
802.686	-0.09
803.118	-0.09
803.551	-0.09
803.984	-0.08
804.416	-0.08
804.849	-0.07
805.281	-0.07
805.714	-0.07
806.146	-0.07
806.579	-0.07
807.011	-0.07
807.444	-0.07
807.876	-0.07
808.308	-0.07
808.741	-0.07
809.173	-0.08
809.605	-0.08
810.037	-0.08
810.47	-0.08
810.902	-0.09
811.334	-0.09
811.766	-0.08
812.198	-0.08
812.63	-0.08
813.062	-0.08
813.494	-0.08
813.926	-0.08
814.358	-0.08
814.79	-0.08
815.222	-0.07
815.654	-0.07
816.086	-0.07
816.518	-0.07
816.949	-0.07
817.381	-0.07
817.813	-0.06
818.245	-0.05
818.676	-0.03
819.108	-0.01
819.54	0
819.971	0.02
820.403	0.04
820.834	0.06
821.266	0.08
821.697	0.1
822.129	0.12
822.56	0.14
822.991	0.16
823.423	0.17
823.854	0.19
824.286	0.2
824.717	0.22
825.148	0.24
825.579	0.25
826.01	0.26
826.442	0.27
826.873	0.29
827.304	0.3
827.735	0.31
828.166	0.31
828.597	0.32
829.028	0.33
829.459	0.34
829.89	0.34
830.321	0.35
830.752	0.35
831.183	0.36
831.613	0.36
832.044	0.37
832.475	0.37
832.906	0.38
833.336	0.38
833.767	0.39
834.198	0.39
834.628	0.39
835.059	0.4
835.49	0.4
835.92	0.4
836.351	0.4
836.781	0.41
837.212	0.41
837.642	0.41
838.072	0.41
838.503	0.41
838.933	0.41
839.364	0.41
839.794	0.42
840.224	0.42
840.654	0.42
841.085	0.42
841.515	0.42
841.945	0.42
842.375	0.42
842.805	0.42
843.235	0.42
843.665	0.42
844.095	0.42
844.525	0.42
844.955	0.42
845.385	0.42
845.815	0.42
846.245	0.42
846.675	0.42
847.105	0.42
847.534	0.42
847.964	0.42
848.394	0.43
848.824	0.43
849.253	0.43
849.683	0.43
850.112	0.43
850.542	0.43
850.972	0.43
851.401	0.43
851.831	0.43
852.26	0.43
852.69	0.44
853.119	0.44
853.548	0.44
853.978	0.44
854.407	0.44
854.836	0.44
855.266	0.44
855.695	0.43
856.124	0.43
856.553	0.43
856.983	0.43
857.412	0.43
857.841	0.43
858.27	0.43
858.699	0.43
859.128	0.43
859.557	0.42
859.986	0.42
860.415	0.42
860.844	0.42
861.273	0.42
861.702	0.42
862.13	0.42
862.559	0.42
862.988	0.42
863.417	0.42
863.845	0.42
864.274	0.42
864.703	0.42
865.131	0.42
865.56	0.42
865.989	0.42
866.417	0.42
866.846	0.42
867.274	0.42
867.703	0.42
868.131	0.42
868.559	0.42
868.988	0.42
869.416	0.42
869.844	0.42
870.273	0.42
870.701	0.42
871.129	0.42
871.557	0.41
871.986	0.41
872.414	0.41
872.842	0.41
873.27	0.41
873.698	0.41
874.126	0.41
874.554	0.41
874.982	0.41
875.41	0.41
875.838	0.41
876.266	0.41
876.694	0.41
877.122	0.41
877.549	0.4
877.977	0.41
878.405	0.41
878.833	0.4
879.26	0.4
879.688	0.4
880.116	0.4
880.543	0.4
880.971	0.4
881.399	0.4
881.826	0.4
882.254	0.4
882.681	0.4
883.109	0.4
883.536	0.4
883.963	0.4
884.391	0.4
884.818	0.4
885.245	0.4
885.673	0.4
886.1	0.4
886.527	0.4
886.954	0.4
887.381	0.4
887.809	0.4
888.236	0.4
888.663	0.4
889.09	0.4
889.517	0.4
889.944	0.4
890.371	0.4
890.798	0.4
891.225	0.39
891.652	0.39
892.078	0.39
892.505	0.39
892.932	0.39
893.359	0.39
893.786	0.39
894.212	0.39
894.639	0.39
895.066	0.39
895.492	0.39
895.919	0.39
896.346	0.39
896.772	0.39
897.199	0.39
897.625	0.39
898.052	0.38
898.478	0.38
898.904	0.38
899.331	0.38
899.757	0.38
900.183	0.38
900.61	0.38
901.036	0.38
901.462	0.38
901.888	0.38
902.315	0.38
902.741	0.38
903.167	0.38
903.593	0.38
904.019	0.38
904.445	0.38
904.871	0.38
905.297	0.38
905.723	0.38
906.149	0.38
906.575	0.37
907.001	0.37
907.427	0.37
907.852	0.37
908.278	0.37
908.704	0.37
909.13	0.37
909.555	0.37
909.981	0.37
910.407	0.37
910.832	0.37
911.258	0.37
911.684	0.37
912.109	0.37
912.535	0.37
912.96	0.37
913.386	0.37
913.811	0.37
914.236	0.37
914.662	0.37
915.087	0.37
915.512	0.37
915.938	0.37
916.363	0.37
916.788	0.37
917.213	0.37
917.639	0.37
918.064	0.37
918.489	0.37
918.914	0.36
919.339	0.36
919.764	0.36
920.189	0.36
920.614	0.36
921.039	0.36
921.464	0.36
921.889	0.36
922.314	0.36
922.738	0.36
923.163	0.36
923.588	0.36
924.013	0.35
924.437	0.35
924.862	0.35
925.287	0.35
925.711	0.35
926.136	0.35
926.561	0.35
926.985	0.35
927.41	0.35
927.834	0.35
928.259	0.35
928.683	0.35
929.108	0.35
929.532	0.35
929.956	0.35
930.381	0.35
930.805	0.34
931.229	0.34
931.653	0.34
932.078	0.34
932.502	0.34
932.926	0.34
933.35	0.34
933.774	0.34
934.198	0.33
934.622	0.33
935.046	0.33
935.47	0.33
935.894	0.33
936.318	0.33
936.742	0.33
937.166	0.33
937.59	0.33
938.014	0.33
938.437	0.33
938.861	0.33
939.285	0.33
939.709	0.33
940.132	0.33
940.556	0.33
940.98	0.33
941.403	0.33
941.827	0.33
942.25	0.33
942.674	0.33
943.097	0.33
943.521	0.33
943.944	0.33
944.368	0.33
944.791	0.33
945.214	0.33
945.638	0.33
946.061	0.33
946.484	0.33
946.907	0.33
947.331	0.32
947.754	0.32
948.177	0.32
948.6	0.32
949.023	0.32
949.446	0.32
949.869	0.32
950.292	0.32
950.715	0.32
951.138	0.32
951.561	0.31
951.984	0.31
952.407	0.31
952.83	0.31
953.252	0.31
953.675	0.31
954.098	0.31
954.521	0.31
954.943	0.31
955.366	0.31
955.789	0.31
956.211	0.31
956.634	0.31
957.056	0.31
957.479	0.31
957.902	0.31
958.324	0.31
958.746	0.31
959.169	0.31
959.591	0.31
960.014	0.31
960.436	0.3
960.858	0.3
961.281	0.3
961.703	0.3
962.125	0.3
962.547	0.3
962.969	0.3
963.391	0.3
963.814	0.3
964.236	0.3
964.658	0.31
965.08	0.31
965.502	0.31
965.924	0.31
966.346	0.31
966.768	0.31
967.189	0.31
967.611	0.31
968.033	0.3
968.455	0.3
968.877	0.3
969.298	0.3
969.72	0.3
970.142	0.3
970.563	0.3
970.985	0.3
971.407	0.3
971.828	0.3
972.25	0.3
972.671	0.3
973.093	0.3
973.514	0.3
973.936	0.3
974.357	0.3
974.778	0.3
975.2	0.3
975.621	0.3
976.042	0.3
976.464	0.3
976.885	0.3
977.306	0.3
977.727	0.3
978.148	0.3
978.57	0.3
978.991	0.29
979.412	0.29
979.833	0.29
980.254	0.29
980.675	0.29
981.096	0.29
981.517	0.29
981.937	0.29
982.358	0.29
982.779	0.29
983.2	0.29
983.621	0.28
984.042	0.28
984.462	0.28
984.883	0.28
985.304	0.28
985.724	0.28
986.145	0.28
986.565	0.28
986.986	0.28
987.407	0.28
987.827	0.28
988.248	0.28
988.668	0.28
989.088	0.28
989.509	0.28
989.929	0.28
990.35	0.28
990.77	0.28
991.19	0.28
991.61	0.28
992.031	0.28
992.451	0.28
992.871	0.27
993.291	0.27
993.711	0.27
994.131	0.27
994.551	0.27
994.971	0.27
995.391	0.27
995.811	0.27
996.231	0.27
996.651	0.27
997.071	0.27
997.491	0.27
997.911	0.27
998.331	0.27
998.75	0.27
999.17	0.27
999.59	0.27
1000.009	0.27
1000.429	0.27
1000.849	0.27
1001.268	0.27
1001.688	0.27
1002.107	0.27
1002.527	0.27
1002.946	0.27
1003.366	0.27
1003.785	0.27
1004.205	0.27
1004.624	0.27
1005.044	0.27
1005.463	0.27
1005.882	0.27
1006.301	0.26
1006.721	0.26
1007.14	0.26
1007.559	0.26
1007.978	0.26
1008.397	0.26
1008.816	0.26
1009.235	0.26
1009.655	0.26
1010.074	0.26
1010.492	0.26
1010.911	0.26
1011.33	0.26
1011.749	0.26
1012.168	0.26
1012.587	0.26
1013.006	0.26
1013.425	0.26
1013.843	0.26
1014.262	0.25
1014.681	0.25
1015.099	0.25
1015.518	0.25
1015.937	0.25
1016.355	0.25
1016.774	0.25
1017.192	0.25
1017.611	0.25
1018.029	0.25
1018.448	0.25
1018.866	0.25
1019.285	0.25
1019.703	0.25
1020.121	0.25
1020.54	0.25
1020.958	0.25
1021.376	0.25
1021.794	0.25
1022.213	0.25
1022.631	0.26
1023.049	0.26
1023.467	0.26
1023.885	0.26
1024.303	0.26
1024.721	0.26
1025.139	0.26
1025.557	0.26
1025.975	0.26
1026.393	0.26
1026.811	0.26
1027.229	0.26
1027.647	0.26
1028.065	0.26
1028.482	0.26
1028.9	0.26
1029.318	0.26
1029.735	0.26
1030.153	0.26
1030.571	0.27
1030.988	0.27
1031.406	0.27
1031.823	0.27
1032.241	0.27
1032.659	0.27
1033.076	0.27
1033.493	0.27
1033.911	0.27
1034.328	0.26
1034.746	0.26
1035.163	0.26
1035.58	0.26
1035.997	0.26
1036.415	0.26
1036.832	0.26
1037.249	0.26
1037.666	0.25
1038.083	0.25
1038.501	0.25
1038.918	0.25
1039.335	0.25
1039.752	0.25
1040.169	0.25
1040.586	0.25
1041.003	0.25
1041.419	0.25
1041.836	0.25
1042.253	0.25
1042.67	0.25
1043.087	0.25
1043.504	0.25
1043.92	0.25
1044.337	0.25
1044.754	0.25
1045.17	0.25
1045.587	0.25
1046.004	0.25
1046.42	0.25
1046.837	0.25
1047.253	0.25
1047.67	0.25
1048.086	0.25
1048.503	0.25
1048.919	0.25
1049.335	0.25
1049.752	0.25
1050.168	0.25
1050.584	0.25
1051.001	0.25
1051.417	0.25
1051.833	0.25
1052.249	0.25
1052.665	0.25
1053.081	0.25
1053.497	0.25
1053.914	0.25
1054.33	0.25
1054.746	0.25
1055.162	0.25
1055.578	0.25
1055.993	0.25
1056.409	0.25
1056.825	0.25
1057.241	0.25
1057.657	0.25
1058.073	0.25
1058.488	0.25
1058.904	0.25
1059.32	0.25
1059.736	0.25
1060.151	0.25
1060.567	0.25
1060.982	0.25
1061.398	0.25
1061.813	0.25
1062.229	0.25
1062.644	0.25
1063.06	0.25
1063.475	0.25
1063.891	0.25
1064.306	0.25
1064.721	0.25
1065.137	0.25
1065.552	0.25
1065.967	0.25
1066.382	0.25
1066.798	0.25
1067.213	0.25
1067.628	0.25
1068.043	0.25
1068.458	0.25
1068.873	0.25
1069.288	0.25
1069.703	0.25
1070.118	0.25
1070.533	0.25
1070.948	0.25
1071.363	0.25
1071.778	0.25
1072.193	0.25
1072.607	0.26
1073.022	0.26
1073.437	0.26
1073.852	0.26
1074.266	0.26
1074.681	0.26
1075.096	0.26
1075.51	0.26
1075.925	0.26
1076.339	0.26
1076.754	0.26
1077.168	0.26
1077.583	0.26
1077.997	0.26
1078.412	0.26
1078.826	0.26
1079.24	0.26
1079.655	0.26
1080.069	0.26
1080.483	0.26
1080.897	0.26
1081.312	0.27
1081.726	0.27
1082.14	0.27
1082.554	0.27
1082.968	0.27
1083.382	0.27
1083.796	0.28
1084.21	0.28
1084.624	0.28
1085.038	0.28
1085.452	0.28
1085.866	0.29
1086.28	0.29
1086.694	0.29
1087.108	0.29
1087.521	0.29
1087.935	0.3
1088.349	0.3
1088.763	0.3
1089.176	0.3
1089.59	0.31
1090.004	0.31
1090.417	0.32
1090.831	0.32
1091.244	0.33
1091.658	0.33
1092.071	0.34
1092.485	0.35
1092.898	0.35
1093.312	0.36
1093.725	0.36
1094.138	0.37
1094.552	0.38
1094.965	0.39
1095.378	0.4
1095.791	0.41
1096.205	0.42
1096.618	0.43
1097.031	0.44
1097.444	0.46
1097.857	0.47
1098.27	0.49
1098.683	0.51
1099.096	0.52
1099.509	0.54
1099.922	0.57
1100.335	0.59
1100.748	0.62
1101.161	0.65
1101.574	0.69
1101.986	0.74
1102.399	0.79
1102.812	0.86
1103.225	0.94
1103.637	1.06
1104.05	1.22
1104.463	1.54
1104.875	-0
1105.288	-0
1105.7	-0
1106.113	-0
1106.525	-0
1106.938	-0
1107.35	-0
1107.763	-0
1108.175	-0
1108.588	-0
1109	-0
1109.412	-0
1109.824	-0
1110.237	-0
1110.649	-0
1111.061	-0
