Data from unagg-15c-2a-1h_Absorbance__1147__01574.txt Node

Date: Mon May 06 10:10:58 CEST 2024
User: Laser008
Spectrometer: MAYP115816
Trigger mode: 0
Integration Time (sec): 2.000000E-1
Scans to average: 10
Electric dark correction enabled: true
Nonlinearity correction enabled: true
Boxcar width: 5
XAxis mode: Wavelengths
Number of Pixels in Spectrum: 2068
>>>>>Begin Spectral Data<<<<<
198.914	-1.81
199.384	-1.67
199.855	-1.53
200.325	-1.41
200.796	-1.33
201.266	-1.28
201.737	-1.2
202.207	-1.15
202.677	-1.1
203.147	-1.05
203.618	-1.02
204.088	-1
204.558	-0.98
205.028	-0.97
205.498	-0.96
205.968	-0.96
206.439	-0.96
206.909	-0.95
207.379	-0.95
207.849	-0.95
208.319	-0.95
208.789	-0.95
209.258	-0.94
209.728	-0.94
210.198	-0.94
210.668	-0.94
211.138	-0.94
211.608	-0.94
212.077	-0.94
212.547	-0.94
213.017	-0.94
213.486	-0.94
213.956	-0.94
214.426	-0.94
214.895	-0.93
215.365	-0.93
215.834	-0.93
216.304	-0.93
216.773	-0.93
217.243	-0.93
217.712	-0.92
218.181	-0.92
218.651	-0.92
219.12	-0.92
219.589	-0.91
220.058	-0.91
220.528	-0.91
220.997	-0.91
221.466	-0.9
221.935	-0.9
222.404	-0.9
222.873	-0.89
223.342	-0.89
223.812	-0.88
224.281	-0.87
224.749	-0.86
225.218	-0.85
225.687	-0.84
226.156	-0.83
226.625	-0.82
227.094	-0.8
227.563	-0.79
228.031	-0.77
228.5	-0.75
228.969	-0.72
229.438	-0.7
229.906	-0.67
230.375	-0.63
230.844	-0.6
231.312	-0.56
231.781	-0.52
232.249	-0.48
232.718	-0.44
233.186	-0.39
233.655	-0.35
234.123	-0.31
234.591	-0.26
235.06	-0.22
235.528	-0.18
235.996	-0.14
236.465	-0.11
236.933	-0.07
237.401	-0.04
237.869	-0.01
238.337	0.02
238.805	0.05
239.274	0.07
239.742	0.1
240.21	0.12
240.678	0.14
241.146	0.16
241.614	0.17
242.081	0.19
242.549	0.2
243.017	0.22
243.485	0.23
243.953	0.24
244.421	0.25
244.888	0.26
245.356	0.27
245.824	0.28
246.291	0.29
246.759	0.3
247.227	0.31
247.694	0.32
248.162	0.32
248.629	0.33
249.097	0.34
249.564	0.34
250.032	0.35
250.499	0.36
250.967	0.36
251.434	0.37
251.901	0.37
252.369	0.38
252.836	0.38
253.303	0.39
253.77	0.39
254.237	0.4
254.705	0.4
255.172	0.4
255.639	0.41
256.106	0.41
256.573	0.41
257.04	0.42
257.507	0.42
257.974	0.42
258.441	0.42
258.908	0.42
259.375	0.42
259.841	0.43
260.308	0.43
260.775	0.43
261.242	0.43
261.709	0.43
262.175	0.43
262.642	0.43
263.109	0.43
263.575	0.43
264.042	0.43
264.508	0.43
264.975	0.42
265.441	0.42
265.908	0.42
266.374	0.42
266.841	0.42
267.307	0.42
267.773	0.42
268.24	0.41
268.706	0.41
269.172	0.41
269.639	0.41
270.105	0.41
270.571	0.4
271.037	0.4
271.503	0.4
271.969	0.39
272.435	0.39
272.902	0.39
273.368	0.39
273.834	0.38
274.3	0.38
274.765	0.38
275.231	0.37
275.697	0.37
276.163	0.37
276.629	0.36
277.095	0.36
277.56	0.36
278.026	0.35
278.492	0.35
278.958	0.35
279.423	0.34
279.889	0.34
280.354	0.34
280.82	0.33
281.286	0.33
281.751	0.33
282.217	0.32
282.682	0.32
283.147	0.32
283.613	0.31
284.078	0.31
284.544	0.31
285.009	0.31
285.474	0.3
285.939	0.3
286.405	0.3
286.87	0.3
287.335	0.29
287.8	0.29
288.265	0.29
288.73	0.29
289.195	0.28
289.66	0.28
290.125	0.28
290.59	0.28
291.055	0.28
291.52	0.27
291.985	0.27
292.45	0.27
292.915	0.27
293.38	0.27
293.844	0.27
294.309	0.27
294.774	0.26
295.239	0.26
295.703	0.26
296.168	0.26
296.632	0.26
297.097	0.26
297.562	0.26
298.026	0.26
298.491	0.26
298.955	0.26
299.419	0.25
299.884	0.25
300.348	0.25
300.813	0.25
301.277	0.25
301.741	0.25
302.205	0.25
302.67	0.25
303.134	0.25
303.598	0.25
304.062	0.25
304.526	0.25
304.99	0.25
305.454	0.25
305.919	0.25
306.383	0.25
306.847	0.25
307.31	0.25
307.774	0.25
308.238	0.25
308.702	0.25
309.166	0.25
309.63	0.25
310.094	0.25
310.557	0.25
311.021	0.25
311.485	0.25
311.948	0.25
312.412	0.24
312.876	0.24
313.339	0.24
313.803	0.24
314.266	0.24
314.73	0.24
315.193	0.24
315.657	0.24
316.12	0.24
316.584	0.24
317.047	0.24
317.51	0.24
317.973	0.24
318.437	0.24
318.9	0.24
319.363	0.24
319.826	0.24
320.29	0.24
320.753	0.24
321.216	0.24
321.679	0.24
322.142	0.24
322.605	0.24
323.068	0.24
323.531	0.24
323.994	0.24
324.457	0.24
324.92	0.24
325.382	0.24
325.845	0.24
326.308	0.24
326.771	0.24
327.233	0.24
327.696	0.24
328.159	0.24
328.622	0.24
329.084	0.24
329.547	0.24
330.009	0.24
330.472	0.23
330.934	0.23
331.397	0.23
331.859	0.23
332.322	0.23
332.784	0.23
333.246	0.23
333.709	0.23
334.171	0.23
334.633	0.23
335.096	0.23
335.558	0.23
336.02	0.23
336.482	0.23
336.944	0.23
337.406	0.23
337.868	0.23
338.331	0.23
338.793	0.23
339.255	0.23
339.717	0.23
340.178	0.23
340.64	0.23
341.102	0.23
341.564	0.23
342.026	0.23
342.488	0.23
342.949	0.23
343.411	0.23
343.873	0.23
344.335	0.23
344.796	0.22
345.258	0.22
345.719	0.22
346.181	0.22
346.643	0.22
347.104	0.22
347.566	0.22
348.027	0.22
348.488	0.22
348.95	0.22
349.411	0.22
349.873	0.22
350.334	0.22
350.795	0.22
351.256	0.22
351.718	0.22
352.179	0.22
352.64	0.22
353.101	0.22
353.562	0.22
354.023	0.22
354.484	0.22
354.945	0.22
355.406	0.21
355.867	0.21
356.328	0.21
356.789	0.21
357.25	0.21
357.711	0.21
358.172	0.21
358.633	0.21
359.093	0.21
359.554	0.21
360.015	0.22
360.476	0.22
360.936	0.22
361.397	0.22
361.858	0.22
362.318	0.22
362.779	0.22
363.239	0.22
363.7	0.22
364.16	0.22
364.621	0.22
365.081	0.22
365.541	0.22
366.002	0.22
366.462	0.22
366.922	0.22
367.383	0.22
367.843	0.22
368.303	0.22
368.763	0.22
369.223	0.22
369.684	0.22
370.144	0.22
370.604	0.22
371.064	0.22
371.524	0.22
371.984	0.22
372.444	0.22
372.904	0.22
373.363	0.22
373.823	0.22
374.283	0.22
374.743	0.22
375.203	0.22
375.663	0.22
376.122	0.22
376.582	0.22
377.042	0.22
377.501	0.22
377.961	0.22
378.42	0.22
378.88	0.22
379.34	0.22
379.799	0.22
380.259	0.22
380.718	0.22
381.177	0.22
381.637	0.22
382.096	0.22
382.555	0.22
383.015	0.22
383.474	0.22
383.933	0.22
384.393	0.22
384.852	0.22
385.311	0.22
385.77	0.22
386.229	0.22
386.688	0.22
387.147	0.22
387.606	0.22
388.065	0.22
388.524	0.22
388.983	0.22
389.442	0.22
389.901	0.22
390.36	0.22
390.819	0.22
391.277	0.22
391.736	0.22
392.195	0.22
392.654	0.22
393.112	0.22
393.571	0.22
394.03	0.22
394.488	0.22
394.947	0.22
395.405	0.22
395.864	0.22
396.322	0.22
396.781	0.22
397.239	0.22
397.698	0.22
398.156	0.22
398.614	0.22
399.073	0.22
399.531	0.22
399.989	0.22
400.447	0.22
400.905	0.22
401.364	0.22
401.822	0.22
402.28	0.22
402.738	0.22
403.196	0.22
403.654	0.22
404.112	0.22
404.57	0.22
405.028	0.22
405.486	0.22
405.944	0.22
406.402	0.22
406.859	0.22
407.317	0.22
407.775	0.22
408.233	0.22
408.691	0.22
409.148	0.22
409.606	0.22
410.064	0.22
410.521	0.22
410.979	0.22
411.436	0.22
411.894	0.22
412.351	0.22
412.809	0.22
413.266	0.22
413.724	0.22
414.181	0.22
414.638	0.22
415.096	0.22
415.553	0.21
416.01	0.21
416.467	0.21
416.925	0.21
417.382	0.21
417.839	0.21
418.296	0.21
418.753	0.21
419.21	0.22
419.667	0.22
420.124	0.22
420.581	0.22
421.038	0.22
421.495	0.22
421.952	0.22
422.409	0.22
422.866	0.22
423.322	0.22
423.779	0.22
424.236	0.22
424.693	0.21
425.149	0.21
425.606	0.21
426.063	0.21
426.519	0.21
426.976	0.21
427.433	0.21
427.889	0.21
428.346	0.22
428.802	0.22
429.258	0.22
429.715	0.22
430.171	0.22
430.628	0.22
431.084	0.22
431.54	0.22
431.997	0.22
432.453	0.22
432.909	0.22
433.365	0.21
433.821	0.21
434.277	0.21
434.734	0.21
435.19	0.21
435.646	0.21
436.102	0.21
436.558	0.21
437.014	0.21
437.47	0.21
437.925	0.21
438.381	0.21
438.837	0.21
439.293	0.21
439.749	0.21
440.205	0.21
440.66	0.21
441.116	0.21
441.572	0.21
442.027	0.21
442.483	0.21
442.939	0.21
443.394	0.21
443.85	0.21
444.305	0.21
444.761	0.21
445.216	0.21
445.672	0.21
446.127	0.21
446.582	0.21
447.038	0.21
447.493	0.21
447.948	0.21
448.403	0.21
448.859	0.21
449.314	0.21
449.769	0.21
450.224	0.21
450.679	0.21
451.134	0.21
451.589	0.21
452.044	0.21
452.499	0.21
452.954	0.21
453.409	0.21
453.864	0.21
454.319	0.21
454.774	0.21
455.229	0.21
455.684	0.21
456.138	0.21
456.593	0.21
457.048	0.21
457.503	0.21
457.957	0.21
458.412	0.21
458.866	0.21
459.321	0.21
459.776	0.21
460.23	0.21
460.685	0.21
461.139	0.21
461.593	0.2
462.048	0.2
462.502	0.2
462.957	0.2
463.411	0.2
463.865	0.2
464.319	0.2
464.774	0.2
465.228	0.2
465.682	0.2
466.136	0.21
466.59	0.2
467.044	0.2
467.499	0.2
467.953	0.2
468.407	0.2
468.861	0.2
469.315	0.2
469.768	0.2
470.222	0.2
470.676	0.2
471.13	0.2
471.584	0.2
472.038	0.2
472.491	0.2
472.945	0.2
473.399	0.2
473.852	0.2
474.306	0.2
474.76	0.2
475.213	0.2
475.667	0.2
476.12	0.2
476.574	0.2
477.027	0.2
477.481	0.2
477.934	0.2
478.388	0.2
478.841	0.2
479.294	0.2
479.748	0.2
480.201	0.2
480.654	0.2
481.107	0.2
481.561	0.2
482.014	0.2
482.467	0.2
482.92	0.2
483.373	0.21
483.826	0.21
484.279	0.21
484.732	0.21
485.185	0.21
485.638	0.21
486.091	0.21
486.544	0.21
486.997	0.21
487.449	0.21
487.902	0.21
488.355	0.21
488.808	0.21
489.26	0.21
489.713	0.21
490.166	0.21
490.618	0.21
491.071	0.21
491.523	0.21
491.976	0.21
492.429	0.21
492.881	0.21
493.333	0.21
493.786	0.21
494.238	0.21
494.691	0.21
495.143	0.21
495.595	0.21
496.048	0.21
496.5	0.21
496.952	0.21
497.404	0.21
497.856	0.21
498.309	0.22
498.761	0.22
499.213	0.22
499.665	0.22
500.117	0.22
500.569	0.22
501.021	0.22
501.473	0.22
501.925	0.22
502.377	0.22
502.828	0.22
503.28	0.22
503.732	0.22
504.184	0.22
504.636	0.22
505.087	0.22
505.539	0.22
505.991	0.22
506.442	0.22
506.894	0.22
507.345	0.22
507.797	0.22
508.249	0.22
508.7	0.23
509.151	0.23
509.603	0.23
510.054	0.23
510.506	0.23
510.957	0.23
511.408	0.23
511.86	0.23
512.311	0.23
512.762	0.23
513.213	0.23
513.665	0.23
514.116	0.23
514.567	0.23
515.018	0.23
515.469	0.23
515.92	0.23
516.371	0.23
516.822	0.23
517.273	0.23
517.724	0.23
518.175	0.23
518.626	0.23
519.076	0.23
519.527	0.23
519.978	0.23
520.429	0.23
520.88	0.23
521.33	0.23
521.781	0.22
522.232	0.22
522.682	0.22
523.133	0.23
523.583	0.23
524.034	0.23
524.484	0.23
524.935	0.23
525.385	0.24
525.836	0.24
526.286	0.24
526.736	0.24
527.187	0.25
527.637	0.25
528.087	0.25
528.538	0.25
528.988	0.25
529.438	0.25
529.888	0.25
530.338	0.26
530.788	0.26
531.238	0.26
531.688	0.26
532.139	0.26
532.589	0.26
533.038	0.26
533.488	0.26
533.938	0.26
534.388	0.26
534.838	0.26
535.288	0.26
535.738	0.26
536.187	0.27
536.637	0.27
537.087	0.27
537.537	0.27
537.986	0.27
538.436	0.27
538.885	0.27
539.335	0.27
539.785	0.27
540.234	0.27
540.684	0.27
541.133	0.27
541.582	0.27
542.032	0.27
542.481	0.27
542.931	0.27
543.38	0.28
543.829	0.28
544.278	0.28
544.728	0.28
545.177	0.28
545.626	0.28
546.075	0.28
546.524	0.28
546.973	0.28
547.422	0.28
547.871	0.28
548.32	0.28
548.769	0.28
549.218	0.28
549.667	0.28
550.116	0.29
550.565	0.29
551.014	0.29
551.463	0.29
551.911	0.29
552.36	0.29
552.809	0.29
553.258	0.29
553.706	0.29
554.155	0.29
554.603	0.29
555.052	0.29
555.501	0.29
555.949	0.29
556.398	0.29
556.846	0.29
557.294	0.29
557.743	0.29
558.191	0.29
558.64	0.29
559.088	0.29
559.536	0.29
559.985	0.29
560.433	0.3
560.881	0.3
561.329	0.3
561.777	0.3
562.225	0.3
562.674	0.3
563.122	0.3
563.57	0.3
564.018	0.3
564.466	0.3
564.914	0.3
565.362	0.3
565.809	0.3
566.257	0.3
566.705	0.3
567.153	0.3
567.601	0.31
568.048	0.31
568.496	0.31
568.944	0.31
569.392	0.31
569.839	0.32
570.287	0.32
570.734	0.32
571.182	0.32
571.63	0.32
572.077	0.32
572.525	0.32
572.972	0.33
573.419	0.33
573.867	0.33
574.314	0.33
574.761	0.33
575.209	0.33
575.656	0.33
576.103	0.33
576.551	0.33
576.998	0.33
577.445	0.33
577.892	0.33
578.339	0.33
578.786	0.34
579.233	0.34
579.68	0.34
580.127	0.34
580.574	0.34
581.021	0.34
581.468	0.33
581.915	0.33
582.362	0.33
582.809	0.34
583.255	0.33
583.702	0.33
584.149	0.33
584.596	0.33
585.042	0.33
585.489	0.33
585.936	0.33
586.382	0.33
586.829	0.33
587.275	0.33
587.722	0.33
588.168	0.32
588.615	0.32
589.061	0.32
589.508	0.32
589.954	0.32
590.4	0.32
590.847	0.32
591.293	0.32
591.739	0.32
592.185	0.32
592.632	0.32
593.078	0.32
593.524	0.32
593.97	0.32
594.416	0.32
594.862	0.32
595.308	0.32
595.754	0.32
596.2	0.32
596.646	0.32
597.092	0.32
597.538	0.32
597.984	0.32
598.43	0.32
598.876	0.32
599.321	0.32
599.767	0.32
600.213	0.32
600.659	0.31
601.104	0.31
601.55	0.31
601.995	0.31
602.441	0.31
602.887	0.31
603.332	0.31
603.778	0.31
604.223	0.31
604.668	0.31
605.114	0.31
605.559	0.31
606.005	0.31
606.45	0.31
606.895	0.31
607.341	0.31
607.786	0.31
608.231	0.31
608.676	0.3
609.121	0.3
609.566	0.3
610.012	0.3
610.457	0.3
610.902	0.3
611.347	0.3
611.792	0.3
612.237	0.3
612.682	0.3
613.127	0.3
613.571	0.3
614.016	0.3
614.461	0.29
614.906	0.29
615.351	0.29
615.795	0.29
616.24	0.29
616.685	0.29
617.129	0.28
617.574	0.28
618.019	0.28
618.463	0.28
618.908	0.28
619.352	0.28
619.797	0.28
620.241	0.28
620.686	0.28
621.13	0.28
621.574	0.28
622.019	0.28
622.463	0.27
622.907	0.27
623.352	0.27
623.796	0.27
624.24	0.27
624.684	0.27
625.128	0.27
625.572	0.27
626.016	0.27
626.461	0.27
626.905	0.27
627.349	0.27
627.793	0.27
628.236	0.27
628.68	0.27
629.124	0.26
629.568	0.26
630.012	0.26
630.456	0.26
630.9	0.26
631.343	0.26
631.787	0.26
632.231	0.26
632.674	0.25
633.118	0.25
633.562	0.25
634.005	0.25
634.449	0.25
634.892	0.25
635.336	0.25
635.779	0.25
636.223	0.25
636.666	0.25
637.109	0.25
637.553	0.25
637.996	0.25
638.439	0.25
638.883	0.25
639.326	0.25
639.769	0.25
640.212	0.25
640.655	0.25
641.099	0.25
641.542	0.25
641.985	0.25
642.428	0.25
642.871	0.25
643.314	0.25
643.757	0.25
644.2	0.25
644.643	0.25
645.085	0.25
645.528	0.25
645.971	0.25
646.414	0.25
646.857	0.25
647.299	0.25
647.742	0.25
648.185	0.25
648.627	0.25
649.07	0.25
649.513	0.25
649.955	0.25
650.398	0.25
650.84	0.25
651.283	0.25
651.725	0.25
652.168	0.25
652.61	0.25
653.052	0.26
653.495	0.24
653.937	0.19
654.379	0.16
654.821	0.16
655.264	0.16
655.706	0.16
656.148	0.16
656.59	0.17
657.032	0.17
657.474	0.17
657.916	0.16
658.358	0.16
658.8	0.21
659.242	0.26
659.684	0.26
660.126	0.26
660.568	0.26
661.01	0.26
661.452	0.26
661.894	0.26
662.335	0.26
662.777	0.26
663.219	0.27
663.661	0.27
664.102	0.27
664.544	0.27
664.985	0.27
665.427	0.27
665.869	0.27
666.31	0.27
666.752	0.27
667.193	0.27
667.634	0.27
668.076	0.27
668.517	0.27
668.959	0.27
669.4	0.28
669.841	0.28
670.282	0.28
670.724	0.28
671.165	0.28
671.606	0.28
672.047	0.28
672.488	0.28
672.929	0.29
673.37	0.29
673.811	0.29
674.252	0.29
674.693	0.29
675.134	0.29
675.575	0.29
676.016	0.29
676.457	0.29
676.898	0.29
677.339	0.29
677.78	0.29
678.22	0.29
678.661	0.29
679.102	0.29
679.542	0.29
679.983	0.29
680.424	0.29
680.864	0.29
681.305	0.29
681.745	0.29
682.186	0.29
682.626	0.3
683.067	0.3
683.507	0.3
683.948	0.3
684.388	0.3
684.828	0.3
685.269	0.3
685.709	0.3
686.149	0.3
686.589	0.3
687.029	0.3
687.47	0.3
687.91	0.3
688.35	0.3
688.79	0.31
689.23	0.31
689.67	0.31
690.11	0.31
690.55	0.31
690.99	0.31
691.43	0.31
691.87	0.31
692.31	0.31
692.749	0.31
693.189	0.32
693.629	0.32
694.069	0.32
694.508	0.32
694.948	0.32
695.388	0.32
695.827	0.32
696.267	0.32
696.706	0.32
697.146	0.32
697.586	0.33
698.025	0.33
698.464	0.33
698.904	0.33
699.343	0.33
699.783	0.32
700.222	0.33
700.661	0.33
701.101	0.33
701.54	0.33
701.979	0.33
702.418	0.33
702.857	0.33
703.297	0.33
703.736	0.33
704.175	0.33
704.614	0.33
705.053	0.33
705.492	0.33
705.931	0.33
706.37	0.34
706.809	0.34
707.248	0.34
707.687	0.34
708.125	0.34
708.564	0.34
709.003	0.34
709.442	0.34
709.88	0.34
710.319	0.34
710.758	0.34
711.196	0.34
711.635	0.34
712.074	0.34
712.512	0.34
712.951	0.34
713.389	0.34
713.828	0.34
714.266	0.34
714.705	0.34
715.143	0.34
715.581	0.34
716.02	0.34
716.458	0.34
716.896	0.34
717.334	0.34
717.773	0.34
718.211	0.34
718.649	0.34
719.087	0.34
719.525	0.34
719.963	0.34
720.401	0.34
720.839	0.34
721.277	0.34
721.715	0.34
722.153	0.34
722.591	0.34
723.029	0.34
723.467	0.34
723.905	0.34
724.342	0.34
724.78	0.33
725.218	0.33
725.656	0.33
726.093	0.33
726.531	0.33
726.969	0.33
727.406	0.34
727.844	0.34
728.281	0.34
728.719	0.34
729.156	0.34
729.594	0.34
730.031	0.34
730.469	0.34
730.906	0.34
731.343	0.34
731.781	0.34
732.218	0.34
732.655	0.34
733.092	0.34
733.53	0.34
733.967	0.34
734.404	0.34
734.841	0.34
735.278	0.34
735.715	0.34
736.152	0.34
736.589	0.34
737.026	0.34
737.463	0.34
737.9	0.34
738.337	0.34
738.774	0.34
739.211	0.34
739.647	0.33
740.084	0.33
740.521	0.33
740.958	0.33
741.394	0.33
741.831	0.33
742.268	0.33
742.704	0.33
743.141	0.33
743.577	0.33
744.014	0.33
744.45	0.32
744.887	0.32
745.323	0.32
745.76	0.32
746.196	0.32
746.632	0.32
747.069	0.32
747.505	0.32
747.941	0.32
748.378	0.32
748.814	0.32
749.25	0.32
749.686	0.32
750.122	0.32
750.558	0.32
750.994	0.32
751.43	0.32
751.866	0.32
752.302	0.32
752.738	0.32
753.174	0.32
753.61	0.32
754.046	0.32
754.482	0.32
754.918	0.32
755.354	0.32
755.789	0.32
756.225	0.32
756.661	0.32
757.096	0.32
757.532	0.32
757.968	0.32
758.403	0.32
758.839	0.32
759.274	0.32
759.71	0.32
760.145	0.32
760.581	0.31
761.016	0.31
761.452	0.31
761.887	0.31
762.322	0.31
762.758	0.31
763.193	0.31
763.628	0.3
764.063	0.3
764.499	0.3
764.934	0.3
765.369	0.29
765.804	0.29
766.239	0.29
766.674	0.29
767.109	0.28
767.544	0.28
767.979	0.28
768.414	0.27
768.849	0.27
769.284	0.27
769.719	0.27
770.154	0.27
770.588	0.26
771.023	0.26
771.458	0.25
771.893	0.25
772.327	0.25
772.762	0.24
773.197	0.24
773.631	0.24
774.066	0.23
774.5	0.23
774.935	0.22
775.369	0.22
775.804	0.21
776.238	0.21
776.673	0.2
777.107	0.2
777.541	0.19
777.976	0.19
778.41	0.18
778.844	0.18
779.279	0.17
779.713	0.17
780.147	0.16
780.581	0.15
781.015	0.14
781.449	0.14
781.883	0.13
782.317	0.11
782.751	0.1
783.185	0.09
783.619	0.08
784.053	0.06
784.487	0.05
784.921	0.04
785.355	0.02
785.789	0.01
786.223	-0
786.656	-0.01
787.09	-0.02
787.524	-0.03
787.957	-0.03
788.391	-0.04
788.825	-0.05
789.258	-0.05
789.692	-0.05
790.125	-0.05
790.559	-0.06
790.992	-0.06
791.426	-0.06
791.859	-0.06
792.293	-0.05
792.726	-0.04
793.159	-0.04
793.593	-0.04
794.026	-0.04
794.459	-0.04
794.892	-0.05
795.326	-0.05
795.759	-0.05
796.192	-0.05
796.625	-0.06
797.058	-0.07
797.491	-0.07
797.924	-0.08
798.357	-0.08
798.79	-0.08
799.223	-0.08
799.656	-0.08
800.089	-0.08
800.522	-0.09
800.955	-0.09
801.387	-0.09
801.82	-0.09
802.253	-0.09
802.686	-0.09
803.118	-0.09
803.551	-0.09
803.984	-0.08
804.416	-0.08
804.849	-0.07
805.281	-0.07
805.714	-0.07
806.146	-0.07
806.579	-0.07
807.011	-0.07
807.444	-0.07
807.876	-0.07
808.308	-0.07
808.741	-0.07
809.173	-0.08
809.605	-0.08
810.037	-0.08
810.47	-0.08
810.902	-0.09
811.334	-0.09
811.766	-0.08
812.198	-0.08
812.63	-0.08
813.062	-0.08
813.494	-0.08
813.926	-0.08
814.358	-0.08
814.79	-0.08
815.222	-0.07
815.654	-0.07
816.086	-0.07
816.518	-0.08
816.949	-0.08
817.381	-0.08
817.813	-0.07
818.245	-0.06
818.676	-0.05
819.108	-0.04
819.54	-0.03
819.971	-0.02
820.403	-0
820.834	0.01
821.266	0.03
821.697	0.05
822.129	0.06
822.56	0.08
822.991	0.09
823.423	0.1
823.854	0.11
824.286	0.12
824.717	0.13
825.148	0.15
825.579	0.16
826.01	0.17
826.442	0.17
826.873	0.18
827.304	0.19
827.735	0.2
828.166	0.2
828.597	0.21
829.028	0.21
829.459	0.22
829.89	0.22
830.321	0.22
830.752	0.23
831.183	0.23
831.613	0.24
832.044	0.24
832.475	0.24
832.906	0.25
833.336	0.25
833.767	0.25
834.198	0.26
834.628	0.26
835.059	0.26
835.49	0.26
835.92	0.26
836.351	0.26
836.781	0.27
837.212	0.27
837.642	0.27
838.072	0.27
838.503	0.27
838.933	0.27
839.364	0.27
839.794	0.27
840.224	0.27
840.654	0.27
841.085	0.27
841.515	0.27
841.945	0.27
842.375	0.27
842.805	0.28
843.235	0.28
843.665	0.28
844.095	0.28
844.525	0.28
844.955	0.28
845.385	0.28
845.815	0.28
846.245	0.28
846.675	0.28
847.105	0.28
847.534	0.28
847.964	0.28
848.394	0.28
848.824	0.28
849.253	0.28
849.683	0.28
850.112	0.28
850.542	0.28
850.972	0.28
851.401	0.28
851.831	0.28
852.26	0.29
852.69	0.29
853.119	0.29
853.548	0.29
853.978	0.29
854.407	0.29
854.836	0.29
855.266	0.29
855.695	0.29
856.124	0.29
856.553	0.28
856.983	0.28
857.412	0.28
857.841	0.28
858.27	0.28
858.699	0.28
859.128	0.28
859.557	0.28
859.986	0.28
860.415	0.28
860.844	0.28
861.273	0.27
861.702	0.27
862.13	0.27
862.559	0.27
862.988	0.27
863.417	0.27
863.845	0.27
864.274	0.27
864.703	0.27
865.131	0.27
865.56	0.27
865.989	0.27
866.417	0.27
866.846	0.27
867.274	0.27
867.703	0.27
868.131	0.27
868.559	0.27
868.988	0.27
869.416	0.27
869.844	0.27
870.273	0.27
870.701	0.27
871.129	0.27
871.557	0.27
871.986	0.27
872.414	0.27
872.842	0.27
873.27	0.27
873.698	0.27
874.126	0.27
874.554	0.27
874.982	0.27
875.41	0.27
875.838	0.27
876.266	0.27
876.694	0.27
877.122	0.27
877.549	0.27
877.977	0.27
878.405	0.27
878.833	0.27
879.26	0.27
879.688	0.27
880.116	0.27
880.543	0.27
880.971	0.27
881.399	0.27
881.826	0.27
882.254	0.27
882.681	0.27
883.109	0.27
883.536	0.27
883.963	0.27
884.391	0.27
884.818	0.27
885.245	0.27
885.673	0.27
886.1	0.27
886.527	0.27
886.954	0.27
887.381	0.27
887.809	0.27
888.236	0.27
888.663	0.27
889.09	0.27
889.517	0.27
889.944	0.27
890.371	0.27
890.798	0.27
891.225	0.27
891.652	0.27
892.078	0.26
892.505	0.26
892.932	0.27
893.359	0.27
893.786	0.27
894.212	0.27
894.639	0.27
895.066	0.27
895.492	0.26
895.919	0.26
896.346	0.26
896.772	0.26
897.199	0.26
897.625	0.26
898.052	0.26
898.478	0.26
898.904	0.26
899.331	0.26
899.757	0.26
900.183	0.26
900.61	0.26
901.036	0.26
901.462	0.26
901.888	0.26
902.315	0.26
902.741	0.26
903.167	0.26
903.593	0.26
904.019	0.26
904.445	0.26
904.871	0.26
905.297	0.26
905.723	0.26
906.149	0.25
906.575	0.25
907.001	0.25
907.427	0.25
907.852	0.25
908.278	0.25
908.704	0.25
909.13	0.25
909.555	0.25
909.981	0.25
910.407	0.25
910.832	0.25
911.258	0.25
911.684	0.25
912.109	0.25
912.535	0.25
912.96	0.25
913.386	0.25
913.811	0.25
914.236	0.26
914.662	0.26
915.087	0.26
915.512	0.26
915.938	0.26
916.363	0.26
916.788	0.26
917.213	0.26
917.639	0.25
918.064	0.25
918.489	0.25
918.914	0.25
919.339	0.25
919.764	0.25
920.189	0.25
920.614	0.25
921.039	0.25
921.464	0.25
921.889	0.25
922.314	0.25
922.738	0.25
923.163	0.25
923.588	0.25
924.013	0.24
924.437	0.24
924.862	0.24
925.287	0.24
925.711	0.24
926.136	0.24
926.561	0.24
926.985	0.24
927.41	0.24
927.834	0.24
928.259	0.24
928.683	0.24
929.108	0.24
929.532	0.24
929.956	0.24
930.381	0.24
930.805	0.24
931.229	0.23
931.653	0.23
932.078	0.23
932.502	0.23
932.926	0.23
933.35	0.23
933.774	0.23
934.198	0.23
934.622	0.23
935.046	0.23
935.47	0.23
935.894	0.23
936.318	0.23
936.742	0.23
937.166	0.23
937.59	0.23
938.014	0.23
938.437	0.23
938.861	0.23
939.285	0.23
939.709	0.23
940.132	0.23
940.556	0.23
940.98	0.23
941.403	0.23
941.827	0.23
942.25	0.23
942.674	0.23
943.097	0.23
943.521	0.23
943.944	0.23
944.368	0.23
944.791	0.23
945.214	0.23
945.638	0.23
946.061	0.23
946.484	0.23
946.907	0.22
947.331	0.22
947.754	0.22
948.177	0.22
948.6	0.22
949.023	0.22
949.446	0.22
949.869	0.22
950.292	0.22
950.715	0.22
951.138	0.22
951.561	0.22
951.984	0.21
952.407	0.21
952.83	0.21
953.252	0.21
953.675	0.21
954.098	0.21
954.521	0.21
954.943	0.21
955.366	0.21
955.789	0.21
956.211	0.21
956.634	0.21
957.056	0.21
957.479	0.21
957.902	0.21
958.324	0.21
958.746	0.21
959.169	0.21
959.591	0.21
960.014	0.21
960.436	0.21
960.858	0.21
961.281	0.21
961.703	0.21
962.125	0.21
962.547	0.21
962.969	0.21
963.391	0.21
963.814	0.21
964.236	0.21
964.658	0.21
965.08	0.21
965.502	0.21
965.924	0.21
966.346	0.21
966.768	0.21
967.189	0.21
967.611	0.21
968.033	0.21
968.455	0.21
968.877	0.21
969.298	0.21
969.72	0.21
970.142	0.21
970.563	0.21
970.985	0.21
971.407	0.21
971.828	0.21
972.25	0.21
972.671	0.21
973.093	0.21
973.514	0.21
973.936	0.21
974.357	0.21
974.778	0.21
975.2	0.21
975.621	0.21
976.042	0.21
976.464	0.21
976.885	0.21
977.306	0.21
977.727	0.21
978.148	0.21
978.57	0.21
978.991	0.21
979.412	0.21
979.833	0.21
980.254	0.2
980.675	0.2
981.096	0.2
981.517	0.2
981.937	0.2
982.358	0.2
982.779	0.2
983.2	0.2
983.621	0.2
984.042	0.2
984.462	0.2
984.883	0.2
985.304	0.2
985.724	0.2
986.145	0.2
986.565	0.2
986.986	0.2
987.407	0.2
987.827	0.2
988.248	0.2
988.668	0.2
989.088	0.2
989.509	0.2
989.929	0.2
990.35	0.2
990.77	0.2
991.19	0.2
991.61	0.2
992.031	0.19
992.451	0.19
992.871	0.19
993.291	0.19
993.711	0.19
994.131	0.19
994.551	0.19
994.971	0.19
995.391	0.19
995.811	0.19
996.231	0.19
996.651	0.19
997.071	0.18
997.491	0.19
997.911	0.19
998.331	0.19
998.75	0.19
999.17	0.19
999.59	0.19
1000.009	0.19
1000.429	0.19
1000.849	0.19
1001.268	0.19
1001.688	0.19
1002.107	0.19
1002.527	0.19
1002.946	0.19
1003.366	0.19
1003.785	0.19
1004.205	0.19
1004.624	0.19
1005.044	0.19
1005.463	0.19
1005.882	0.19
1006.301	0.19
1006.721	0.19
1007.14	0.19
1007.559	0.19
1007.978	0.19
1008.397	0.18
1008.816	0.18
1009.235	0.18
1009.655	0.18
1010.074	0.18
1010.492	0.18
1010.911	0.18
1011.33	0.18
1011.749	0.18
1012.168	0.18
1012.587	0.18
1013.006	0.18
1013.425	0.18
1013.843	0.18
1014.262	0.18
1014.681	0.18
1015.099	0.18
1015.518	0.18
1015.937	0.18
1016.355	0.17
1016.774	0.17
1017.192	0.17
1017.611	0.17
1018.029	0.18
1018.448	0.18
1018.866	0.18
1019.285	0.18
1019.703	0.18
1020.121	0.18
1020.54	0.18
1020.958	0.18
1021.376	0.18
1021.794	0.18
1022.213	0.18
1022.631	0.18
1023.049	0.18
1023.467	0.18
1023.885	0.18
1024.303	0.18
1024.721	0.18
1025.139	0.18
1025.557	0.18
1025.975	0.18
1026.393	0.18
1026.811	0.19
1027.229	0.19
1027.647	0.19
1028.065	0.19
1028.482	0.19
1028.9	0.19
1029.318	0.19
1029.735	0.19
1030.153	0.19
1030.571	0.19
1030.988	0.19
1031.406	0.19
1031.823	0.19
1032.241	0.19
1032.659	0.19
1033.076	0.19
1033.493	0.19
1033.911	0.19
1034.328	0.19
1034.746	0.19
1035.163	0.19
1035.58	0.19
1035.997	0.18
1036.415	0.18
1036.832	0.18
1037.249	0.18
1037.666	0.18
1038.083	0.18
1038.501	0.18
1038.918	0.18
1039.335	0.18
1039.752	0.18
1040.169	0.18
1040.586	0.18
1041.003	0.18
1041.419	0.18
1041.836	0.18
1042.253	0.18
1042.67	0.18
1043.087	0.18
1043.504	0.18
1043.92	0.18
1044.337	0.18
1044.754	0.18
1045.17	0.18
1045.587	0.17
1046.004	0.17
1046.42	0.17
1046.837	0.17
1047.253	0.17
1047.67	0.17
1048.086	0.17
1048.503	0.17
1048.919	0.17
1049.335	0.17
1049.752	0.17
1050.168	0.17
1050.584	0.17
1051.001	0.17
1051.417	0.17
1051.833	0.17
1052.249	0.17
1052.665	0.17
1053.081	0.17
1053.497	0.17
1053.914	0.17
1054.33	0.17
1054.746	0.17
1055.162	0.17
1055.578	0.17
1055.993	0.17
1056.409	0.17
1056.825	0.17
1057.241	0.17
1057.657	0.17
1058.073	0.17
1058.488	0.17
1058.904	0.17
1059.32	0.17
1059.736	0.17
1060.151	0.17
1060.567	0.17
1060.982	0.17
1061.398	0.17
1061.813	0.17
1062.229	0.17
1062.644	0.17
1063.06	0.17
1063.475	0.17
1063.891	0.17
1064.306	0.17
1064.721	0.17
1065.137	0.17
1065.552	0.17
1065.967	0.17
1066.382	0.17
1066.798	0.17
1067.213	0.17
1067.628	0.17
1068.043	0.17
1068.458	0.17
1068.873	0.17
1069.288	0.17
1069.703	0.17
1070.118	0.17
1070.533	0.17
1070.948	0.17
1071.363	0.17
1071.778	0.17
1072.193	0.17
1072.607	0.17
1073.022	0.17
1073.437	0.17
1073.852	0.18
1074.266	0.18
1074.681	0.17
1075.096	0.17
1075.51	0.17
1075.925	0.17
1076.339	0.17
1076.754	0.17
1077.168	0.17
1077.583	0.17
1077.997	0.17
1078.412	0.17
1078.826	0.17
1079.24	0.17
1079.655	0.17
1080.069	0.18
1080.483	0.18
1080.897	0.18
1081.312	0.18
1081.726	0.18
1082.14	0.18
1082.554	0.18
1082.968	0.18
1083.382	0.19
1083.796	0.19
1084.21	0.19
1084.624	0.19
1085.038	0.19
1085.452	0.19
1085.866	0.19
1086.28	0.2
1086.694	0.2
1087.108	0.2
1087.521	0.2
1087.935	0.2
1088.349	0.2
1088.763	0.2
1089.176	0.21
1089.59	0.21
1090.004	0.21
1090.417	0.21
1090.831	0.22
1091.244	0.22
1091.658	0.22
1092.071	0.23
1092.485	0.23
1092.898	0.23
1093.312	0.24
1093.725	0.24
1094.138	0.25
1094.552	0.25
1094.965	0.26
1095.378	0.26
1095.791	0.27
1096.205	0.28
1096.618	0.28
1097.031	0.29
1097.444	0.3
1097.857	0.31
1098.27	0.31
1098.683	0.32
1099.096	0.33
1099.509	0.34
1099.922	0.35
1100.335	0.37
1100.748	0.38
1101.161	0.4
1101.574	0.41
1101.986	0.43
1102.399	0.45
1102.812	0.48
1103.225	0.5
1103.637	0.53
1104.05	0.57
1104.463	0.61
1104.875	0.65
1105.288	0.7
1105.7	0.75
1106.113	0.83
1106.525	0.94
1106.938	1.13
1107.35	1.57
1107.763	-0
1108.175	-0
1108.588	-0
1109	-0
1109.412	-0
1109.824	-0
1110.237	-0
1110.649	-0
1111.061	-0
