Data from unagg-15c-2a-1h_Absorbance__58__00485.txt Node

Date: Mon May 06 09:34:40 CEST 2024
User: Laser008
Spectrometer: MAYP115816
Trigger mode: 0
Integration Time (sec): 2.000000E-1
Scans to average: 10
Electric dark correction enabled: true
Nonlinearity correction enabled: true
Boxcar width: 5
XAxis mode: Wavelengths
Number of Pixels in Spectrum: 2068
>>>>>Begin Spectral Data<<<<<
198.914	-1.89
199.384	-1.74
199.855	-1.6
200.325	-1.47
200.796	-1.39
201.266	-1.34
201.737	-1.27
202.207	-1.21
202.677	-1.15
203.147	-1.11
203.618	-1.08
204.088	-1.06
204.558	-1.03
205.028	-1.02
205.498	-1.02
205.968	-1.02
206.439	-1.02
206.909	-1.01
207.379	-1.01
207.849	-1.01
208.319	-1
208.789	-1
209.258	-1
209.728	-1
210.198	-0.99
210.668	-0.99
211.138	-1
211.608	-0.99
212.077	-0.99
212.547	-0.99
213.017	-0.99
213.486	-0.99
213.956	-0.99
214.426	-0.99
214.895	-0.99
215.365	-0.99
215.834	-0.98
216.304	-0.98
216.773	-0.98
217.243	-0.98
217.712	-0.98
218.181	-0.97
218.651	-0.97
219.12	-0.97
219.589	-0.97
220.058	-0.97
220.528	-0.96
220.997	-0.96
221.466	-0.96
221.935	-0.95
222.404	-0.95
222.873	-0.94
223.342	-0.94
223.812	-0.93
224.281	-0.92
224.749	-0.91
225.218	-0.9
225.687	-0.89
226.156	-0.88
226.625	-0.87
227.094	-0.85
227.563	-0.83
228.031	-0.81
228.5	-0.79
228.969	-0.77
229.438	-0.74
229.906	-0.71
230.375	-0.67
230.844	-0.63
231.312	-0.59
231.781	-0.55
232.249	-0.5
232.718	-0.46
233.186	-0.41
233.655	-0.36
234.123	-0.31
234.591	-0.26
235.06	-0.21
235.528	-0.16
235.996	-0.11
236.465	-0.06
236.933	-0.02
237.401	0.03
237.869	0.07
238.337	0.11
238.805	0.15
239.274	0.19
239.742	0.22
240.21	0.26
240.678	0.29
241.146	0.32
241.614	0.34
242.081	0.37
242.549	0.39
243.017	0.42
243.485	0.44
243.953	0.46
244.421	0.48
244.888	0.49
245.356	0.51
245.824	0.52
246.291	0.54
246.759	0.55
247.227	0.57
247.694	0.58
248.162	0.59
248.629	0.6
249.097	0.61
249.564	0.62
250.032	0.63
250.499	0.64
250.967	0.65
251.434	0.66
251.901	0.66
252.369	0.67
252.836	0.68
253.303	0.68
253.77	0.69
254.237	0.69
254.705	0.7
255.172	0.7
255.639	0.71
256.106	0.71
256.573	0.72
257.04	0.72
257.507	0.72
257.974	0.73
258.441	0.73
258.908	0.73
259.375	0.73
259.841	0.74
260.308	0.74
260.775	0.74
261.242	0.74
261.709	0.74
262.175	0.74
262.642	0.75
263.109	0.75
263.575	0.75
264.042	0.75
264.508	0.75
264.975	0.75
265.441	0.75
265.908	0.75
266.374	0.75
266.841	0.75
267.307	0.75
267.773	0.75
268.24	0.75
268.706	0.75
269.172	0.75
269.639	0.75
270.105	0.74
270.571	0.74
271.037	0.74
271.503	0.74
271.969	0.74
272.435	0.74
272.902	0.74
273.368	0.74
273.834	0.73
274.3	0.73
274.765	0.73
275.231	0.73
275.697	0.73
276.163	0.72
276.629	0.72
277.095	0.72
277.56	0.72
278.026	0.71
278.492	0.71
278.958	0.71
279.423	0.7
279.889	0.7
280.354	0.7
280.82	0.7
281.286	0.7
281.751	0.7
282.217	0.7
282.682	0.7
283.147	0.69
283.613	0.69
284.078	0.69
284.544	0.69
285.009	0.69
285.474	0.69
285.939	0.68
286.405	0.68
286.87	0.68
287.335	0.68
287.8	0.68
288.265	0.67
288.73	0.67
289.195	0.67
289.66	0.67
290.125	0.67
290.59	0.67
291.055	0.66
291.52	0.66
291.985	0.66
292.45	0.66
292.915	0.66
293.38	0.66
293.844	0.65
294.309	0.65
294.774	0.65
295.239	0.65
295.703	0.65
296.168	0.65
296.632	0.65
297.097	0.65
297.562	0.64
298.026	0.64
298.491	0.64
298.955	0.64
299.419	0.64
299.884	0.64
300.348	0.64
300.813	0.64
301.277	0.64
301.741	0.63
302.205	0.63
302.67	0.63
303.134	0.63
303.598	0.63
304.062	0.63
304.526	0.63
304.99	0.63
305.454	0.63
305.919	0.63
306.383	0.62
306.847	0.62
307.31	0.62
307.774	0.62
308.238	0.62
308.702	0.62
309.166	0.62
309.63	0.62
310.094	0.62
310.557	0.62
311.021	0.61
311.485	0.61
311.948	0.61
312.412	0.61
312.876	0.61
313.339	0.61
313.803	0.61
314.266	0.61
314.73	0.61
315.193	0.61
315.657	0.61
316.12	0.6
316.584	0.6
317.047	0.6
317.51	0.6
317.973	0.6
318.437	0.6
318.9	0.6
319.363	0.6
319.826	0.6
320.29	0.59
320.753	0.59
321.216	0.59
321.679	0.59
322.142	0.59
322.605	0.59
323.068	0.59
323.531	0.58
323.994	0.58
324.457	0.58
324.92	0.58
325.382	0.58
325.845	0.58
326.308	0.58
326.771	0.58
327.233	0.58
327.696	0.58
328.159	0.58
328.622	0.57
329.084	0.57
329.547	0.57
330.009	0.57
330.472	0.57
330.934	0.57
331.397	0.57
331.859	0.57
332.322	0.57
332.784	0.56
333.246	0.56
333.709	0.56
334.171	0.56
334.633	0.56
335.096	0.56
335.558	0.56
336.02	0.56
336.482	0.56
336.944	0.55
337.406	0.55
337.868	0.55
338.331	0.55
338.793	0.55
339.255	0.55
339.717	0.55
340.178	0.55
340.64	0.55
341.102	0.55
341.564	0.55
342.026	0.55
342.488	0.54
342.949	0.54
343.411	0.54
343.873	0.54
344.335	0.54
344.796	0.54
345.258	0.54
345.719	0.54
346.181	0.54
346.643	0.54
347.104	0.54
347.566	0.53
348.027	0.53
348.488	0.53
348.95	0.53
349.411	0.53
349.873	0.53
350.334	0.53
350.795	0.53
351.256	0.53
351.718	0.53
352.179	0.53
352.64	0.52
353.101	0.52
353.562	0.52
354.023	0.52
354.484	0.52
354.945	0.52
355.406	0.52
355.867	0.51
356.328	0.51
356.789	0.51
357.25	0.51
357.711	0.51
358.172	0.51
358.633	0.51
359.093	0.51
359.554	0.51
360.015	0.52
360.476	0.52
360.936	0.52
361.397	0.52
361.858	0.52
362.318	0.52
362.779	0.52
363.239	0.52
363.7	0.52
364.16	0.52
364.621	0.52
365.081	0.52
365.541	0.52
366.002	0.52
366.462	0.52
366.922	0.52
367.383	0.52
367.843	0.51
368.303	0.51
368.763	0.51
369.223	0.51
369.684	0.51
370.144	0.51
370.604	0.51
371.064	0.51
371.524	0.51
371.984	0.51
372.444	0.51
372.904	0.51
373.363	0.51
373.823	0.51
374.283	0.51
374.743	0.51
375.203	0.51
375.663	0.51
376.122	0.51
376.582	0.51
377.042	0.51
377.501	0.51
377.961	0.51
378.42	0.51
378.88	0.51
379.34	0.51
379.799	0.51
380.259	0.51
380.718	0.51
381.177	0.51
381.637	0.51
382.096	0.51
382.555	0.51
383.015	0.51
383.474	0.51
383.933	0.51
384.393	0.51
384.852	0.51
385.311	0.51
385.77	0.51
386.229	0.51
386.688	0.51
387.147	0.51
387.606	0.51
388.065	0.51
388.524	0.5
388.983	0.5
389.442	0.5
389.901	0.5
390.36	0.5
390.819	0.5
391.277	0.5
391.736	0.5
392.195	0.5
392.654	0.5
393.112	0.5
393.571	0.5
394.03	0.5
394.488	0.5
394.947	0.5
395.405	0.5
395.864	0.5
396.322	0.5
396.781	0.5
397.239	0.5
397.698	0.5
398.156	0.5
398.614	0.5
399.073	0.5
399.531	0.5
399.989	0.5
400.447	0.5
400.905	0.5
401.364	0.5
401.822	0.5
402.28	0.5
402.738	0.5
403.196	0.5
403.654	0.5
404.112	0.5
404.57	0.5
405.028	0.49
405.486	0.49
405.944	0.49
406.402	0.49
406.859	0.49
407.317	0.49
407.775	0.49
408.233	0.49
408.691	0.49
409.148	0.49
409.606	0.49
410.064	0.49
410.521	0.49
410.979	0.49
411.436	0.49
411.894	0.49
412.351	0.49
412.809	0.49
413.266	0.49
413.724	0.49
414.181	0.48
414.638	0.48
415.096	0.48
415.553	0.48
416.01	0.48
416.467	0.48
416.925	0.48
417.382	0.48
417.839	0.48
418.296	0.48
418.753	0.48
419.21	0.48
419.667	0.48
420.124	0.48
420.581	0.48
421.038	0.48
421.495	0.49
421.952	0.49
422.409	0.49
422.866	0.49
423.322	0.49
423.779	0.48
424.236	0.48
424.693	0.48
425.149	0.48
425.606	0.48
426.063	0.48
426.519	0.48
426.976	0.48
427.433	0.48
427.889	0.48
428.346	0.48
428.802	0.48
429.258	0.48
429.715	0.48
430.171	0.48
430.628	0.48
431.084	0.48
431.54	0.48
431.997	0.48
432.453	0.48
432.909	0.48
433.365	0.48
433.821	0.47
434.277	0.47
434.734	0.47
435.19	0.47
435.646	0.47
436.102	0.47
436.558	0.47
437.014	0.47
437.47	0.47
437.925	0.47
438.381	0.47
438.837	0.47
439.293	0.47
439.749	0.47
440.205	0.47
440.66	0.47
441.116	0.47
441.572	0.47
442.027	0.47
442.483	0.47
442.939	0.47
443.394	0.47
443.85	0.47
444.305	0.47
444.761	0.47
445.216	0.47
445.672	0.47
446.127	0.47
446.582	0.47
447.038	0.47
447.493	0.47
447.948	0.47
448.403	0.47
448.859	0.47
449.314	0.47
449.769	0.47
450.224	0.47
450.679	0.47
451.134	0.47
451.589	0.46
452.044	0.46
452.499	0.46
452.954	0.46
453.409	0.46
453.864	0.46
454.319	0.46
454.774	0.46
455.229	0.46
455.684	0.46
456.138	0.46
456.593	0.46
457.048	0.46
457.503	0.46
457.957	0.46
458.412	0.46
458.866	0.46
459.321	0.46
459.776	0.46
460.23	0.46
460.685	0.46
461.139	0.45
461.593	0.45
462.048	0.45
462.502	0.45
462.957	0.45
463.411	0.45
463.865	0.45
464.319	0.45
464.774	0.45
465.228	0.45
465.682	0.45
466.136	0.45
466.59	0.45
467.044	0.45
467.499	0.45
467.953	0.45
468.407	0.45
468.861	0.45
469.315	0.45
469.768	0.44
470.222	0.44
470.676	0.44
471.13	0.44
471.584	0.44
472.038	0.44
472.491	0.44
472.945	0.45
473.399	0.45
473.852	0.45
474.306	0.45
474.76	0.45
475.213	0.45
475.667	0.45
476.12	0.45
476.574	0.45
477.027	0.45
477.481	0.45
477.934	0.45
478.388	0.45
478.841	0.45
479.294	0.45
479.748	0.46
480.201	0.46
480.654	0.46
481.107	0.46
481.561	0.46
482.014	0.46
482.467	0.46
482.92	0.46
483.373	0.47
483.826	0.47
484.279	0.47
484.732	0.48
485.185	0.48
485.638	0.48
486.091	0.48
486.544	0.48
486.997	0.48
487.449	0.48
487.902	0.48
488.355	0.48
488.808	0.48
489.26	0.48
489.713	0.48
490.166	0.48
490.618	0.48
491.071	0.48
491.523	0.48
491.976	0.48
492.429	0.48
492.881	0.48
493.333	0.48
493.786	0.49
494.238	0.49
494.691	0.49
495.143	0.49
495.595	0.5
496.048	0.5
496.5	0.5
496.952	0.5
497.404	0.5
497.856	0.5
498.309	0.5
498.761	0.51
499.213	0.51
499.665	0.51
500.117	0.51
500.569	0.51
501.021	0.51
501.473	0.52
501.925	0.52
502.377	0.52
502.828	0.52
503.28	0.53
503.732	0.53
504.184	0.53
504.636	0.53
505.087	0.53
505.539	0.53
505.991	0.53
506.442	0.54
506.894	0.54
507.345	0.54
507.797	0.54
508.249	0.54
508.7	0.54
509.151	0.54
509.603	0.54
510.054	0.54
510.506	0.55
510.957	0.55
511.408	0.55
511.86	0.55
512.311	0.55
512.762	0.55
513.213	0.55
513.665	0.55
514.116	0.55
514.567	0.55
515.018	0.55
515.469	0.55
515.92	0.55
516.371	0.55
516.822	0.55
517.273	0.55
517.724	0.55
518.175	0.55
518.626	0.55
519.076	0.55
519.527	0.55
519.978	0.54
520.429	0.54
520.88	0.54
521.33	0.54
521.781	0.53
522.232	0.53
522.682	0.53
523.133	0.53
523.583	0.54
524.034	0.54
524.484	0.54
524.935	0.55
525.385	0.56
525.836	0.56
526.286	0.57
526.736	0.57
527.187	0.58
527.637	0.58
528.087	0.58
528.538	0.59
528.988	0.59
529.438	0.59
529.888	0.59
530.338	0.59
530.788	0.59
531.238	0.6
531.688	0.6
532.139	0.6
532.589	0.6
533.038	0.6
533.488	0.6
533.938	0.6
534.388	0.61
534.838	0.61
535.288	0.61
535.738	0.61
536.187	0.61
536.637	0.61
537.087	0.61
537.537	0.61
537.986	0.61
538.436	0.61
538.885	0.61
539.335	0.61
539.785	0.61
540.234	0.61
540.684	0.61
541.133	0.61
541.582	0.61
542.032	0.61
542.481	0.61
542.931	0.61
543.38	0.62
543.829	0.62
544.278	0.62
544.728	0.62
545.177	0.62
545.626	0.62
546.075	0.62
546.524	0.62
546.973	0.62
547.422	0.62
547.871	0.62
548.32	0.62
548.769	0.62
549.218	0.62
549.667	0.62
550.116	0.62
550.565	0.62
551.014	0.62
551.463	0.62
551.911	0.62
552.36	0.62
552.809	0.62
553.258	0.62
553.706	0.62
554.155	0.62
554.603	0.62
555.052	0.62
555.501	0.62
555.949	0.61
556.398	0.61
556.846	0.61
557.294	0.61
557.743	0.61
558.191	0.6
558.64	0.6
559.088	0.6
559.536	0.61
559.985	0.61
560.433	0.61
560.881	0.61
561.329	0.61
561.777	0.61
562.225	0.61
562.674	0.61
563.122	0.61
563.57	0.61
564.018	0.61
564.466	0.61
564.914	0.6
565.362	0.6
565.809	0.6
566.257	0.6
566.705	0.6
567.153	0.61
567.601	0.61
568.048	0.61
568.496	0.62
568.944	0.62
569.392	0.63
569.839	0.63
570.287	0.63
570.734	0.63
571.182	0.64
571.63	0.64
572.077	0.64
572.525	0.64
572.972	0.64
573.419	0.64
573.867	0.64
574.314	0.64
574.761	0.64
575.209	0.64
575.656	0.65
576.103	0.65
576.551	0.65
576.998	0.64
577.445	0.64
577.892	0.64
578.339	0.64
578.786	0.64
579.233	0.64
579.68	0.64
580.127	0.64
580.574	0.64
581.021	0.63
581.468	0.63
581.915	0.63
582.362	0.63
582.809	0.63
583.255	0.63
583.702	0.62
584.149	0.62
584.596	0.61
585.042	0.61
585.489	0.61
585.936	0.61
586.382	0.6
586.829	0.6
587.275	0.6
587.722	0.6
588.168	0.59
588.615	0.59
589.061	0.58
589.508	0.58
589.954	0.58
590.4	0.57
590.847	0.57
591.293	0.57
591.739	0.57
592.185	0.57
592.632	0.56
593.078	0.56
593.524	0.56
593.97	0.56
594.416	0.56
594.862	0.56
595.308	0.55
595.754	0.55
596.2	0.55
596.646	0.55
597.092	0.55
597.538	0.55
597.984	0.55
598.43	0.54
598.876	0.54
599.321	0.54
599.767	0.54
600.213	0.54
600.659	0.54
601.104	0.53
601.55	0.53
601.995	0.53
602.441	0.52
602.887	0.52
603.332	0.52
603.778	0.52
604.223	0.52
604.668	0.52
605.114	0.52
605.559	0.52
606.005	0.51
606.45	0.51
606.895	0.51
607.341	0.51
607.786	0.51
608.231	0.5
608.676	0.5
609.121	0.5
609.566	0.49
610.012	0.49
610.457	0.49
610.902	0.49
611.347	0.48
611.792	0.48
612.237	0.48
612.682	0.48
613.127	0.48
613.571	0.48
614.016	0.48
614.461	0.48
614.906	0.48
615.351	0.47
615.795	0.47
616.24	0.47
616.685	0.47
617.129	0.46
617.574	0.46
618.019	0.46
618.463	0.46
618.908	0.45
619.352	0.45
619.797	0.45
620.241	0.45
620.686	0.45
621.13	0.45
621.574	0.45
622.019	0.45
622.463	0.45
622.907	0.45
623.352	0.45
623.796	0.45
624.24	0.45
624.684	0.44
625.128	0.44
625.572	0.44
626.016	0.44
626.461	0.44
626.905	0.44
627.349	0.44
627.793	0.44
628.236	0.44
628.68	0.44
629.124	0.44
629.568	0.44
630.012	0.44
630.456	0.44
630.9	0.44
631.343	0.44
631.787	0.44
632.231	0.44
632.674	0.44
633.118	0.44
633.562	0.44
634.005	0.44
634.449	0.44
634.892	0.44
635.336	0.44
635.779	0.44
636.223	0.44
636.666	0.44
637.109	0.44
637.553	0.45
637.996	0.45
638.439	0.45
638.883	0.45
639.326	0.45
639.769	0.45
640.212	0.45
640.655	0.45
641.099	0.46
641.542	0.46
641.985	0.46
642.428	0.46
642.871	0.46
643.314	0.47
643.757	0.47
644.2	0.47
644.643	0.47
645.085	0.47
645.528	0.48
645.971	0.48
646.414	0.48
646.857	0.49
647.299	0.49
647.742	0.49
648.185	0.5
648.627	0.5
649.07	0.5
649.513	0.51
649.955	0.51
650.398	0.51
650.84	0.52
651.283	0.52
651.725	0.52
652.168	0.52
652.61	0.53
653.052	0.54
653.495	0.53
653.937	0.47
654.379	0.44
654.821	0.45
655.264	0.45
655.706	0.45
656.148	0.46
656.59	0.46
657.032	0.46
657.474	0.46
657.916	0.46
658.358	0.46
658.8	0.52
659.242	0.59
659.684	0.59
660.126	0.59
660.568	0.59
661.01	0.59
661.452	0.59
661.894	0.6
662.335	0.6
662.777	0.61
663.219	0.61
663.661	0.61
664.102	0.62
664.544	0.62
664.985	0.62
665.427	0.63
665.869	0.63
666.31	0.63
666.752	0.64
667.193	0.64
667.634	0.65
668.076	0.65
668.517	0.65
668.959	0.66
669.4	0.66
669.841	0.67
670.282	0.67
670.724	0.68
671.165	0.68
671.606	0.68
672.047	0.69
672.488	0.69
672.929	0.69
673.37	0.69
673.811	0.7
674.252	0.7
674.693	0.7
675.134	0.7
675.575	0.7
676.016	0.7
676.457	0.7
676.898	0.71
677.339	0.71
677.78	0.71
678.22	0.71
678.661	0.72
679.102	0.72
679.542	0.72
679.983	0.72
680.424	0.72
680.864	0.72
681.305	0.72
681.745	0.73
682.186	0.73
682.626	0.73
683.067	0.73
683.507	0.74
683.948	0.74
684.388	0.74
684.828	0.74
685.269	0.74
685.709	0.74
686.149	0.75
686.589	0.75
687.029	0.75
687.47	0.75
687.91	0.75
688.35	0.74
688.79	0.74
689.23	0.75
689.67	0.75
690.11	0.75
690.55	0.75
690.99	0.75
691.43	0.75
691.87	0.75
692.31	0.75
692.749	0.75
693.189	0.75
693.629	0.75
694.069	0.75
694.508	0.75
694.948	0.75
695.388	0.75
695.827	0.75
696.267	0.75
696.706	0.75
697.146	0.75
697.586	0.75
698.025	0.75
698.464	0.75
698.904	0.75
699.343	0.75
699.783	0.74
700.222	0.74
700.661	0.74
701.101	0.74
701.54	0.74
701.979	0.74
702.418	0.73
702.857	0.73
703.297	0.73
703.736	0.73
704.175	0.73
704.614	0.73
705.053	0.73
705.492	0.73
705.931	0.73
706.37	0.73
706.809	0.73
707.248	0.73
707.687	0.72
708.125	0.72
708.564	0.72
709.003	0.72
709.442	0.72
709.88	0.71
710.319	0.71
710.758	0.71
711.196	0.7
711.635	0.7
712.074	0.7
712.512	0.7
712.951	0.69
713.389	0.69
713.828	0.69
714.266	0.68
714.705	0.68
715.143	0.68
715.581	0.68
716.02	0.67
716.458	0.67
716.896	0.67
717.334	0.66
717.773	0.66
718.211	0.66
718.649	0.66
719.087	0.65
719.525	0.65
719.963	0.65
720.401	0.65
720.839	0.64
721.277	0.64
721.715	0.64
722.153	0.63
722.591	0.63
723.029	0.63
723.467	0.62
723.905	0.62
724.342	0.62
724.78	0.62
725.218	0.61
725.656	0.61
726.093	0.61
726.531	0.6
726.969	0.6
727.406	0.6
727.844	0.6
728.281	0.6
728.719	0.59
729.156	0.59
729.594	0.59
730.031	0.59
730.469	0.59
730.906	0.58
731.343	0.58
731.781	0.58
732.218	0.58
732.655	0.58
733.092	0.57
733.53	0.57
733.967	0.57
734.404	0.56
734.841	0.56
735.278	0.56
735.715	0.56
736.152	0.55
736.589	0.55
737.026	0.55
737.463	0.54
737.9	0.54
738.337	0.54
738.774	0.53
739.211	0.53
739.647	0.53
740.084	0.52
740.521	0.52
740.958	0.52
741.394	0.51
741.831	0.51
742.268	0.5
742.704	0.5
743.141	0.49
743.577	0.49
744.014	0.48
744.45	0.48
744.887	0.47
745.323	0.47
745.76	0.47
746.196	0.46
746.632	0.46
747.069	0.46
747.505	0.46
747.941	0.46
748.378	0.46
748.814	0.45
749.25	0.45
749.686	0.45
750.122	0.45
750.558	0.45
750.994	0.45
751.43	0.45
751.866	0.45
752.302	0.44
752.738	0.44
753.174	0.44
753.61	0.44
754.046	0.44
754.482	0.44
754.918	0.44
755.354	0.44
755.789	0.43
756.225	0.43
756.661	0.43
757.096	0.43
757.532	0.43
757.968	0.42
758.403	0.42
758.839	0.42
759.274	0.42
759.71	0.41
760.145	0.41
760.581	0.4
761.016	0.4
761.452	0.39
761.887	0.39
762.322	0.39
762.758	0.38
763.193	0.38
763.628	0.37
764.063	0.37
764.499	0.36
764.934	0.36
765.369	0.36
765.804	0.35
766.239	0.35
766.674	0.35
767.109	0.34
767.544	0.33
767.979	0.33
768.414	0.32
768.849	0.32
769.284	0.32
769.719	0.31
770.154	0.31
770.588	0.3
771.023	0.3
771.458	0.29
771.893	0.28
772.327	0.28
772.762	0.27
773.197	0.27
773.631	0.26
774.066	0.25
774.5	0.25
774.935	0.24
775.369	0.23
775.804	0.23
776.238	0.22
776.673	0.21
777.107	0.2
777.541	0.2
777.976	0.19
778.41	0.18
778.844	0.17
779.279	0.17
779.713	0.16
780.147	0.15
780.581	0.14
781.015	0.13
781.449	0.12
781.883	0.11
782.317	0.09
782.751	0.08
783.185	0.06
783.619	0.05
784.053	0.03
784.487	0.02
784.921	0
785.355	-0.01
785.789	-0.03
786.223	-0.03
786.656	-0.04
787.09	-0.04
787.524	-0.04
787.957	-0.05
788.391	-0.05
788.825	-0.06
789.258	-0.06
789.692	-0.06
790.125	-0.05
790.559	-0.06
790.992	-0.06
791.426	-0.06
791.859	-0.06
792.293	-0.05
792.726	-0.04
793.159	-0.04
793.593	-0.04
794.026	-0.04
794.459	-0.04
794.892	-0.05
795.326	-0.05
795.759	-0.05
796.192	-0.05
796.625	-0.06
797.058	-0.06
797.491	-0.07
797.924	-0.08
798.357	-0.08
798.79	-0.08
799.223	-0.08
799.656	-0.08
800.089	-0.08
800.522	-0.09
800.955	-0.09
801.387	-0.09
801.82	-0.09
802.253	-0.09
802.686	-0.09
803.118	-0.09
803.551	-0.09
803.984	-0.08
804.416	-0.08
804.849	-0.07
805.281	-0.07
805.714	-0.07
806.146	-0.07
806.579	-0.07
807.011	-0.07
807.444	-0.07
807.876	-0.07
808.308	-0.07
808.741	-0.07
809.173	-0.08
809.605	-0.08
810.037	-0.08
810.47	-0.08
810.902	-0.09
811.334	-0.09
811.766	-0.08
812.198	-0.08
812.63	-0.08
813.062	-0.08
813.494	-0.08
813.926	-0.08
814.358	-0.08
814.79	-0.08
815.222	-0.07
815.654	-0.07
816.086	-0.07
816.518	-0.08
816.949	-0.08
817.381	-0.08
817.813	-0.08
818.245	-0.07
818.676	-0.07
819.108	-0.06
819.54	-0.06
819.971	-0.05
820.403	-0.04
820.834	-0.03
821.266	-0.02
821.697	-0
822.129	0.01
822.56	0.02
822.991	0.04
823.423	0.05
823.854	0.06
824.286	0.07
824.717	0.08
825.148	0.09
825.579	0.1
826.01	0.11
826.442	0.12
826.873	0.12
827.304	0.13
827.735	0.14
828.166	0.14
828.597	0.15
829.028	0.15
829.459	0.15
829.89	0.16
830.321	0.16
830.752	0.17
831.183	0.17
831.613	0.17
832.044	0.18
832.475	0.18
832.906	0.18
833.336	0.18
833.767	0.19
834.198	0.19
834.628	0.19
835.059	0.19
835.49	0.19
835.92	0.2
836.351	0.2
836.781	0.2
837.212	0.2
837.642	0.2
838.072	0.2
838.503	0.2
838.933	0.2
839.364	0.2
839.794	0.2
840.224	0.2
840.654	0.2
841.085	0.2
841.515	0.2
841.945	0.2
842.375	0.2
842.805	0.2
843.235	0.2
843.665	0.2
844.095	0.2
844.525	0.2
844.955	0.2
845.385	0.2
845.815	0.2
846.245	0.2
846.675	0.2
847.105	0.2
847.534	0.2
847.964	0.2
848.394	0.2
848.824	0.2
849.253	0.2
849.683	0.2
850.112	0.2
850.542	0.2
850.972	0.2
851.401	0.2
851.831	0.2
852.26	0.2
852.69	0.2
853.119	0.2
853.548	0.2
853.978	0.2
854.407	0.2
854.836	0.2
855.266	0.2
855.695	0.2
856.124	0.2
856.553	0.2
856.983	0.2
857.412	0.2
857.841	0.19
858.27	0.19
858.699	0.19
859.128	0.19
859.557	0.19
859.986	0.19
860.415	0.19
860.844	0.19
861.273	0.19
861.702	0.19
862.13	0.19
862.559	0.19
862.988	0.19
863.417	0.19
863.845	0.19
864.274	0.19
864.703	0.19
865.131	0.19
865.56	0.18
865.989	0.18
866.417	0.18
866.846	0.18
867.274	0.18
867.703	0.18
868.131	0.18
868.559	0.18
868.988	0.18
869.416	0.18
869.844	0.18
870.273	0.18
870.701	0.18
871.129	0.18
871.557	0.18
871.986	0.18
872.414	0.18
872.842	0.18
873.27	0.18
873.698	0.18
874.126	0.18
874.554	0.18
874.982	0.18
875.41	0.18
875.838	0.18
876.266	0.18
876.694	0.18
877.122	0.18
877.549	0.18
877.977	0.18
878.405	0.18
878.833	0.18
879.26	0.18
879.688	0.17
880.116	0.17
880.543	0.17
880.971	0.17
881.399	0.17
881.826	0.17
882.254	0.17
882.681	0.17
883.109	0.17
883.536	0.17
883.963	0.17
884.391	0.17
884.818	0.17
885.245	0.17
885.673	0.18
886.1	0.18
886.527	0.18
886.954	0.18
887.381	0.18
887.809	0.18
888.236	0.17
888.663	0.17
889.09	0.17
889.517	0.17
889.944	0.17
890.371	0.17
890.798	0.17
891.225	0.17
891.652	0.17
892.078	0.17
892.505	0.17
892.932	0.17
893.359	0.17
893.786	0.17
894.212	0.17
894.639	0.17
895.066	0.17
895.492	0.17
895.919	0.17
896.346	0.17
896.772	0.17
897.199	0.16
897.625	0.16
898.052	0.16
898.478	0.16
898.904	0.16
899.331	0.16
899.757	0.16
900.183	0.16
900.61	0.16
901.036	0.16
901.462	0.16
901.888	0.16
902.315	0.16
902.741	0.16
903.167	0.16
903.593	0.16
904.019	0.16
904.445	0.16
904.871	0.16
905.297	0.16
905.723	0.16
906.149	0.16
906.575	0.16
907.001	0.16
907.427	0.16
907.852	0.16
908.278	0.16
908.704	0.16
909.13	0.15
909.555	0.15
909.981	0.15
910.407	0.15
910.832	0.15
911.258	0.15
911.684	0.15
912.109	0.15
912.535	0.15
912.96	0.16
913.386	0.16
913.811	0.16
914.236	0.16
914.662	0.16
915.087	0.16
915.512	0.16
915.938	0.16
916.363	0.16
916.788	0.16
917.213	0.16
917.639	0.16
918.064	0.16
918.489	0.15
918.914	0.15
919.339	0.15
919.764	0.15
920.189	0.15
920.614	0.15
921.039	0.15
921.464	0.15
921.889	0.15
922.314	0.15
922.738	0.15
923.163	0.15
923.588	0.15
924.013	0.15
924.437	0.15
924.862	0.15
925.287	0.15
925.711	0.15
926.136	0.15
926.561	0.15
926.985	0.15
927.41	0.15
927.834	0.15
928.259	0.15
928.683	0.15
929.108	0.15
929.532	0.15
929.956	0.15
930.381	0.14
930.805	0.14
931.229	0.14
931.653	0.14
932.078	0.14
932.502	0.14
932.926	0.14
933.35	0.13
933.774	0.13
934.198	0.13
934.622	0.13
935.046	0.13
935.47	0.13
935.894	0.13
936.318	0.13
936.742	0.13
937.166	0.13
937.59	0.13
938.014	0.13
938.437	0.13
938.861	0.13
939.285	0.13
939.709	0.14
940.132	0.14
940.556	0.14
940.98	0.14
941.403	0.14
941.827	0.14
942.25	0.14
942.674	0.14
943.097	0.14
943.521	0.14
943.944	0.14
944.368	0.14
944.791	0.14
945.214	0.14
945.638	0.13
946.061	0.13
946.484	0.13
946.907	0.13
947.331	0.13
947.754	0.13
948.177	0.13
948.6	0.13
949.023	0.13
949.446	0.13
949.869	0.13
950.292	0.13
950.715	0.13
951.138	0.12
951.561	0.12
951.984	0.12
952.407	0.12
952.83	0.12
953.252	0.12
953.675	0.12
954.098	0.12
954.521	0.12
954.943	0.12
955.366	0.12
955.789	0.12
956.211	0.12
956.634	0.12
957.056	0.12
957.479	0.12
957.902	0.12
958.324	0.12
958.746	0.12
959.169	0.12
959.591	0.12
960.014	0.12
960.436	0.12
960.858	0.12
961.281	0.12
961.703	0.12
962.125	0.12
962.547	0.12
962.969	0.12
963.391	0.12
963.814	0.12
964.236	0.13
964.658	0.13
965.08	0.13
965.502	0.13
965.924	0.13
966.346	0.13
966.768	0.13
967.189	0.13
967.611	0.13
968.033	0.13
968.455	0.12
968.877	0.12
969.298	0.12
969.72	0.12
970.142	0.12
970.563	0.12
970.985	0.12
971.407	0.12
971.828	0.12
972.25	0.12
972.671	0.12
973.093	0.12
973.514	0.12
973.936	0.12
974.357	0.12
974.778	0.12
975.2	0.12
975.621	0.12
976.042	0.12
976.464	0.12
976.885	0.12
977.306	0.12
977.727	0.12
978.148	0.12
978.57	0.12
978.991	0.12
979.412	0.12
979.833	0.12
980.254	0.12
980.675	0.11
981.096	0.11
981.517	0.11
981.937	0.11
982.358	0.11
982.779	0.11
983.2	0.11
983.621	0.11
984.042	0.11
984.462	0.11
984.883	0.11
985.304	0.11
985.724	0.11
986.145	0.11
986.565	0.11
986.986	0.11
987.407	0.11
987.827	0.11
988.248	0.11
988.668	0.11
989.088	0.11
989.509	0.11
989.929	0.11
990.35	0.11
990.77	0.11
991.19	0.11
991.61	0.11
992.031	0.11
992.451	0.11
992.871	0.11
993.291	0.1
993.711	0.1
994.131	0.1
994.551	0.1
994.971	0.1
995.391	0.1
995.811	0.1
996.231	0.1
996.651	0.1
997.071	0.1
997.491	0.1
997.911	0.1
998.331	0.1
998.75	0.1
999.17	0.1
999.59	0.1
1000.009	0.1
1000.429	0.1
1000.849	0.1
1001.268	0.1
1001.688	0.1
1002.107	0.1
1002.527	0.1
1002.946	0.1
1003.366	0.1
1003.785	0.1
1004.205	0.1
1004.624	0.1
1005.044	0.1
1005.463	0.1
1005.882	0.1
1006.301	0.1
1006.721	0.1
1007.14	0.1
1007.559	0.1
1007.978	0.1
1008.397	0.1
1008.816	0.1
1009.235	0.1
1009.655	0.1
1010.074	0.1
1010.492	0.1
1010.911	0.1
1011.33	0.1
1011.749	0.1
1012.168	0.1
1012.587	0.1
1013.006	0.1
1013.425	0.1
1013.843	0.09
1014.262	0.09
1014.681	0.09
1015.099	0.09
1015.518	0.09
1015.937	0.09
1016.355	0.09
1016.774	0.09
1017.192	0.09
1017.611	0.09
1018.029	0.09
1018.448	0.09
1018.866	0.09
1019.285	0.09
1019.703	0.09
1020.121	0.09
1020.54	0.09
1020.958	0.09
1021.376	0.09
1021.794	0.1
1022.213	0.1
1022.631	0.1
1023.049	0.1
1023.467	0.1
1023.885	0.1
1024.303	0.1
1024.721	0.1
1025.139	0.1
1025.557	0.1
1025.975	0.1
1026.393	0.1
1026.811	0.1
1027.229	0.1
1027.647	0.1
1028.065	0.1
1028.482	0.1
1028.9	0.1
1029.318	0.11
1029.735	0.11
1030.153	0.11
1030.571	0.11
1030.988	0.11
1031.406	0.11
1031.823	0.11
1032.241	0.11
1032.659	0.11
1033.076	0.11
1033.493	0.11
1033.911	0.11
1034.328	0.11
1034.746	0.11
1035.163	0.1
1035.58	0.1
1035.997	0.1
1036.415	0.1
1036.832	0.1
1037.249	0.1
1037.666	0.1
1038.083	0.1
1038.501	0.1
1038.918	0.1
1039.335	0.1
1039.752	0.1
1040.169	0.1
1040.586	0.1
1041.003	0.1
1041.419	0.1
1041.836	0.1
1042.253	0.1
1042.67	0.1
1043.087	0.1
1043.504	0.1
1043.92	0.1
1044.337	0.1
1044.754	0.1
1045.17	0.1
1045.587	0.1
1046.004	0.1
1046.42	0.1
1046.837	0.1
1047.253	0.1
1047.67	0.1
1048.086	0.1
1048.503	0.1
1048.919	0.1
1049.335	0.1
1049.752	0.1
1050.168	0.1
1050.584	0.1
1051.001	0.1
1051.417	0.1
1051.833	0.1
1052.249	0.1
1052.665	0.1
1053.081	0.1
1053.497	0.1
1053.914	0.1
1054.33	0.1
1054.746	0.1
1055.162	0.1
1055.578	0.1
1055.993	0.1
1056.409	0.1
1056.825	0.1
1057.241	0.1
1057.657	0.1
1058.073	0.1
1058.488	0.1
1058.904	0.1
1059.32	0.1
1059.736	0.1
1060.151	0.1
1060.567	0.1
1060.982	0.1
1061.398	0.1
1061.813	0.1
1062.229	0.1
1062.644	0.1
1063.06	0.1
1063.475	0.1
1063.891	0.1
1064.306	0.1
1064.721	0.1
1065.137	0.1
1065.552	0.1
1065.967	0.1
1066.382	0.1
1066.798	0.1
1067.213	0.1
1067.628	0.1
1068.043	0.1
1068.458	0.1
1068.873	0.1
1069.288	0.1
1069.703	0.1
1070.118	0.1
1070.533	0.1
1070.948	0.11
1071.363	0.11
1071.778	0.11
1072.193	0.11
1072.607	0.11
1073.022	0.11
1073.437	0.11
1073.852	0.11
1074.266	0.11
1074.681	0.11
1075.096	0.11
1075.51	0.11
1075.925	0.11
1076.339	0.11
1076.754	0.11
1077.168	0.11
1077.583	0.11
1077.997	0.11
1078.412	0.11
1078.826	0.11
1079.24	0.12
1079.655	0.12
1080.069	0.12
1080.483	0.12
1080.897	0.12
1081.312	0.12
1081.726	0.12
1082.14	0.12
1082.554	0.12
1082.968	0.12
1083.382	0.13
1083.796	0.13
1084.21	0.13
1084.624	0.13
1085.038	0.13
1085.452	0.14
1085.866	0.14
1086.28	0.14
1086.694	0.14
1087.108	0.14
1087.521	0.14
1087.935	0.15
1088.349	0.15
1088.763	0.15
1089.176	0.15
1089.59	0.16
1090.004	0.16
1090.417	0.16
1090.831	0.17
1091.244	0.17
1091.658	0.18
1092.071	0.18
1092.485	0.19
1092.898	0.19
1093.312	0.2
1093.725	0.2
1094.138	0.21
1094.552	0.22
1094.965	0.22
1095.378	0.23
1095.791	0.24
1096.205	0.25
1096.618	0.26
1097.031	0.26
1097.444	0.27
1097.857	0.28
1098.27	0.3
1098.683	0.31
1099.096	0.32
1099.509	0.34
1099.922	0.35
1100.335	0.37
1100.748	0.39
1101.161	0.41
1101.574	0.43
1101.986	0.46
1102.399	0.49
1102.812	0.53
1103.225	0.57
1103.637	0.62
1104.05	0.67
1104.463	0.74
1104.875	0.82
1105.288	0.93
1105.7	1.07
1106.113	1.32
1106.525	2.09
1106.938	-0
1107.35	-0
1107.763	-0
1108.175	-0
1108.588	-0
1109	-0
1109.412	-0
1109.824	-0
1110.237	-0
1110.649	-0
1111.061	-0
