Data from 2024-02-06-100ns-20nr-25nacl-100h2o-7bp2-1_8a808-40to10hyt-0_5cpm_Absorbance__56__00445.txt Node

Date: Tue Feb 06 15:52:20 CET 2024
User: Laser008
Spectrometer: MAYP115816
Trigger mode: 0
Integration Time (sec): 2.000000E-1
Scans to average: 10
Electric dark correction enabled: true
Nonlinearity correction enabled: true
Boxcar width: 5
XAxis mode: Wavelengths
Number of Pixels in Spectrum: 2068
>>>>>Begin Spectral Data<<<<<
198.914	-0.26
199.384	-0.22
199.855	-0.17
200.325	-0.14
200.796	-0.11
201.266	-0.1
201.737	-0.09
202.207	-0.08
202.677	-0.08
203.147	-0.07
203.618	-0.06
204.088	-0.05
204.558	-0.05
205.028	-0.04
205.498	-0.04
205.968	-0.04
206.439	-0.05
206.909	-0.04
207.379	-0.04
207.849	-0.04
208.319	-0.04
208.789	-0.04
209.258	-0.05
209.728	-0.04
210.198	-0.04
210.668	-0.05
211.138	-0.05
211.608	-0.05
212.077	-0.05
212.547	-0.05
213.017	-0.05
213.486	-0.05
213.956	-0.05
214.426	-0.05
214.895	-0.04
215.365	-0.05
215.834	-0.04
216.304	-0.04
216.773	-0.04
217.243	-0.04
217.712	-0.04
218.181	-0.04
218.651	-0.03
219.12	-0.03
219.589	-0.03
220.058	-0.03
220.528	-0.03
220.997	-0.02
221.466	-0.02
221.935	-0.02
222.404	-0.01
222.873	-0.01
223.342	-0.01
223.812	-0.01
224.281	-0
224.749	-0
225.218	0
225.687	0.01
226.156	0.02
226.625	0.02
227.094	0.03
227.563	0.04
228.031	0.04
228.5	0.06
228.969	0.07
229.438	0.08
229.906	0.1
230.375	0.12
230.844	0.13
231.312	0.15
231.781	0.17
232.249	0.18
232.718	0.2
233.186	0.22
233.655	0.23
234.123	0.25
234.591	0.26
235.06	0.27
235.528	0.29
235.996	0.3
236.465	0.3
236.933	0.31
237.401	0.32
237.869	0.33
238.337	0.33
238.805	0.33
239.274	0.34
239.742	0.34
240.21	0.34
240.678	0.35
241.146	0.35
241.614	0.35
242.081	0.35
242.549	0.35
243.017	0.36
243.485	0.36
243.953	0.36
244.421	0.36
244.888	0.36
245.356	0.36
245.824	0.37
246.291	0.37
246.759	0.37
247.227	0.37
247.694	0.37
248.162	0.37
248.629	0.38
249.097	0.38
249.564	0.38
250.032	0.38
250.499	0.38
250.967	0.38
251.434	0.39
251.901	0.39
252.369	0.39
252.836	0.39
253.303	0.39
253.77	0.39
254.237	0.39
254.705	0.4
255.172	0.4
255.639	0.4
256.106	0.4
256.573	0.4
257.04	0.4
257.507	0.4
257.974	0.4
258.441	0.4
258.908	0.4
259.375	0.4
259.841	0.4
260.308	0.4
260.775	0.4
261.242	0.4
261.709	0.4
262.175	0.4
262.642	0.4
263.109	0.4
263.575	0.4
264.042	0.4
264.508	0.4
264.975	0.4
265.441	0.4
265.908	0.4
266.374	0.39
266.841	0.39
267.307	0.39
267.773	0.39
268.24	0.39
268.706	0.39
269.172	0.39
269.639	0.38
270.105	0.38
270.571	0.38
271.037	0.38
271.503	0.38
271.969	0.37
272.435	0.37
272.902	0.37
273.368	0.37
273.834	0.37
274.3	0.37
274.765	0.36
275.231	0.36
275.697	0.36
276.163	0.36
276.629	0.35
277.095	0.35
277.56	0.35
278.026	0.35
278.492	0.35
278.958	0.34
279.423	0.34
279.889	0.34
280.354	0.33
280.82	0.33
281.286	0.33
281.751	0.33
282.217	0.32
282.682	0.32
283.147	0.32
283.613	0.32
284.078	0.32
284.544	0.31
285.009	0.31
285.474	0.31
285.939	0.31
286.405	0.31
286.87	0.3
287.335	0.3
287.8	0.3
288.265	0.3
288.73	0.3
289.195	0.3
289.66	0.29
290.125	0.29
290.59	0.29
291.055	0.29
291.52	0.29
291.985	0.29
292.45	0.29
292.915	0.28
293.38	0.28
293.844	0.28
294.309	0.28
294.774	0.28
295.239	0.28
295.703	0.28
296.168	0.28
296.632	0.28
297.097	0.28
297.562	0.28
298.026	0.27
298.491	0.27
298.955	0.27
299.419	0.27
299.884	0.27
300.348	0.27
300.813	0.27
301.277	0.27
301.741	0.27
302.205	0.27
302.67	0.27
303.134	0.27
303.598	0.27
304.062	0.27
304.526	0.27
304.99	0.27
305.454	0.27
305.919	0.26
306.383	0.26
306.847	0.26
307.31	0.26
307.774	0.26
308.238	0.26
308.702	0.26
309.166	0.26
309.63	0.26
310.094	0.26
310.557	0.26
311.021	0.26
311.485	0.26
311.948	0.26
312.412	0.26
312.876	0.26
313.339	0.26
313.803	0.26
314.266	0.26
314.73	0.25
315.193	0.25
315.657	0.25
316.12	0.25
316.584	0.25
317.047	0.25
317.51	0.25
317.973	0.25
318.437	0.25
318.9	0.25
319.363	0.25
319.826	0.25
320.29	0.25
320.753	0.25
321.216	0.25
321.679	0.25
322.142	0.25
322.605	0.25
323.068	0.25
323.531	0.25
323.994	0.25
324.457	0.25
324.92	0.24
325.382	0.24
325.845	0.24
326.308	0.24
326.771	0.24
327.233	0.24
327.696	0.24
328.159	0.24
328.622	0.24
329.084	0.24
329.547	0.24
330.009	0.24
330.472	0.24
330.934	0.24
331.397	0.24
331.859	0.24
332.322	0.24
332.784	0.24
333.246	0.24
333.709	0.24
334.171	0.24
334.633	0.24
335.096	0.23
335.558	0.23
336.02	0.23
336.482	0.23
336.944	0.23
337.406	0.23
337.868	0.23
338.331	0.23
338.793	0.23
339.255	0.23
339.717	0.23
340.178	0.23
340.64	0.23
341.102	0.23
341.564	0.23
342.026	0.23
342.488	0.23
342.949	0.23
343.411	0.23
343.873	0.23
344.335	0.23
344.796	0.23
345.258	0.23
345.719	0.23
346.181	0.23
346.643	0.23
347.104	0.23
347.566	0.23
348.027	0.23
348.488	0.22
348.95	0.22
349.411	0.22
349.873	0.22
350.334	0.22
350.795	0.22
351.256	0.22
351.718	0.22
352.179	0.22
352.64	0.22
353.101	0.22
353.562	0.22
354.023	0.22
354.484	0.22
354.945	0.22
355.406	0.22
355.867	0.22
356.328	0.22
356.789	0.22
357.25	0.22
357.711	0.22
358.172	0.22
358.633	0.22
359.093	0.22
359.554	0.22
360.015	0.22
360.476	0.22
360.936	0.22
361.397	0.22
361.858	0.22
362.318	0.22
362.779	0.22
363.239	0.22
363.7	0.22
364.16	0.22
364.621	0.22
365.081	0.22
365.541	0.22
366.002	0.22
366.462	0.22
366.922	0.22
367.383	0.22
367.843	0.22
368.303	0.22
368.763	0.22
369.223	0.22
369.684	0.22
370.144	0.22
370.604	0.22
371.064	0.22
371.524	0.22
371.984	0.22
372.444	0.22
372.904	0.22
373.363	0.22
373.823	0.22
374.283	0.22
374.743	0.22
375.203	0.22
375.663	0.22
376.122	0.22
376.582	0.22
377.042	0.22
377.501	0.22
377.961	0.22
378.42	0.22
378.88	0.22
379.34	0.22
379.799	0.22
380.259	0.22
380.718	0.22
381.177	0.22
381.637	0.21
382.096	0.21
382.555	0.21
383.015	0.21
383.474	0.21
383.933	0.21
384.393	0.21
384.852	0.21
385.311	0.21
385.77	0.21
386.229	0.21
386.688	0.21
387.147	0.21
387.606	0.21
388.065	0.21
388.524	0.21
388.983	0.21
389.442	0.21
389.901	0.21
390.36	0.21
390.819	0.21
391.277	0.21
391.736	0.21
392.195	0.21
392.654	0.21
393.112	0.21
393.571	0.21
394.03	0.21
394.488	0.21
394.947	0.21
395.405	0.21
395.864	0.21
396.322	0.21
396.781	0.21
397.239	0.21
397.698	0.21
398.156	0.21
398.614	0.21
399.073	0.21
399.531	0.21
399.989	0.21
400.447	0.21
400.905	0.21
401.364	0.21
401.822	0.21
402.28	0.21
402.738	0.21
403.196	0.21
403.654	0.2
404.112	0.2
404.57	0.2
405.028	0.2
405.486	0.2
405.944	0.2
406.402	0.2
406.859	0.2
407.317	0.2
407.775	0.2
408.233	0.2
408.691	0.2
409.148	0.2
409.606	0.2
410.064	0.2
410.521	0.2
410.979	0.2
411.436	0.2
411.894	0.2
412.351	0.2
412.809	0.2
413.266	0.2
413.724	0.2
414.181	0.2
414.638	0.2
415.096	0.2
415.553	0.2
416.01	0.2
416.467	0.2
416.925	0.2
417.382	0.2
417.839	0.2
418.296	0.2
418.753	0.2
419.21	0.2
419.667	0.2
420.124	0.2
420.581	0.2
421.038	0.2
421.495	0.2
421.952	0.2
422.409	0.2
422.866	0.2
423.322	0.2
423.779	0.2
424.236	0.19
424.693	0.19
425.149	0.19
425.606	0.19
426.063	0.19
426.519	0.19
426.976	0.19
427.433	0.19
427.889	0.19
428.346	0.19
428.802	0.19
429.258	0.19
429.715	0.19
430.171	0.19
430.628	0.19
431.084	0.19
431.54	0.19
431.997	0.19
432.453	0.19
432.909	0.19
433.365	0.19
433.821	0.19
434.277	0.19
434.734	0.19
435.19	0.19
435.646	0.19
436.102	0.19
436.558	0.19
437.014	0.19
437.47	0.19
437.925	0.19
438.381	0.19
438.837	0.19
439.293	0.19
439.749	0.19
440.205	0.19
440.66	0.19
441.116	0.19
441.572	0.19
442.027	0.19
442.483	0.19
442.939	0.19
443.394	0.19
443.85	0.19
444.305	0.19
444.761	0.19
445.216	0.19
445.672	0.19
446.127	0.19
446.582	0.19
447.038	0.18
447.493	0.19
447.948	0.18
448.403	0.18
448.859	0.18
449.314	0.18
449.769	0.18
450.224	0.18
450.679	0.18
451.134	0.18
451.589	0.18
452.044	0.18
452.499	0.18
452.954	0.18
453.409	0.18
453.864	0.18
454.319	0.18
454.774	0.18
455.229	0.18
455.684	0.18
456.138	0.18
456.593	0.18
457.048	0.18
457.503	0.18
457.957	0.18
458.412	0.18
458.866	0.18
459.321	0.18
459.776	0.18
460.23	0.18
460.685	0.18
461.139	0.18
461.593	0.18
462.048	0.18
462.502	0.18
462.957	0.18
463.411	0.18
463.865	0.18
464.319	0.18
464.774	0.18
465.228	0.18
465.682	0.18
466.136	0.18
466.59	0.18
467.044	0.18
467.499	0.18
467.953	0.18
468.407	0.18
468.861	0.18
469.315	0.18
469.768	0.18
470.222	0.18
470.676	0.18
471.13	0.18
471.584	0.18
472.038	0.18
472.491	0.18
472.945	0.18
473.399	0.18
473.852	0.18
474.306	0.18
474.76	0.18
475.213	0.18
475.667	0.18
476.12	0.18
476.574	0.18
477.027	0.18
477.481	0.18
477.934	0.18
478.388	0.18
478.841	0.18
479.294	0.18
479.748	0.18
480.201	0.19
480.654	0.19
481.107	0.19
481.561	0.19
482.014	0.19
482.467	0.19
482.92	0.19
483.373	0.19
483.826	0.19
484.279	0.19
484.732	0.19
485.185	0.19
485.638	0.19
486.091	0.19
486.544	0.19
486.997	0.19
487.449	0.19
487.902	0.19
488.355	0.19
488.808	0.19
489.26	0.2
489.713	0.2
490.166	0.2
490.618	0.2
491.071	0.2
491.523	0.2
491.976	0.2
492.429	0.2
492.881	0.2
493.333	0.2
493.786	0.2
494.238	0.21
494.691	0.21
495.143	0.21
495.595	0.21
496.048	0.21
496.5	0.21
496.952	0.21
497.404	0.21
497.856	0.21
498.309	0.21
498.761	0.22
499.213	0.22
499.665	0.22
500.117	0.22
500.569	0.22
501.021	0.22
501.473	0.22
501.925	0.23
502.377	0.23
502.828	0.23
503.28	0.23
503.732	0.23
504.184	0.23
504.636	0.23
505.087	0.23
505.539	0.24
505.991	0.24
506.442	0.24
506.894	0.24
507.345	0.24
507.797	0.24
508.249	0.24
508.7	0.24
509.151	0.25
509.603	0.25
510.054	0.25
510.506	0.25
510.957	0.25
511.408	0.25
511.86	0.25
512.311	0.25
512.762	0.26
513.213	0.26
513.665	0.26
514.116	0.26
514.567	0.26
515.018	0.26
515.469	0.26
515.92	0.26
516.371	0.26
516.822	0.27
517.273	0.27
517.724	0.27
518.175	0.27
518.626	0.27
519.076	0.27
519.527	0.27
519.978	0.27
520.429	0.27
520.88	0.27
521.33	0.27
521.781	0.28
522.232	0.28
522.682	0.28
523.133	0.28
523.583	0.28
524.034	0.28
524.484	0.28
524.935	0.28
525.385	0.28
525.836	0.28
526.286	0.28
526.736	0.28
527.187	0.28
527.637	0.29
528.087	0.29
528.538	0.29
528.988	0.29
529.438	0.29
529.888	0.29
530.338	0.29
530.788	0.29
531.238	0.29
531.688	0.29
532.139	0.29
532.589	0.29
533.038	0.29
533.488	0.29
533.938	0.29
534.388	0.29
534.838	0.29
535.288	0.29
535.738	0.29
536.187	0.29
536.637	0.29
537.087	0.29
537.537	0.29
537.986	0.29
538.436	0.29
538.885	0.29
539.335	0.29
539.785	0.29
540.234	0.3
540.684	0.3
541.133	0.3
541.582	0.3
542.032	0.3
542.481	0.3
542.931	0.3
543.38	0.3
543.829	0.3
544.278	0.3
544.728	0.3
545.177	0.3
545.626	0.3
546.075	0.3
546.524	0.3
546.973	0.3
547.422	0.3
547.871	0.3
548.32	0.3
548.769	0.3
549.218	0.3
549.667	0.3
550.116	0.3
550.565	0.3
551.014	0.3
551.463	0.3
551.911	0.29
552.36	0.29
552.809	0.29
553.258	0.29
553.706	0.29
554.155	0.29
554.603	0.29
555.052	0.29
555.501	0.29
555.949	0.29
556.398	0.29
556.846	0.29
557.294	0.29
557.743	0.29
558.191	0.29
558.64	0.29
559.088	0.29
559.536	0.29
559.985	0.29
560.433	0.29
560.881	0.29
561.329	0.29
561.777	0.29
562.225	0.29
562.674	0.29
563.122	0.29
563.57	0.29
564.018	0.29
564.466	0.29
564.914	0.29
565.362	0.28
565.809	0.28
566.257	0.28
566.705	0.28
567.153	0.28
567.601	0.28
568.048	0.28
568.496	0.28
568.944	0.28
569.392	0.28
569.839	0.28
570.287	0.28
570.734	0.28
571.182	0.28
571.63	0.28
572.077	0.28
572.525	0.27
572.972	0.27
573.419	0.27
573.867	0.27
574.314	0.27
574.761	0.27
575.209	0.27
575.656	0.27
576.103	0.27
576.551	0.27
576.998	0.27
577.445	0.27
577.892	0.27
578.339	0.27
578.786	0.27
579.233	0.26
579.68	0.26
580.127	0.26
580.574	0.26
581.021	0.26
581.468	0.26
581.915	0.26
582.362	0.26
582.809	0.26
583.255	0.25
583.702	0.25
584.149	0.25
584.596	0.25
585.042	0.25
585.489	0.25
585.936	0.25
586.382	0.25
586.829	0.24
587.275	0.24
587.722	0.24
588.168	0.24
588.615	0.24
589.061	0.24
589.508	0.24
589.954	0.24
590.4	0.24
590.847	0.23
591.293	0.23
591.739	0.23
592.185	0.23
592.632	0.23
593.078	0.23
593.524	0.23
593.97	0.23
594.416	0.22
594.862	0.22
595.308	0.22
595.754	0.22
596.2	0.22
596.646	0.22
597.092	0.22
597.538	0.22
597.984	0.21
598.43	0.21
598.876	0.21
599.321	0.21
599.767	0.21
600.213	0.21
600.659	0.21
601.104	0.21
601.55	0.21
601.995	0.21
602.441	0.21
602.887	0.21
603.332	0.2
603.778	0.2
604.223	0.2
604.668	0.2
605.114	0.2
605.559	0.2
606.005	0.2
606.45	0.2
606.895	0.2
607.341	0.2
607.786	0.19
608.231	0.19
608.676	0.19
609.121	0.19
609.566	0.19
610.012	0.19
610.457	0.19
610.902	0.19
611.347	0.19
611.792	0.19
612.237	0.19
612.682	0.19
613.127	0.19
613.571	0.18
614.016	0.18
614.461	0.18
614.906	0.18
615.351	0.18
615.795	0.18
616.24	0.18
616.685	0.18
617.129	0.18
617.574	0.18
618.019	0.18
618.463	0.17
618.908	0.17
619.352	0.17
619.797	0.17
620.241	0.17
620.686	0.17
621.13	0.17
621.574	0.17
622.019	0.17
622.463	0.17
622.907	0.17
623.352	0.17
623.796	0.17
624.24	0.17
624.684	0.17
625.128	0.17
625.572	0.17
626.016	0.17
626.461	0.17
626.905	0.17
627.349	0.17
627.793	0.17
628.236	0.17
628.68	0.16
629.124	0.16
629.568	0.16
630.012	0.16
630.456	0.16
630.9	0.16
631.343	0.16
631.787	0.16
632.231	0.16
632.674	0.16
633.118	0.16
633.562	0.17
634.005	0.17
634.449	0.17
634.892	0.17
635.336	0.17
635.779	0.17
636.223	0.17
636.666	0.17
637.109	0.17
637.553	0.17
637.996	0.17
638.439	0.17
638.883	0.17
639.326	0.17
639.769	0.17
640.212	0.17
640.655	0.18
641.099	0.18
641.542	0.18
641.985	0.18
642.428	0.18
642.871	0.18
643.314	0.18
643.757	0.18
644.2	0.18
644.643	0.18
645.085	0.19
645.528	0.19
645.971	0.19
646.414	0.19
646.857	0.19
647.299	0.19
647.742	0.2
648.185	0.2
648.627	0.2
649.07	0.2
649.513	0.2
649.955	0.2
650.398	0.21
650.84	0.21
651.283	0.21
651.725	0.21
652.168	0.21
652.61	0.22
653.052	0.22
653.495	0.22
653.937	0.17
654.379	0.14
654.821	0.14
655.264	0.14
655.706	0.14
656.148	0.15
656.59	0.15
657.032	0.15
657.474	0.15
657.916	0.15
658.358	0.14
658.8	0.18
659.242	0.24
659.684	0.25
660.126	0.25
660.568	0.25
661.01	0.25
661.452	0.26
661.894	0.26
662.335	0.26
662.777	0.27
663.219	0.27
663.661	0.27
664.102	0.27
664.544	0.28
664.985	0.28
665.427	0.28
665.869	0.28
666.31	0.29
666.752	0.29
667.193	0.29
667.634	0.29
668.076	0.29
668.517	0.3
668.959	0.3
669.4	0.3
669.841	0.3
670.282	0.3
670.724	0.31
671.165	0.31
671.606	0.31
672.047	0.31
672.488	0.31
672.929	0.31
673.37	0.31
673.811	0.32
674.252	0.32
674.693	0.32
675.134	0.32
675.575	0.32
676.016	0.32
676.457	0.32
676.898	0.33
677.339	0.33
677.78	0.33
678.22	0.33
678.661	0.33
679.102	0.33
679.542	0.34
679.983	0.34
680.424	0.34
680.864	0.34
681.305	0.34
681.745	0.34
682.186	0.34
682.626	0.34
683.067	0.35
683.507	0.35
683.948	0.35
684.388	0.35
684.828	0.35
685.269	0.35
685.709	0.35
686.149	0.35
686.589	0.35
687.029	0.35
687.47	0.35
687.91	0.35
688.35	0.35
688.79	0.35
689.23	0.35
689.67	0.35
690.11	0.35
690.55	0.35
690.99	0.35
691.43	0.35
691.87	0.35
692.31	0.35
692.749	0.35
693.189	0.35
693.629	0.35
694.069	0.35
694.508	0.35
694.948	0.35
695.388	0.35
695.827	0.35
696.267	0.35
696.706	0.35
697.146	0.34
697.586	0.34
698.025	0.34
698.464	0.34
698.904	0.34
699.343	0.34
699.783	0.34
700.222	0.34
700.661	0.34
701.101	0.34
701.54	0.34
701.979	0.34
702.418	0.34
702.857	0.34
703.297	0.34
703.736	0.33
704.175	0.33
704.614	0.33
705.053	0.33
705.492	0.33
705.931	0.33
706.37	0.33
706.809	0.33
707.248	0.33
707.687	0.32
708.125	0.32
708.564	0.32
709.003	0.32
709.442	0.32
709.88	0.32
710.319	0.32
710.758	0.32
711.196	0.31
711.635	0.31
712.074	0.31
712.512	0.31
712.951	0.31
713.389	0.31
713.828	0.31
714.266	0.3
714.705	0.3
715.143	0.3
715.581	0.3
716.02	0.3
716.458	0.3
716.896	0.29
717.334	0.29
717.773	0.29
718.211	0.29
718.649	0.29
719.087	0.29
719.525	0.28
719.963	0.28
720.401	0.28
720.839	0.28
721.277	0.28
721.715	0.28
722.153	0.28
722.591	0.28
723.029	0.28
723.467	0.27
723.905	0.27
724.342	0.27
724.78	0.27
725.218	0.27
725.656	0.27
726.093	0.27
726.531	0.27
726.969	0.26
727.406	0.26
727.844	0.26
728.281	0.26
728.719	0.26
729.156	0.26
729.594	0.26
730.031	0.26
730.469	0.26
730.906	0.25
731.343	0.25
731.781	0.25
732.218	0.25
732.655	0.25
733.092	0.25
733.53	0.25
733.967	0.24
734.404	0.24
734.841	0.24
735.278	0.24
735.715	0.24
736.152	0.24
736.589	0.23
737.026	0.23
737.463	0.23
737.9	0.23
738.337	0.23
738.774	0.23
739.211	0.22
739.647	0.22
740.084	0.22
740.521	0.22
740.958	0.22
741.394	0.22
741.831	0.22
742.268	0.22
742.704	0.21
743.141	0.21
743.577	0.21
744.014	0.21
744.45	0.21
744.887	0.21
745.323	0.21
745.76	0.21
746.196	0.2
746.632	0.2
747.069	0.2
747.505	0.2
747.941	0.2
748.378	0.2
748.814	0.2
749.25	0.19
749.686	0.19
750.122	0.19
750.558	0.19
750.994	0.19
751.43	0.19
751.866	0.18
752.302	0.18
752.738	0.18
753.174	0.18
753.61	0.18
754.046	0.17
754.482	0.17
754.918	0.17
755.354	0.17
755.789	0.17
756.225	0.17
756.661	0.17
757.096	0.16
757.532	0.16
757.968	0.16
758.403	0.16
758.839	0.16
759.274	0.16
759.71	0.16
760.145	0.16
760.581	0.15
761.016	0.15
761.452	0.15
761.887	0.15
762.322	0.15
762.758	0.14
763.193	0.14
763.628	0.14
764.063	0.14
764.499	0.13
764.934	0.13
765.369	0.13
765.804	0.13
766.239	0.12
766.674	0.12
767.109	0.12
767.544	0.11
767.979	0.11
768.414	0.11
768.849	0.11
769.284	0.1
769.719	0.1
770.154	0.1
770.588	0.1
771.023	0.09
771.458	0.09
771.893	0.08
772.327	0.08
772.762	0.08
773.197	0.07
773.631	0.07
774.066	0.06
774.5	0.05
774.935	0.05
775.369	0.04
775.804	0.04
776.238	0.03
776.673	0.03
777.107	0.02
777.541	0.02
777.976	0.01
778.41	0.01
778.844	0
779.279	-0
779.713	-0.01
780.147	-0.01
780.581	-0.02
781.015	-0.02
781.449	-0.03
781.883	-0.04
782.317	-0.04
782.751	-0.05
783.185	-0.06
783.619	-0.06
784.053	-0.07
784.487	-0.08
784.921	-0.09
785.355	-0.1
785.789	-0.1
786.223	-0.11
786.656	-0.11
787.09	-0.11
787.524	-0.11
787.957	-0.12
788.391	-0.12
788.825	-0.13
789.258	-0.13
789.692	-0.13
790.125	-0.13
790.559	-0.13
790.992	-0.13
791.426	-0.13
791.859	-0.13
792.293	-0.12
792.726	-0.11
793.159	-0.1
793.593	-0.1
794.026	-0.1
794.459	-0.11
794.892	-0.11
795.326	-0.11
795.759	-0.11
796.192	-0.11
796.625	-0.12
797.058	-0.13
797.491	-0.14
797.924	-0.15
798.357	-0.15
798.79	-0.15
799.223	-0.15
799.656	-0.15
800.089	-0.15
800.522	-0.15
800.955	-0.16
801.387	-0.15
801.82	-0.16
802.253	-0.16
802.686	-0.16
803.118	-0.16
803.551	-0.16
803.984	-0.15
804.416	-0.15
804.849	-0.14
805.281	-0.14
805.714	-0.14
806.146	-0.14
806.579	-0.13
807.011	-0.13
807.444	-0.13
807.876	-0.13
808.308	-0.13
808.741	-0.14
809.173	-0.14
809.605	-0.15
810.037	-0.15
810.47	-0.15
810.902	-0.16
811.334	-0.16
811.766	-0.16
812.198	-0.15
812.63	-0.15
813.062	-0.16
813.494	-0.16
813.926	-0.16
814.358	-0.16
814.79	-0.16
815.222	-0.15
815.654	-0.15
816.086	-0.14
816.518	-0.14
816.949	-0.14
817.381	-0.14
817.813	-0.13
818.245	-0.12
818.676	-0.11
819.108	-0.1
819.54	-0.09
819.971	-0.08
820.403	-0.07
820.834	-0.06
821.266	-0.05
821.697	-0.05
822.129	-0.04
822.56	-0.03
822.991	-0.03
823.423	-0.02
823.854	-0.02
824.286	-0.01
824.717	-0.01
825.148	-0
825.579	0
826.01	0.01
826.442	0.01
826.873	0.01
827.304	0.02
827.735	0.02
828.166	0.02
828.597	0.02
829.028	0.03
829.459	0.03
829.89	0.03
830.321	0.03
830.752	0.03
831.183	0.03
831.613	0.04
832.044	0.04
832.475	0.04
832.906	0.04
833.336	0.04
833.767	0.04
834.198	0.04
834.628	0.04
835.059	0.04
835.49	0.04
835.92	0.04
836.351	0.04
836.781	0.04
837.212	0.05
837.642	0.05
838.072	0.05
838.503	0.05
838.933	0.05
839.364	0.05
839.794	0.05
840.224	0.05
840.654	0.05
841.085	0.05
841.515	0.05
841.945	0.05
842.375	0.05
842.805	0.05
843.235	0.05
843.665	0.05
844.095	0.05
844.525	0.05
844.955	0.05
845.385	0.05
845.815	0.05
846.245	0.04
846.675	0.04
847.105	0.04
847.534	0.04
847.964	0.04
848.394	0.04
848.824	0.04
849.253	0.04
849.683	0.04
850.112	0.04
850.542	0.04
850.972	0.04
851.401	0.04
851.831	0.04
852.26	0.04
852.69	0.04
853.119	0.04
853.548	0.04
853.978	0.04
854.407	0.05
854.836	0.05
855.266	0.05
855.695	0.05
856.124	0.05
856.553	0.05
856.983	0.05
857.412	0.05
857.841	0.05
858.27	0.05
858.699	0.05
859.128	0.05
859.557	0.05
859.986	0.05
860.415	0.05
860.844	0.05
861.273	0.05
861.702	0.05
862.13	0.05
862.559	0.05
862.988	0.05
863.417	0.05
863.845	0.05
864.274	0.04
864.703	0.04
865.131	0.04
865.56	0.04
865.989	0.04
866.417	0.04
866.846	0.04
867.274	0.04
867.703	0.04
868.131	0.04
868.559	0.04
868.988	0.04
869.416	0.04
869.844	0.04
870.273	0.04
870.701	0.04
871.129	0.04
871.557	0.04
871.986	0.04
872.414	0.04
872.842	0.04
873.27	0.04
873.698	0.03
874.126	0.03
874.554	0.03
874.982	0.03
875.41	0.03
875.838	0.03
876.266	0.03
876.694	0.03
877.122	0.03
877.549	0.03
877.977	0.03
878.405	0.03
878.833	0.03
879.26	0.03
879.688	0.03
880.116	0.03
880.543	0.03
880.971	0.03
881.399	0.03
881.826	0.03
882.254	0.03
882.681	0.03
883.109	0.03
883.536	0.03
883.963	0.03
884.391	0.03
884.818	0.03
885.245	0.03
885.673	0.03
886.1	0.03
886.527	0.03
886.954	0.03
887.381	0.03
887.809	0.03
888.236	0.03
888.663	0.03
889.09	0.03
889.517	0.03
889.944	0.03
890.371	0.03
890.798	0.03
891.225	0.03
891.652	0.03
892.078	0.03
892.505	0.03
892.932	0.03
893.359	0.03
893.786	0.03
894.212	0.03
894.639	0.03
895.066	0.03
895.492	0.03
895.919	0.03
896.346	0.03
896.772	0.03
897.199	0.03
897.625	0.03
898.052	0.02
898.478	0.02
898.904	0.02
899.331	0.02
899.757	0.02
900.183	0.02
900.61	0.02
901.036	0.02
901.462	0.02
901.888	0.02
902.315	0.02
902.741	0.02
903.167	0.02
903.593	0.02
904.019	0.02
904.445	0.02
904.871	0.02
905.297	0.02
905.723	0.02
906.149	0.02
906.575	0.02
907.001	0.02
907.427	0.02
907.852	0.03
908.278	0.03
908.704	0.03
909.13	0.03
909.555	0.03
909.981	0.03
910.407	0.03
910.832	0.03
911.258	0.03
911.684	0.03
912.109	0.03
912.535	0.03
912.96	0.03
913.386	0.03
913.811	0.03
914.236	0.03
914.662	0.03
915.087	0.03
915.512	0.03
915.938	0.03
916.363	0.03
916.788	0.03
917.213	0.03
917.639	0.03
918.064	0.03
918.489	0.03
918.914	0.03
919.339	0.03
919.764	0.03
920.189	0.03
920.614	0.03
921.039	0.03
921.464	0.03
921.889	0.03
922.314	0.03
922.738	0.03
923.163	0.03
923.588	0.03
924.013	0.03
924.437	0.03
924.862	0.03
925.287	0.03
925.711	0.03
926.136	0.03
926.561	0.02
926.985	0.02
927.41	0.02
927.834	0.02
928.259	0.02
928.683	0.02
929.108	0.02
929.532	0.02
929.956	0.02
930.381	0.02
930.805	0.02
931.229	0.02
931.653	0.02
932.078	0.02
932.502	0.01
932.926	0.01
933.35	0.01
933.774	0.01
934.198	0.01
934.622	0.01
935.046	0.01
935.47	0.01
935.894	0.01
936.318	0.01
936.742	0.01
937.166	0.01
937.59	0.01
938.014	0.01
938.437	0.01
938.861	0.01
939.285	0.01
939.709	0.01
940.132	0.01
940.556	0.01
940.98	0.01
941.403	0.01
941.827	0.01
942.25	0.01
942.674	0.01
943.097	0.01
943.521	0.01
943.944	0.01
944.368	0.01
944.791	0.01
945.214	0.02
945.638	0.02
946.061	0.02
946.484	0.02
946.907	0.02
947.331	0.02
947.754	0.02
948.177	0.02
948.6	0.02
949.023	0.02
949.446	0.02
949.869	0.02
950.292	0.02
950.715	0.02
951.138	0.02
951.561	0.02
951.984	0.02
952.407	0.02
952.83	0.01
953.252	0.01
953.675	0.01
954.098	0.01
954.521	0.01
954.943	0.01
955.366	0.01
955.789	0.01
956.211	0.01
956.634	0.01
957.056	0.01
957.479	0.01
957.902	0.01
958.324	0.01
958.746	0.01
959.169	0.01
959.591	0.01
960.014	0.01
960.436	0.01
960.858	0.01
961.281	0.01
961.703	0.01
962.125	0.01
962.547	0.01
962.969	0.01
963.391	0.01
963.814	0.01
964.236	0.01
964.658	0.01
965.08	0.01
965.502	0.01
965.924	0.01
966.346	0.01
966.768	0.01
967.189	0.01
967.611	0.01
968.033	0.01
968.455	0.01
968.877	0.01
969.298	0.01
969.72	0.01
970.142	0.01
970.563	0.01
970.985	0.01
971.407	0.01
971.828	0.01
972.25	0.01
972.671	0.01
973.093	0.01
973.514	0.01
973.936	0.01
974.357	0.01
974.778	0.01
975.2	0.01
975.621	0.01
976.042	0.01
976.464	0.01
976.885	0.01
977.306	0.01
977.727	0.01
978.148	0.01
978.57	0.01
978.991	0.01
979.412	0.02
979.833	0.02
980.254	0.02
980.675	0.02
981.096	0.02
981.517	0.02
981.937	0.02
982.358	0.02
982.779	0.01
983.2	0.01
983.621	0.01
984.042	0.01
984.462	0.01
984.883	0.01
985.304	0.01
985.724	0.01
986.145	0.01
986.565	0.01
986.986	0.01
987.407	0.01
987.827	0.01
988.248	0.01
988.668	0.01
989.088	0.01
989.509	0.01
989.929	0.01
990.35	0.01
990.77	0.01
991.19	0.01
991.61	0.01
992.031	0.01
992.451	0.01
992.871	0.01
993.291	0.01
993.711	0.01
994.131	0.01
994.551	0.01
994.971	0.01
995.391	0.01
995.811	0.01
996.231	0.01
996.651	0.01
997.071	0.01
997.491	0.01
997.911	0.01
998.331	0.01
998.75	0.01
999.17	0.01
999.59	0.01
1000.009	0.01
1000.429	0.01
1000.849	0.01
1001.268	0.01
1001.688	0.01
1002.107	0.01
1002.527	0.01
1002.946	0.01
1003.366	0.01
1003.785	0.01
1004.205	0.01
1004.624	0.01
1005.044	0.01
1005.463	0.01
1005.882	0.01
1006.301	0.01
1006.721	0
1007.14	0
1007.559	0
1007.978	0
1008.397	0
1008.816	0
1009.235	-0
1009.655	-0
1010.074	-0
1010.492	-0
1010.911	-0
1011.33	-0
1011.749	-0
1012.168	-0
1012.587	-0
1013.006	-0
1013.425	-0
1013.843	-0
1014.262	-0
1014.681	-0
1015.099	-0
1015.518	-0
1015.937	-0
1016.355	-0
1016.774	-0
1017.192	-0
1017.611	0
1018.029	0
1018.448	0
1018.866	0
1019.285	0
1019.703	0
1020.121	0
1020.54	0
1020.958	0
1021.376	0
1021.794	0
1022.213	0
1022.631	0
1023.049	0
1023.467	0
1023.885	0
1024.303	0
1024.721	0
1025.139	0
1025.557	0
1025.975	0
1026.393	0
1026.811	0
1027.229	0
1027.647	0.01
1028.065	0.01
1028.482	0.01
1028.9	0.01
1029.318	0.01
1029.735	0.01
1030.153	0.01
1030.571	0.01
1030.988	0.01
1031.406	0.01
1031.823	0.01
1032.241	0.01
1032.659	0.01
1033.076	0.01
1033.493	0.01
1033.911	0.01
1034.328	0
1034.746	0
1035.163	0
1035.58	0
1035.997	0
1036.415	0
1036.832	0
1037.249	0
1037.666	0
1038.083	0
1038.501	0
1038.918	0
1039.335	0
1039.752	0
1040.169	0
1040.586	0
1041.003	0
1041.419	0
1041.836	-0
1042.253	-0
1042.67	-0
1043.087	-0
1043.504	-0
1043.92	-0
1044.337	-0
1044.754	-0
1045.17	-0
1045.587	-0
1046.004	-0
1046.42	-0
1046.837	-0
1047.253	-0
1047.67	-0
1048.086	-0
1048.503	0
1048.919	0
1049.335	0
1049.752	0
1050.168	0
1050.584	0
1051.001	0
1051.417	0
1051.833	0.01
1052.249	0.01
1052.665	0.01
1053.081	0.01
1053.497	0.01
1053.914	0.01
1054.33	0.01
1054.746	0.01
1055.162	0.01
1055.578	0.01
1055.993	0
1056.409	0
1056.825	0
1057.241	0
1057.657	0
1058.073	0
1058.488	0
1058.904	-0
1059.32	-0
1059.736	-0
1060.151	-0
1060.567	-0
1060.982	-0
1061.398	-0
1061.813	-0
1062.229	-0
1062.644	-0
1063.06	-0
1063.475	-0.01
1063.891	-0.01
1064.306	-0.01
1064.721	-0.01
1065.137	-0.01
1065.552	-0.01
1065.967	-0.01
1066.382	-0.01
1066.798	-0.01
1067.213	-0.01
1067.628	-0.01
1068.043	-0.01
1068.458	-0.01
1068.873	-0.01
1069.288	-0.01
1069.703	-0.01
1070.118	-0.01
1070.533	-0.01
1070.948	-0.01
1071.363	-0.01
1071.778	-0.01
1072.193	-0.01
1072.607	-0.01
1073.022	-0.01
1073.437	-0.01
1073.852	-0.01
1074.266	-0.01
1074.681	-0.01
1075.096	-0.01
1075.51	-0.01
1075.925	-0.01
1076.339	-0.01
1076.754	-0.01
1077.168	-0.01
1077.583	-0.01
1077.997	-0.01
1078.412	-0.01
1078.826	-0.01
1079.24	-0.01
1079.655	-0.01
1080.069	-0.01
1080.483	-0.01
1080.897	-0.01
1081.312	-0.01
1081.726	-0.01
1082.14	-0.01
1082.554	-0.01
1082.968	-0.01
1083.382	-0.01
1083.796	-0.01
1084.21	-0.01
1084.624	-0.01
1085.038	-0.01
1085.452	-0.01
1085.866	-0.01
1086.28	-0.01
1086.694	-0.01
1087.108	-0.01
1087.521	-0.01
1087.935	-0.01
1088.349	-0.02
1088.763	-0.02
1089.176	-0.02
1089.59	-0.02
1090.004	-0.02
1090.417	-0.02
1090.831	-0.02
1091.244	-0.02
1091.658	-0.02
1092.071	-0.02
1092.485	-0.02
1092.898	-0.02
1093.312	-0.02
1093.725	-0.02
1094.138	-0.02
1094.552	-0.02
1094.965	-0.02
1095.378	-0.02
1095.791	-0.02
1096.205	-0.03
1096.618	-0.03
1097.031	-0.03
1097.444	-0.03
1097.857	-0.03
1098.27	-0.03
1098.683	-0.03
1099.096	-0.03
1099.509	-0.03
1099.922	-0.03
1100.335	-0.03
1100.748	-0.03
1101.161	-0.03
1101.574	-0.03
1101.986	-0.03
1102.399	-0.04
1102.812	-0.04
1103.225	-0.04
1103.637	-0.04
1104.05	-0.04
1104.463	-0.04
1104.875	-0.04
1105.288	-0.04
1105.7	-0.04
1106.113	-0.05
1106.525	-0.05
1106.938	-0.05
1107.35	-0.05
1107.763	-0.05
1108.175	-0.05
1108.588	-0.05
1109	-0.05
1109.412	-0.05
1109.824	-0.06
1110.237	-0.06
1110.649	-0.06
1111.061	-0.06
