Data from 2024-02-06-100ns-20nr-25nacl-100h2o-7bp2-1_8a808-40to10hyt-0_5cpm_Absorbance__73__00462.txt Node

Date: Tue Feb 06 16:00:50 CET 2024
User: Laser008
Spectrometer: MAYP115816
Trigger mode: 0
Integration Time (sec): 2.000000E-1
Scans to average: 10
Electric dark correction enabled: true
Nonlinearity correction enabled: true
Boxcar width: 5
XAxis mode: Wavelengths
Number of Pixels in Spectrum: 2068
>>>>>Begin Spectral Data<<<<<
198.914	-0.24
199.384	-0.22
199.855	-0.17
200.325	-0.14
200.796	-0.12
201.266	-0.1
201.737	-0.1
202.207	-0.09
202.677	-0.08
203.147	-0.08
203.618	-0.07
204.088	-0.06
204.558	-0.06
205.028	-0.05
205.498	-0.05
205.968	-0.05
206.439	-0.05
206.909	-0.05
207.379	-0.05
207.849	-0.05
208.319	-0.05
208.789	-0.05
209.258	-0.05
209.728	-0.05
210.198	-0.05
210.668	-0.05
211.138	-0.06
211.608	-0.06
212.077	-0.06
212.547	-0.06
213.017	-0.06
213.486	-0.06
213.956	-0.06
214.426	-0.06
214.895	-0.06
215.365	-0.06
215.834	-0.06
216.304	-0.06
216.773	-0.05
217.243	-0.05
217.712	-0.05
218.181	-0.05
218.651	-0.05
219.12	-0.04
219.589	-0.04
220.058	-0.04
220.528	-0.04
220.997	-0.04
221.466	-0.04
221.935	-0.04
222.404	-0.04
222.873	-0.03
223.342	-0.03
223.812	-0.03
224.281	-0.03
224.749	-0.03
225.218	-0.02
225.687	-0.02
226.156	-0.01
226.625	-0
227.094	0
227.563	0.01
228.031	0.02
228.5	0.03
228.969	0.04
229.438	0.05
229.906	0.07
230.375	0.09
230.844	0.1
231.312	0.12
231.781	0.13
232.249	0.14
232.718	0.16
233.186	0.17
233.655	0.19
234.123	0.2
234.591	0.21
235.06	0.22
235.528	0.23
235.996	0.24
236.465	0.24
236.933	0.25
237.401	0.26
237.869	0.26
238.337	0.27
238.805	0.27
239.274	0.27
239.742	0.27
240.21	0.28
240.678	0.28
241.146	0.28
241.614	0.28
242.081	0.28
242.549	0.29
243.017	0.29
243.485	0.29
243.953	0.29
244.421	0.29
244.888	0.29
245.356	0.3
245.824	0.3
246.291	0.3
246.759	0.3
247.227	0.3
247.694	0.3
248.162	0.31
248.629	0.31
249.097	0.31
249.564	0.31
250.032	0.31
250.499	0.31
250.967	0.31
251.434	0.32
251.901	0.32
252.369	0.32
252.836	0.32
253.303	0.32
253.77	0.32
254.237	0.32
254.705	0.32
255.172	0.33
255.639	0.33
256.106	0.33
256.573	0.33
257.04	0.33
257.507	0.33
257.974	0.33
258.441	0.33
258.908	0.33
259.375	0.33
259.841	0.33
260.308	0.33
260.775	0.33
261.242	0.33
261.709	0.33
262.175	0.33
262.642	0.33
263.109	0.33
263.575	0.33
264.042	0.33
264.508	0.33
264.975	0.33
265.441	0.33
265.908	0.33
266.374	0.33
266.841	0.32
267.307	0.32
267.773	0.32
268.24	0.32
268.706	0.32
269.172	0.32
269.639	0.32
270.105	0.31
270.571	0.31
271.037	0.31
271.503	0.31
271.969	0.31
272.435	0.3
272.902	0.3
273.368	0.3
273.834	0.3
274.3	0.3
274.765	0.3
275.231	0.29
275.697	0.29
276.163	0.29
276.629	0.29
277.095	0.29
277.56	0.29
278.026	0.28
278.492	0.28
278.958	0.28
279.423	0.28
279.889	0.27
280.354	0.27
280.82	0.27
281.286	0.27
281.751	0.26
282.217	0.26
282.682	0.26
283.147	0.26
283.613	0.26
284.078	0.26
284.544	0.25
285.009	0.25
285.474	0.25
285.939	0.25
286.405	0.25
286.87	0.25
287.335	0.24
287.8	0.24
288.265	0.24
288.73	0.24
289.195	0.24
289.66	0.24
290.125	0.24
290.59	0.23
291.055	0.23
291.52	0.23
291.985	0.23
292.45	0.23
292.915	0.23
293.38	0.23
293.844	0.23
294.309	0.23
294.774	0.23
295.239	0.22
295.703	0.22
296.168	0.22
296.632	0.22
297.097	0.22
297.562	0.22
298.026	0.22
298.491	0.22
298.955	0.22
299.419	0.22
299.884	0.22
300.348	0.22
300.813	0.22
301.277	0.22
301.741	0.22
302.205	0.22
302.67	0.22
303.134	0.22
303.598	0.22
304.062	0.22
304.526	0.22
304.99	0.22
305.454	0.22
305.919	0.21
306.383	0.21
306.847	0.21
307.31	0.21
307.774	0.21
308.238	0.21
308.702	0.21
309.166	0.21
309.63	0.21
310.094	0.21
310.557	0.21
311.021	0.21
311.485	0.21
311.948	0.21
312.412	0.21
312.876	0.21
313.339	0.21
313.803	0.21
314.266	0.21
314.73	0.21
315.193	0.21
315.657	0.21
316.12	0.21
316.584	0.21
317.047	0.21
317.51	0.21
317.973	0.21
318.437	0.21
318.9	0.21
319.363	0.21
319.826	0.21
320.29	0.21
320.753	0.21
321.216	0.21
321.679	0.2
322.142	0.2
322.605	0.2
323.068	0.2
323.531	0.2
323.994	0.2
324.457	0.2
324.92	0.2
325.382	0.2
325.845	0.2
326.308	0.2
326.771	0.2
327.233	0.2
327.696	0.2
328.159	0.2
328.622	0.2
329.084	0.2
329.547	0.2
330.009	0.2
330.472	0.2
330.934	0.2
331.397	0.2
331.859	0.2
332.322	0.2
332.784	0.2
333.246	0.2
333.709	0.2
334.171	0.2
334.633	0.2
335.096	0.2
335.558	0.2
336.02	0.2
336.482	0.19
336.944	0.19
337.406	0.19
337.868	0.19
338.331	0.19
338.793	0.19
339.255	0.19
339.717	0.19
340.178	0.19
340.64	0.19
341.102	0.19
341.564	0.19
342.026	0.19
342.488	0.19
342.949	0.19
343.411	0.19
343.873	0.19
344.335	0.19
344.796	0.19
345.258	0.19
345.719	0.19
346.181	0.19
346.643	0.19
347.104	0.19
347.566	0.19
348.027	0.19
348.488	0.19
348.95	0.19
349.411	0.19
349.873	0.19
350.334	0.19
350.795	0.19
351.256	0.19
351.718	0.19
352.179	0.19
352.64	0.19
353.101	0.19
353.562	0.19
354.023	0.19
354.484	0.19
354.945	0.19
355.406	0.19
355.867	0.19
356.328	0.19
356.789	0.19
357.25	0.19
357.711	0.19
358.172	0.19
358.633	0.19
359.093	0.19
359.554	0.19
360.015	0.19
360.476	0.18
360.936	0.18
361.397	0.19
361.858	0.19
362.318	0.19
362.779	0.19
363.239	0.19
363.7	0.19
364.16	0.19
364.621	0.19
365.081	0.19
365.541	0.19
366.002	0.18
366.462	0.18
366.922	0.18
367.383	0.18
367.843	0.18
368.303	0.18
368.763	0.18
369.223	0.18
369.684	0.18
370.144	0.18
370.604	0.18
371.064	0.18
371.524	0.18
371.984	0.18
372.444	0.18
372.904	0.18
373.363	0.18
373.823	0.18
374.283	0.18
374.743	0.18
375.203	0.18
375.663	0.18
376.122	0.18
376.582	0.18
377.042	0.18
377.501	0.18
377.961	0.18
378.42	0.18
378.88	0.18
379.34	0.18
379.799	0.18
380.259	0.18
380.718	0.18
381.177	0.18
381.637	0.18
382.096	0.18
382.555	0.18
383.015	0.18
383.474	0.18
383.933	0.18
384.393	0.18
384.852	0.18
385.311	0.18
385.77	0.18
386.229	0.18
386.688	0.18
387.147	0.18
387.606	0.18
388.065	0.18
388.524	0.18
388.983	0.18
389.442	0.18
389.901	0.18
390.36	0.18
390.819	0.18
391.277	0.18
391.736	0.18
392.195	0.18
392.654	0.18
393.112	0.18
393.571	0.18
394.03	0.18
394.488	0.18
394.947	0.18
395.405	0.18
395.864	0.18
396.322	0.18
396.781	0.18
397.239	0.18
397.698	0.18
398.156	0.18
398.614	0.18
399.073	0.18
399.531	0.18
399.989	0.18
400.447	0.18
400.905	0.18
401.364	0.18
401.822	0.18
402.28	0.17
402.738	0.17
403.196	0.17
403.654	0.17
404.112	0.17
404.57	0.17
405.028	0.17
405.486	0.17
405.944	0.17
406.402	0.17
406.859	0.17
407.317	0.17
407.775	0.17
408.233	0.17
408.691	0.17
409.148	0.17
409.606	0.17
410.064	0.17
410.521	0.17
410.979	0.17
411.436	0.17
411.894	0.17
412.351	0.17
412.809	0.17
413.266	0.17
413.724	0.17
414.181	0.17
414.638	0.17
415.096	0.17
415.553	0.17
416.01	0.17
416.467	0.17
416.925	0.17
417.382	0.17
417.839	0.17
418.296	0.17
418.753	0.17
419.21	0.17
419.667	0.17
420.124	0.17
420.581	0.17
421.038	0.17
421.495	0.17
421.952	0.17
422.409	0.17
422.866	0.17
423.322	0.17
423.779	0.17
424.236	0.17
424.693	0.17
425.149	0.17
425.606	0.17
426.063	0.17
426.519	0.17
426.976	0.17
427.433	0.17
427.889	0.17
428.346	0.17
428.802	0.17
429.258	0.17
429.715	0.16
430.171	0.16
430.628	0.16
431.084	0.16
431.54	0.16
431.997	0.16
432.453	0.16
432.909	0.16
433.365	0.16
433.821	0.16
434.277	0.16
434.734	0.16
435.19	0.16
435.646	0.16
436.102	0.16
436.558	0.16
437.014	0.16
437.47	0.16
437.925	0.16
438.381	0.16
438.837	0.16
439.293	0.16
439.749	0.16
440.205	0.16
440.66	0.16
441.116	0.16
441.572	0.16
442.027	0.16
442.483	0.16
442.939	0.16
443.394	0.16
443.85	0.16
444.305	0.16
444.761	0.16
445.216	0.16
445.672	0.16
446.127	0.16
446.582	0.16
447.038	0.16
447.493	0.16
447.948	0.16
448.403	0.16
448.859	0.16
449.314	0.16
449.769	0.16
450.224	0.16
450.679	0.16
451.134	0.16
451.589	0.16
452.044	0.16
452.499	0.16
452.954	0.16
453.409	0.16
453.864	0.16
454.319	0.16
454.774	0.16
455.229	0.16
455.684	0.16
456.138	0.16
456.593	0.15
457.048	0.15
457.503	0.15
457.957	0.15
458.412	0.15
458.866	0.15
459.321	0.15
459.776	0.15
460.23	0.15
460.685	0.15
461.139	0.15
461.593	0.15
462.048	0.15
462.502	0.15
462.957	0.15
463.411	0.15
463.865	0.15
464.319	0.15
464.774	0.15
465.228	0.15
465.682	0.15
466.136	0.15
466.59	0.15
467.044	0.15
467.499	0.15
467.953	0.15
468.407	0.15
468.861	0.15
469.315	0.15
469.768	0.15
470.222	0.15
470.676	0.15
471.13	0.15
471.584	0.15
472.038	0.15
472.491	0.15
472.945	0.15
473.399	0.15
473.852	0.15
474.306	0.15
474.76	0.15
475.213	0.15
475.667	0.15
476.12	0.15
476.574	0.15
477.027	0.15
477.481	0.15
477.934	0.15
478.388	0.15
478.841	0.15
479.294	0.15
479.748	0.15
480.201	0.15
480.654	0.15
481.107	0.15
481.561	0.15
482.014	0.15
482.467	0.15
482.92	0.15
483.373	0.16
483.826	0.16
484.279	0.16
484.732	0.16
485.185	0.16
485.638	0.16
486.091	0.16
486.544	0.16
486.997	0.16
487.449	0.16
487.902	0.16
488.355	0.16
488.808	0.16
489.26	0.16
489.713	0.16
490.166	0.16
490.618	0.16
491.071	0.16
491.523	0.16
491.976	0.16
492.429	0.16
492.881	0.16
493.333	0.16
493.786	0.16
494.238	0.16
494.691	0.17
495.143	0.17
495.595	0.17
496.048	0.17
496.5	0.17
496.952	0.17
497.404	0.17
497.856	0.17
498.309	0.17
498.761	0.17
499.213	0.17
499.665	0.17
500.117	0.17
500.569	0.17
501.021	0.18
501.473	0.18
501.925	0.18
502.377	0.18
502.828	0.18
503.28	0.18
503.732	0.18
504.184	0.18
504.636	0.18
505.087	0.18
505.539	0.18
505.991	0.19
506.442	0.19
506.894	0.19
507.345	0.19
507.797	0.19
508.249	0.19
508.7	0.19
509.151	0.19
509.603	0.19
510.054	0.19
510.506	0.19
510.957	0.19
511.408	0.19
511.86	0.2
512.311	0.2
512.762	0.2
513.213	0.2
513.665	0.2
514.116	0.2
514.567	0.2
515.018	0.2
515.469	0.2
515.92	0.2
516.371	0.2
516.822	0.2
517.273	0.2
517.724	0.21
518.175	0.21
518.626	0.21
519.076	0.21
519.527	0.21
519.978	0.21
520.429	0.21
520.88	0.21
521.33	0.21
521.781	0.21
522.232	0.21
522.682	0.21
523.133	0.21
523.583	0.21
524.034	0.22
524.484	0.22
524.935	0.22
525.385	0.22
525.836	0.22
526.286	0.22
526.736	0.22
527.187	0.22
527.637	0.22
528.087	0.22
528.538	0.22
528.988	0.22
529.438	0.22
529.888	0.22
530.338	0.22
530.788	0.22
531.238	0.22
531.688	0.22
532.139	0.23
532.589	0.23
533.038	0.23
533.488	0.23
533.938	0.23
534.388	0.23
534.838	0.23
535.288	0.23
535.738	0.23
536.187	0.23
536.637	0.23
537.087	0.23
537.537	0.23
537.986	0.23
538.436	0.23
538.885	0.23
539.335	0.23
539.785	0.23
540.234	0.23
540.684	0.24
541.133	0.24
541.582	0.24
542.032	0.24
542.481	0.24
542.931	0.24
543.38	0.24
543.829	0.24
544.278	0.24
544.728	0.24
545.177	0.24
545.626	0.24
546.075	0.24
546.524	0.24
546.973	0.24
547.422	0.24
547.871	0.24
548.32	0.24
548.769	0.24
549.218	0.24
549.667	0.24
550.116	0.24
550.565	0.24
551.014	0.24
551.463	0.24
551.911	0.24
552.36	0.24
552.809	0.24
553.258	0.24
553.706	0.24
554.155	0.24
554.603	0.24
555.052	0.24
555.501	0.25
555.949	0.25
556.398	0.25
556.846	0.25
557.294	0.25
557.743	0.25
558.191	0.25
558.64	0.25
559.088	0.25
559.536	0.25
559.985	0.25
560.433	0.25
560.881	0.25
561.329	0.25
561.777	0.25
562.225	0.25
562.674	0.25
563.122	0.25
563.57	0.25
564.018	0.25
564.466	0.25
564.914	0.25
565.362	0.25
565.809	0.25
566.257	0.25
566.705	0.25
567.153	0.25
567.601	0.25
568.048	0.25
568.496	0.25
568.944	0.25
569.392	0.25
569.839	0.25
570.287	0.25
570.734	0.25
571.182	0.25
571.63	0.25
572.077	0.25
572.525	0.25
572.972	0.25
573.419	0.25
573.867	0.25
574.314	0.25
574.761	0.25
575.209	0.25
575.656	0.25
576.103	0.25
576.551	0.25
576.998	0.25
577.445	0.25
577.892	0.25
578.339	0.25
578.786	0.25
579.233	0.25
579.68	0.25
580.127	0.25
580.574	0.25
581.021	0.24
581.468	0.24
581.915	0.24
582.362	0.24
582.809	0.24
583.255	0.24
583.702	0.24
584.149	0.24
584.596	0.24
585.042	0.24
585.489	0.24
585.936	0.24
586.382	0.24
586.829	0.24
587.275	0.24
587.722	0.24
588.168	0.23
588.615	0.23
589.061	0.23
589.508	0.23
589.954	0.23
590.4	0.23
590.847	0.23
591.293	0.23
591.739	0.23
592.185	0.23
592.632	0.23
593.078	0.23
593.524	0.23
593.97	0.23
594.416	0.23
594.862	0.23
595.308	0.22
595.754	0.22
596.2	0.22
596.646	0.22
597.092	0.22
597.538	0.22
597.984	0.22
598.43	0.22
598.876	0.22
599.321	0.22
599.767	0.22
600.213	0.22
600.659	0.22
601.104	0.21
601.55	0.21
601.995	0.21
602.441	0.21
602.887	0.21
603.332	0.21
603.778	0.21
604.223	0.21
604.668	0.21
605.114	0.21
605.559	0.21
606.005	0.21
606.45	0.21
606.895	0.2
607.341	0.2
607.786	0.2
608.231	0.2
608.676	0.2
609.121	0.2
609.566	0.2
610.012	0.2
610.457	0.2
610.902	0.2
611.347	0.2
611.792	0.2
612.237	0.2
612.682	0.2
613.127	0.19
613.571	0.19
614.016	0.19
614.461	0.19
614.906	0.19
615.351	0.19
615.795	0.19
616.24	0.19
616.685	0.19
617.129	0.19
617.574	0.18
618.019	0.18
618.463	0.18
618.908	0.18
619.352	0.18
619.797	0.18
620.241	0.18
620.686	0.18
621.13	0.18
621.574	0.18
622.019	0.18
622.463	0.18
622.907	0.17
623.352	0.17
623.796	0.17
624.24	0.17
624.684	0.17
625.128	0.17
625.572	0.17
626.016	0.17
626.461	0.17
626.905	0.17
627.349	0.17
627.793	0.17
628.236	0.17
628.68	0.17
629.124	0.17
629.568	0.17
630.012	0.17
630.456	0.17
630.9	0.16
631.343	0.16
631.787	0.16
632.231	0.16
632.674	0.16
633.118	0.16
633.562	0.16
634.005	0.16
634.449	0.16
634.892	0.16
635.336	0.16
635.779	0.16
636.223	0.16
636.666	0.16
637.109	0.16
637.553	0.16
637.996	0.16
638.439	0.16
638.883	0.16
639.326	0.16
639.769	0.16
640.212	0.16
640.655	0.16
641.099	0.17
641.542	0.17
641.985	0.17
642.428	0.17
642.871	0.17
643.314	0.17
643.757	0.17
644.2	0.17
644.643	0.17
645.085	0.17
645.528	0.17
645.971	0.17
646.414	0.17
646.857	0.17
647.299	0.17
647.742	0.17
648.185	0.17
648.627	0.18
649.07	0.18
649.513	0.18
649.955	0.18
650.398	0.18
650.84	0.18
651.283	0.18
651.725	0.18
652.168	0.18
652.61	0.19
653.052	0.19
653.495	0.19
653.937	0.15
654.379	0.12
654.821	0.12
655.264	0.12
655.706	0.12
656.148	0.12
656.59	0.13
657.032	0.13
657.474	0.13
657.916	0.13
658.358	0.12
658.8	0.15
659.242	0.2
659.684	0.21
660.126	0.21
660.568	0.21
661.01	0.21
661.452	0.21
661.894	0.21
662.335	0.21
662.777	0.22
663.219	0.22
663.661	0.22
664.102	0.22
664.544	0.22
664.985	0.23
665.427	0.23
665.869	0.23
666.31	0.23
666.752	0.23
667.193	0.23
667.634	0.24
668.076	0.24
668.517	0.24
668.959	0.24
669.4	0.24
669.841	0.24
670.282	0.24
670.724	0.24
671.165	0.24
671.606	0.25
672.047	0.25
672.488	0.25
672.929	0.25
673.37	0.25
673.811	0.25
674.252	0.25
674.693	0.25
675.134	0.25
675.575	0.26
676.016	0.26
676.457	0.26
676.898	0.26
677.339	0.26
677.78	0.26
678.22	0.26
678.661	0.26
679.102	0.26
679.542	0.26
679.983	0.27
680.424	0.27
680.864	0.27
681.305	0.27
681.745	0.27
682.186	0.27
682.626	0.27
683.067	0.27
683.507	0.27
683.948	0.28
684.388	0.28
684.828	0.28
685.269	0.28
685.709	0.28
686.149	0.28
686.589	0.28
687.029	0.28
687.47	0.28
687.91	0.28
688.35	0.28
688.79	0.28
689.23	0.28
689.67	0.28
690.11	0.28
690.55	0.28
690.99	0.29
691.43	0.29
691.87	0.29
692.31	0.29
692.749	0.29
693.189	0.29
693.629	0.29
694.069	0.29
694.508	0.29
694.948	0.29
695.388	0.29
695.827	0.29
696.267	0.29
696.706	0.29
697.146	0.29
697.586	0.29
698.025	0.29
698.464	0.28
698.904	0.29
699.343	0.28
699.783	0.28
700.222	0.29
700.661	0.29
701.101	0.29
701.54	0.29
701.979	0.29
702.418	0.29
702.857	0.29
703.297	0.29
703.736	0.28
704.175	0.28
704.614	0.28
705.053	0.28
705.492	0.28
705.931	0.28
706.37	0.28
706.809	0.28
707.248	0.28
707.687	0.28
708.125	0.28
708.564	0.28
709.003	0.28
709.442	0.28
709.88	0.28
710.319	0.28
710.758	0.28
711.196	0.28
711.635	0.28
712.074	0.28
712.512	0.28
712.951	0.28
713.389	0.28
713.828	0.28
714.266	0.28
714.705	0.28
715.143	0.28
715.581	0.27
716.02	0.27
716.458	0.27
716.896	0.27
717.334	0.27
717.773	0.27
718.211	0.27
718.649	0.27
719.087	0.27
719.525	0.27
719.963	0.27
720.401	0.27
720.839	0.27
721.277	0.27
721.715	0.27
722.153	0.27
722.591	0.27
723.029	0.27
723.467	0.27
723.905	0.27
724.342	0.27
724.78	0.27
725.218	0.27
725.656	0.26
726.093	0.26
726.531	0.26
726.969	0.26
727.406	0.26
727.844	0.26
728.281	0.26
728.719	0.26
729.156	0.26
729.594	0.26
730.031	0.26
730.469	0.26
730.906	0.26
731.343	0.26
731.781	0.26
732.218	0.26
732.655	0.26
733.092	0.26
733.53	0.26
733.967	0.26
734.404	0.26
734.841	0.26
735.278	0.26
735.715	0.25
736.152	0.25
736.589	0.25
737.026	0.25
737.463	0.25
737.9	0.25
738.337	0.25
738.774	0.25
739.211	0.25
739.647	0.25
740.084	0.25
740.521	0.25
740.958	0.25
741.394	0.25
741.831	0.25
742.268	0.25
742.704	0.24
743.141	0.24
743.577	0.24
744.014	0.24
744.45	0.24
744.887	0.24
745.323	0.24
745.76	0.24
746.196	0.24
746.632	0.24
747.069	0.24
747.505	0.23
747.941	0.23
748.378	0.23
748.814	0.23
749.25	0.23
749.686	0.23
750.122	0.23
750.558	0.23
750.994	0.23
751.43	0.23
751.866	0.23
752.302	0.22
752.738	0.22
753.174	0.22
753.61	0.22
754.046	0.22
754.482	0.22
754.918	0.22
755.354	0.22
755.789	0.21
756.225	0.21
756.661	0.21
757.096	0.21
757.532	0.21
757.968	0.21
758.403	0.21
758.839	0.21
759.274	0.21
759.71	0.21
760.145	0.21
760.581	0.2
761.016	0.2
761.452	0.2
761.887	0.2
762.322	0.2
762.758	0.2
763.193	0.2
763.628	0.19
764.063	0.19
764.499	0.19
764.934	0.19
765.369	0.18
765.804	0.18
766.239	0.18
766.674	0.18
767.109	0.17
767.544	0.17
767.979	0.17
768.414	0.16
768.849	0.16
769.284	0.16
769.719	0.16
770.154	0.15
770.588	0.15
771.023	0.15
771.458	0.14
771.893	0.14
772.327	0.14
772.762	0.13
773.197	0.13
773.631	0.12
774.066	0.12
774.5	0.11
774.935	0.11
775.369	0.1
775.804	0.1
776.238	0.09
776.673	0.09
777.107	0.08
777.541	0.08
777.976	0.07
778.41	0.06
778.844	0.06
779.279	0.06
779.713	0.05
780.147	0.04
780.581	0.04
781.015	0.03
781.449	0.03
781.883	0.02
782.317	0.01
782.751	0
783.185	-0
783.619	-0.01
784.053	-0.02
784.487	-0.03
784.921	-0.04
785.355	-0.05
785.789	-0.05
786.223	-0.06
786.656	-0.07
787.09	-0.07
787.524	-0.08
787.957	-0.09
788.391	-0.1
788.825	-0.11
789.258	-0.11
789.692	-0.12
790.125	-0.12
790.559	-0.13
790.992	-0.13
791.426	-0.13
791.859	-0.13
792.293	-0.12
792.726	-0.11
793.159	-0.1
793.593	-0.1
794.026	-0.1
794.459	-0.11
794.892	-0.11
795.326	-0.11
795.759	-0.11
796.192	-0.11
796.625	-0.12
797.058	-0.13
797.491	-0.14
797.924	-0.15
798.357	-0.15
798.79	-0.15
799.223	-0.15
799.656	-0.15
800.089	-0.15
800.522	-0.15
800.955	-0.16
801.387	-0.15
801.82	-0.16
802.253	-0.16
802.686	-0.16
803.118	-0.16
803.551	-0.16
803.984	-0.15
804.416	-0.15
804.849	-0.14
805.281	-0.14
805.714	-0.14
806.146	-0.14
806.579	-0.13
807.011	-0.13
807.444	-0.13
807.876	-0.13
808.308	-0.13
808.741	-0.14
809.173	-0.14
809.605	-0.15
810.037	-0.15
810.47	-0.15
810.902	-0.16
811.334	-0.16
811.766	-0.16
812.198	-0.15
812.63	-0.15
813.062	-0.16
813.494	-0.16
813.926	-0.16
814.358	-0.16
814.79	-0.15
815.222	-0.14
815.654	-0.14
816.086	-0.13
816.518	-0.13
816.949	-0.12
817.381	-0.11
817.813	-0.1
818.245	-0.09
818.676	-0.07
819.108	-0.06
819.54	-0.05
819.971	-0.04
820.403	-0.03
820.834	-0.02
821.266	-0.01
821.697	0
822.129	0.01
822.56	0.02
822.991	0.02
823.423	0.03
823.854	0.03
824.286	0.04
824.717	0.05
825.148	0.05
825.579	0.06
826.01	0.06
826.442	0.07
826.873	0.07
827.304	0.07
827.735	0.08
828.166	0.08
828.597	0.08
829.028	0.08
829.459	0.09
829.89	0.09
830.321	0.09
830.752	0.09
831.183	0.09
831.613	0.09
832.044	0.1
832.475	0.1
832.906	0.1
833.336	0.1
833.767	0.1
834.198	0.1
834.628	0.1
835.059	0.1
835.49	0.1
835.92	0.1
836.351	0.11
836.781	0.11
837.212	0.11
837.642	0.11
838.072	0.11
838.503	0.11
838.933	0.11
839.364	0.11
839.794	0.11
840.224	0.11
840.654	0.11
841.085	0.11
841.515	0.11
841.945	0.11
842.375	0.11
842.805	0.11
843.235	0.11
843.665	0.11
844.095	0.11
844.525	0.11
844.955	0.11
845.385	0.11
845.815	0.11
846.245	0.11
846.675	0.11
847.105	0.11
847.534	0.11
847.964	0.11
848.394	0.11
848.824	0.1
849.253	0.1
849.683	0.1
850.112	0.1
850.542	0.1
850.972	0.1
851.401	0.1
851.831	0.1
852.26	0.1
852.69	0.11
853.119	0.11
853.548	0.11
853.978	0.11
854.407	0.11
854.836	0.11
855.266	0.11
855.695	0.11
856.124	0.11
856.553	0.11
856.983	0.11
857.412	0.11
857.841	0.11
858.27	0.11
858.699	0.11
859.128	0.11
859.557	0.11
859.986	0.11
860.415	0.11
860.844	0.11
861.273	0.11
861.702	0.11
862.13	0.11
862.559	0.11
862.988	0.11
863.417	0.11
863.845	0.11
864.274	0.11
864.703	0.11
865.131	0.1
865.56	0.1
865.989	0.1
866.417	0.1
866.846	0.1
867.274	0.1
867.703	0.1
868.131	0.1
868.559	0.1
868.988	0.1
869.416	0.1
869.844	0.1
870.273	0.1
870.701	0.1
871.129	0.1
871.557	0.1
871.986	0.1
872.414	0.1
872.842	0.1
873.27	0.1
873.698	0.09
874.126	0.09
874.554	0.09
874.982	0.09
875.41	0.09
875.838	0.09
876.266	0.09
876.694	0.09
877.122	0.09
877.549	0.09
877.977	0.09
878.405	0.09
878.833	0.09
879.26	0.09
879.688	0.09
880.116	0.09
880.543	0.09
880.971	0.09
881.399	0.09
881.826	0.09
882.254	0.09
882.681	0.09
883.109	0.09
883.536	0.09
883.963	0.09
884.391	0.09
884.818	0.09
885.245	0.09
885.673	0.09
886.1	0.09
886.527	0.09
886.954	0.09
887.381	0.09
887.809	0.09
888.236	0.09
888.663	0.09
889.09	0.09
889.517	0.09
889.944	0.09
890.371	0.09
890.798	0.09
891.225	0.09
891.652	0.09
892.078	0.09
892.505	0.09
892.932	0.09
893.359	0.09
893.786	0.09
894.212	0.09
894.639	0.09
895.066	0.09
895.492	0.09
895.919	0.08
896.346	0.08
896.772	0.08
897.199	0.08
897.625	0.08
898.052	0.08
898.478	0.08
898.904	0.07
899.331	0.07
899.757	0.07
900.183	0.07
900.61	0.07
901.036	0.07
901.462	0.07
901.888	0.07
902.315	0.07
902.741	0.07
903.167	0.07
903.593	0.07
904.019	0.07
904.445	0.07
904.871	0.07
905.297	0.07
905.723	0.08
906.149	0.08
906.575	0.08
907.001	0.08
907.427	0.08
907.852	0.08
908.278	0.08
908.704	0.08
909.13	0.08
909.555	0.08
909.981	0.08
910.407	0.08
910.832	0.08
911.258	0.08
911.684	0.08
912.109	0.08
912.535	0.08
912.96	0.08
913.386	0.08
913.811	0.08
914.236	0.08
914.662	0.08
915.087	0.08
915.512	0.08
915.938	0.08
916.363	0.08
916.788	0.08
917.213	0.08
917.639	0.08
918.064	0.08
918.489	0.08
918.914	0.08
919.339	0.08
919.764	0.08
920.189	0.08
920.614	0.08
921.039	0.08
921.464	0.08
921.889	0.08
922.314	0.08
922.738	0.08
923.163	0.08
923.588	0.08
924.013	0.08
924.437	0.07
924.862	0.07
925.287	0.07
925.711	0.07
926.136	0.07
926.561	0.07
926.985	0.07
927.41	0.07
927.834	0.07
928.259	0.07
928.683	0.07
929.108	0.07
929.532	0.07
929.956	0.07
930.381	0.07
930.805	0.07
931.229	0.07
931.653	0.07
932.078	0.07
932.502	0.07
932.926	0.06
933.35	0.06
933.774	0.06
934.198	0.06
934.622	0.06
935.046	0.06
935.47	0.06
935.894	0.06
936.318	0.06
936.742	0.06
937.166	0.06
937.59	0.06
938.014	0.06
938.437	0.06
938.861	0.06
939.285	0.06
939.709	0.06
940.132	0.06
940.556	0.06
940.98	0.06
941.403	0.06
941.827	0.06
942.25	0.06
942.674	0.06
943.097	0.06
943.521	0.06
943.944	0.06
944.368	0.06
944.791	0.06
945.214	0.06
945.638	0.06
946.061	0.06
946.484	0.06
946.907	0.06
947.331	0.06
947.754	0.06
948.177	0.06
948.6	0.06
949.023	0.06
949.446	0.06
949.869	0.06
950.292	0.06
950.715	0.06
951.138	0.06
951.561	0.06
951.984	0.06
952.407	0.06
952.83	0.06
953.252	0.06
953.675	0.06
954.098	0.06
954.521	0.06
954.943	0.06
955.366	0.06
955.789	0.06
956.211	0.06
956.634	0.05
957.056	0.05
957.479	0.05
957.902	0.05
958.324	0.05
958.746	0.05
959.169	0.05
959.591	0.05
960.014	0.05
960.436	0.05
960.858	0.05
961.281	0.05
961.703	0.05
962.125	0.05
962.547	0.05
962.969	0.06
963.391	0.06
963.814	0.06
964.236	0.06
964.658	0.06
965.08	0.06
965.502	0.06
965.924	0.06
966.346	0.06
966.768	0.06
967.189	0.06
967.611	0.05
968.033	0.05
968.455	0.05
968.877	0.05
969.298	0.05
969.72	0.05
970.142	0.05
970.563	0.05
970.985	0.05
971.407	0.05
971.828	0.05
972.25	0.05
972.671	0.05
973.093	0.05
973.514	0.05
973.936	0.05
974.357	0.05
974.778	0.05
975.2	0.05
975.621	0.05
976.042	0.05
976.464	0.05
976.885	0.05
977.306	0.05
977.727	0.05
978.148	0.05
978.57	0.06
978.991	0.06
979.412	0.06
979.833	0.06
980.254	0.06
980.675	0.06
981.096	0.06
981.517	0.06
981.937	0.06
982.358	0.06
982.779	0.06
983.2	0.06
983.621	0.05
984.042	0.05
984.462	0.05
984.883	0.05
985.304	0.05
985.724	0.05
986.145	0.05
986.565	0.05
986.986	0.05
987.407	0.05
987.827	0.05
988.248	0.05
988.668	0.05
989.088	0.05
989.509	0.05
989.929	0.05
990.35	0.05
990.77	0.05
991.19	0.05
991.61	0.05
992.031	0.05
992.451	0.05
992.871	0.05
993.291	0.05
993.711	0.05
994.131	0.05
994.551	0.05
994.971	0.05
995.391	0.05
995.811	0.05
996.231	0.05
996.651	0.05
997.071	0.05
997.491	0.05
997.911	0.05
998.331	0.05
998.75	0.05
999.17	0.05
999.59	0.05
1000.009	0.05
1000.429	0.05
1000.849	0.05
1001.268	0.05
1001.688	0.05
1002.107	0.05
1002.527	0.05
1002.946	0.05
1003.366	0.05
1003.785	0.05
1004.205	0.05
1004.624	0.05
1005.044	0.05
1005.463	0.05
1005.882	0.05
1006.301	0.05
1006.721	0.05
1007.14	0.05
1007.559	0.04
1007.978	0.04
1008.397	0.04
1008.816	0.04
1009.235	0.04
1009.655	0.04
1010.074	0.04
1010.492	0.04
1010.911	0.04
1011.33	0.04
1011.749	0.04
1012.168	0.04
1012.587	0.04
1013.006	0.04
1013.425	0.04
1013.843	0.04
1014.262	0.04
1014.681	0.04
1015.099	0.04
1015.518	0.04
1015.937	0.04
1016.355	0.04
1016.774	0.04
1017.192	0.04
1017.611	0.04
1018.029	0.04
1018.448	0.04
1018.866	0.04
1019.285	0.04
1019.703	0.04
1020.121	0.04
1020.54	0.04
1020.958	0.04
1021.376	0.04
1021.794	0.04
1022.213	0.04
1022.631	0.04
1023.049	0.04
1023.467	0.04
1023.885	0.04
1024.303	0.04
1024.721	0.04
1025.139	0.04
1025.557	0.04
1025.975	0.04
1026.393	0.04
1026.811	0.04
1027.229	0.04
1027.647	0.04
1028.065	0.04
1028.482	0.04
1028.9	0.04
1029.318	0.04
1029.735	0.04
1030.153	0.04
1030.571	0.04
1030.988	0.04
1031.406	0.04
1031.823	0.04
1032.241	0.04
1032.659	0.04
1033.076	0.04
1033.493	0.04
1033.911	0.04
1034.328	0.04
1034.746	0.04
1035.163	0.04
1035.58	0.04
1035.997	0.04
1036.415	0.04
1036.832	0.04
1037.249	0.04
1037.666	0.04
1038.083	0.04
1038.501	0.04
1038.918	0.04
1039.335	0.04
1039.752	0.04
1040.169	0.03
1040.586	0.03
1041.003	0.04
1041.419	0.03
1041.836	0.03
1042.253	0.03
1042.67	0.03
1043.087	0.03
1043.504	0.03
1043.92	0.03
1044.337	0.03
1044.754	0.03
1045.17	0.03
1045.587	0.03
1046.004	0.03
1046.42	0.03
1046.837	0.04
1047.253	0.04
1047.67	0.04
1048.086	0.04
1048.503	0.04
1048.919	0.04
1049.335	0.04
1049.752	0.04
1050.168	0.04
1050.584	0.04
1051.001	0.04
1051.417	0.04
1051.833	0.04
1052.249	0.04
1052.665	0.04
1053.081	0.04
1053.497	0.04
1053.914	0.04
1054.33	0.04
1054.746	0.04
1055.162	0.04
1055.578	0.04
1055.993	0.04
1056.409	0.04
1056.825	0.04
1057.241	0.03
1057.657	0.03
1058.073	0.03
1058.488	0.03
1058.904	0.03
1059.32	0.03
1059.736	0.03
1060.151	0.03
1060.567	0.03
1060.982	0.03
1061.398	0.03
1061.813	0.03
1062.229	0.03
1062.644	0.03
1063.06	0.03
1063.475	0.03
1063.891	0.03
1064.306	0.03
1064.721	0.03
1065.137	0.03
1065.552	0.03
1065.967	0.03
1066.382	0.03
1066.798	0.03
1067.213	0.03
1067.628	0.03
1068.043	0.03
1068.458	0.03
1068.873	0.03
1069.288	0.03
1069.703	0.03
1070.118	0.03
1070.533	0.03
1070.948	0.03
1071.363	0.03
1071.778	0.03
1072.193	0.03
1072.607	0.03
1073.022	0.03
1073.437	0.03
1073.852	0.02
1074.266	0.02
1074.681	0.02
1075.096	0.02
1075.51	0.02
1075.925	0.02
1076.339	0.02
1076.754	0.02
1077.168	0.02
1077.583	0.02
1077.997	0.02
1078.412	0.02
1078.826	0.02
1079.24	0.02
1079.655	0.02
1080.069	0.02
1080.483	0.02
1080.897	0.02
1081.312	0.02
1081.726	0.02
1082.14	0.02
1082.554	0.02
1082.968	0.02
1083.382	0.02
1083.796	0.02
1084.21	0.02
1084.624	0.02
1085.038	0.02
1085.452	0.02
1085.866	0.02
1086.28	0.02
1086.694	0.02
1087.108	0.02
1087.521	0.02
1087.935	0.02
1088.349	0.02
1088.763	0.02
1089.176	0.01
1089.59	0.01
1090.004	0.01
1090.417	0.01
1090.831	0.01
1091.244	0.01
1091.658	0.01
1092.071	0.01
1092.485	0.01
1092.898	0.01
1093.312	0.01
1093.725	0.01
1094.138	0.01
1094.552	0.01
1094.965	0.01
1095.378	0.01
1095.791	0.01
1096.205	0
1096.618	0
1097.031	0
1097.444	0
1097.857	0
1098.27	0
1098.683	0
1099.096	0
1099.509	-0
1099.922	-0
1100.335	-0
1100.748	-0
1101.161	-0.01
1101.574	-0.01
1101.986	-0.01
1102.399	-0.01
1102.812	-0.01
1103.225	-0.01
1103.637	-0.01
1104.05	-0.01
1104.463	-0.01
1104.875	-0.01
1105.288	-0.01
1105.7	-0.01
1106.113	-0.02
1106.525	-0.02
1106.938	-0.02
1107.35	-0.02
1107.763	-0.02
1108.175	-0.02
1108.588	-0.03
1109	-0.03
1109.412	-0.03
1109.824	-0.03
1110.237	-0.03
1110.649	-0.03
1111.061	-0.03
