Data from 2024-02-06-100ns-20nr-25nacl-100h2o-7bp2-1_8a808-40to10hyt-0_5cpm_Absorbance__55__00444.txt Node

Date: Tue Feb 06 15:51:50 CET 2024
User: Laser008
Spectrometer: MAYP115816
Trigger mode: 0
Integration Time (sec): 2.000000E-1
Scans to average: 10
Electric dark correction enabled: true
Nonlinearity correction enabled: true
Boxcar width: 5
XAxis mode: Wavelengths
Number of Pixels in Spectrum: 2068
>>>>>Begin Spectral Data<<<<<
198.914	-0.25
199.384	-0.23
199.855	-0.17
200.325	-0.13
200.796	-0.11
201.266	-0.1
201.737	-0.09
202.207	-0.09
202.677	-0.08
203.147	-0.08
203.618	-0.07
204.088	-0.05
204.558	-0.05
205.028	-0.04
205.498	-0.04
205.968	-0.04
206.439	-0.05
206.909	-0.04
207.379	-0.04
207.849	-0.04
208.319	-0.04
208.789	-0.04
209.258	-0.04
209.728	-0.04
210.198	-0.04
210.668	-0.04
211.138	-0.05
211.608	-0.04
212.077	-0.05
212.547	-0.05
213.017	-0.04
213.486	-0.05
213.956	-0.04
214.426	-0.04
214.895	-0.04
215.365	-0.05
215.834	-0.05
216.304	-0.05
216.773	-0.04
217.243	-0.04
217.712	-0.04
218.181	-0.04
218.651	-0.04
219.12	-0.04
219.589	-0.03
220.058	-0.03
220.528	-0.03
220.997	-0.02
221.466	-0.02
221.935	-0.02
222.404	-0.02
222.873	-0.02
223.342	-0.01
223.812	-0.01
224.281	-0.01
224.749	-0
225.218	0
225.687	0.01
226.156	0.02
226.625	0.02
227.094	0.03
227.563	0.04
228.031	0.05
228.5	0.06
228.969	0.07
229.438	0.09
229.906	0.11
230.375	0.12
230.844	0.14
231.312	0.16
231.781	0.17
232.249	0.19
232.718	0.21
233.186	0.23
233.655	0.24
234.123	0.26
234.591	0.27
235.06	0.29
235.528	0.3
235.996	0.31
236.465	0.32
236.933	0.33
237.401	0.33
237.869	0.34
238.337	0.34
238.805	0.35
239.274	0.35
239.742	0.36
240.21	0.36
240.678	0.36
241.146	0.37
241.614	0.37
242.081	0.37
242.549	0.37
243.017	0.38
243.485	0.38
243.953	0.38
244.421	0.38
244.888	0.38
245.356	0.39
245.824	0.39
246.291	0.39
246.759	0.39
247.227	0.39
247.694	0.39
248.162	0.4
248.629	0.4
249.097	0.4
249.564	0.4
250.032	0.4
250.499	0.4
250.967	0.41
251.434	0.41
251.901	0.41
252.369	0.41
252.836	0.41
253.303	0.41
253.77	0.41
254.237	0.42
254.705	0.42
255.172	0.42
255.639	0.42
256.106	0.42
256.573	0.42
257.04	0.42
257.507	0.42
257.974	0.42
258.441	0.42
258.908	0.42
259.375	0.42
259.841	0.42
260.308	0.42
260.775	0.42
261.242	0.42
261.709	0.42
262.175	0.42
262.642	0.42
263.109	0.42
263.575	0.42
264.042	0.42
264.508	0.42
264.975	0.42
265.441	0.42
265.908	0.42
266.374	0.41
266.841	0.41
267.307	0.41
267.773	0.41
268.24	0.41
268.706	0.41
269.172	0.41
269.639	0.4
270.105	0.4
270.571	0.4
271.037	0.4
271.503	0.4
271.969	0.39
272.435	0.39
272.902	0.39
273.368	0.39
273.834	0.39
274.3	0.38
274.765	0.38
275.231	0.38
275.697	0.38
276.163	0.38
276.629	0.37
277.095	0.37
277.56	0.37
278.026	0.37
278.492	0.36
278.958	0.36
279.423	0.36
279.889	0.35
280.354	0.35
280.82	0.35
281.286	0.35
281.751	0.34
282.217	0.34
282.682	0.34
283.147	0.34
283.613	0.33
284.078	0.33
284.544	0.33
285.009	0.33
285.474	0.33
285.939	0.33
286.405	0.32
286.87	0.32
287.335	0.32
287.8	0.32
288.265	0.32
288.73	0.31
289.195	0.31
289.66	0.31
290.125	0.31
290.59	0.31
291.055	0.31
291.52	0.3
291.985	0.3
292.45	0.3
292.915	0.3
293.38	0.3
293.844	0.3
294.309	0.3
294.774	0.3
295.239	0.29
295.703	0.29
296.168	0.29
296.632	0.29
297.097	0.29
297.562	0.29
298.026	0.29
298.491	0.29
298.955	0.29
299.419	0.29
299.884	0.29
300.348	0.29
300.813	0.28
301.277	0.28
301.741	0.28
302.205	0.28
302.67	0.28
303.134	0.28
303.598	0.28
304.062	0.28
304.526	0.28
304.99	0.28
305.454	0.28
305.919	0.28
306.383	0.28
306.847	0.28
307.31	0.28
307.774	0.27
308.238	0.27
308.702	0.27
309.166	0.27
309.63	0.27
310.094	0.27
310.557	0.27
311.021	0.27
311.485	0.27
311.948	0.27
312.412	0.27
312.876	0.27
313.339	0.27
313.803	0.27
314.266	0.27
314.73	0.27
315.193	0.27
315.657	0.27
316.12	0.26
316.584	0.26
317.047	0.26
317.51	0.26
317.973	0.26
318.437	0.26
318.9	0.26
319.363	0.26
319.826	0.26
320.29	0.26
320.753	0.26
321.216	0.26
321.679	0.26
322.142	0.26
322.605	0.26
323.068	0.26
323.531	0.26
323.994	0.26
324.457	0.26
324.92	0.25
325.382	0.25
325.845	0.25
326.308	0.25
326.771	0.25
327.233	0.25
327.696	0.25
328.159	0.25
328.622	0.25
329.084	0.25
329.547	0.25
330.009	0.25
330.472	0.25
330.934	0.25
331.397	0.25
331.859	0.25
332.322	0.25
332.784	0.25
333.246	0.25
333.709	0.25
334.171	0.24
334.633	0.24
335.096	0.24
335.558	0.24
336.02	0.24
336.482	0.24
336.944	0.24
337.406	0.24
337.868	0.24
338.331	0.24
338.793	0.24
339.255	0.24
339.717	0.24
340.178	0.24
340.64	0.24
341.102	0.24
341.564	0.24
342.026	0.24
342.488	0.24
342.949	0.24
343.411	0.24
343.873	0.24
344.335	0.24
344.796	0.24
345.258	0.24
345.719	0.23
346.181	0.23
346.643	0.23
347.104	0.23
347.566	0.23
348.027	0.23
348.488	0.23
348.95	0.23
349.411	0.23
349.873	0.23
350.334	0.23
350.795	0.23
351.256	0.23
351.718	0.23
352.179	0.23
352.64	0.23
353.101	0.23
353.562	0.23
354.023	0.23
354.484	0.23
354.945	0.23
355.406	0.23
355.867	0.23
356.328	0.23
356.789	0.23
357.25	0.23
357.711	0.23
358.172	0.23
358.633	0.23
359.093	0.23
359.554	0.23
360.015	0.23
360.476	0.23
360.936	0.23
361.397	0.23
361.858	0.23
362.318	0.23
362.779	0.23
363.239	0.23
363.7	0.23
364.16	0.23
364.621	0.23
365.081	0.23
365.541	0.23
366.002	0.23
366.462	0.23
366.922	0.23
367.383	0.23
367.843	0.23
368.303	0.23
368.763	0.23
369.223	0.23
369.684	0.23
370.144	0.23
370.604	0.23
371.064	0.23
371.524	0.23
371.984	0.23
372.444	0.23
372.904	0.23
373.363	0.23
373.823	0.23
374.283	0.23
374.743	0.23
375.203	0.23
375.663	0.23
376.122	0.23
376.582	0.22
377.042	0.22
377.501	0.22
377.961	0.22
378.42	0.22
378.88	0.22
379.34	0.22
379.799	0.22
380.259	0.22
380.718	0.22
381.177	0.22
381.637	0.22
382.096	0.22
382.555	0.22
383.015	0.22
383.474	0.22
383.933	0.22
384.393	0.22
384.852	0.22
385.311	0.22
385.77	0.22
386.229	0.22
386.688	0.22
387.147	0.22
387.606	0.22
388.065	0.22
388.524	0.22
388.983	0.22
389.442	0.22
389.901	0.22
390.36	0.22
390.819	0.22
391.277	0.22
391.736	0.22
392.195	0.22
392.654	0.22
393.112	0.22
393.571	0.22
394.03	0.22
394.488	0.22
394.947	0.22
395.405	0.22
395.864	0.22
396.322	0.22
396.781	0.21
397.239	0.21
397.698	0.21
398.156	0.21
398.614	0.21
399.073	0.21
399.531	0.21
399.989	0.21
400.447	0.21
400.905	0.21
401.364	0.21
401.822	0.21
402.28	0.21
402.738	0.21
403.196	0.21
403.654	0.21
404.112	0.21
404.57	0.21
405.028	0.21
405.486	0.21
405.944	0.21
406.402	0.21
406.859	0.21
407.317	0.21
407.775	0.21
408.233	0.21
408.691	0.21
409.148	0.21
409.606	0.21
410.064	0.21
410.521	0.21
410.979	0.21
411.436	0.21
411.894	0.21
412.351	0.21
412.809	0.21
413.266	0.21
413.724	0.21
414.181	0.21
414.638	0.21
415.096	0.21
415.553	0.21
416.01	0.2
416.467	0.2
416.925	0.2
417.382	0.2
417.839	0.2
418.296	0.2
418.753	0.2
419.21	0.2
419.667	0.2
420.124	0.2
420.581	0.2
421.038	0.2
421.495	0.2
421.952	0.2
422.409	0.2
422.866	0.2
423.322	0.2
423.779	0.2
424.236	0.2
424.693	0.2
425.149	0.2
425.606	0.2
426.063	0.2
426.519	0.2
426.976	0.2
427.433	0.2
427.889	0.2
428.346	0.2
428.802	0.2
429.258	0.2
429.715	0.2
430.171	0.2
430.628	0.2
431.084	0.2
431.54	0.2
431.997	0.2
432.453	0.2
432.909	0.2
433.365	0.2
433.821	0.2
434.277	0.2
434.734	0.2
435.19	0.2
435.646	0.2
436.102	0.2
436.558	0.2
437.014	0.2
437.47	0.2
437.925	0.2
438.381	0.19
438.837	0.19
439.293	0.19
439.749	0.19
440.205	0.19
440.66	0.19
441.116	0.19
441.572	0.19
442.027	0.19
442.483	0.19
442.939	0.19
443.394	0.19
443.85	0.19
444.305	0.19
444.761	0.19
445.216	0.19
445.672	0.19
446.127	0.19
446.582	0.19
447.038	0.19
447.493	0.19
447.948	0.19
448.403	0.19
448.859	0.19
449.314	0.19
449.769	0.19
450.224	0.19
450.679	0.19
451.134	0.19
451.589	0.19
452.044	0.19
452.499	0.19
452.954	0.19
453.409	0.19
453.864	0.19
454.319	0.19
454.774	0.19
455.229	0.19
455.684	0.19
456.138	0.19
456.593	0.19
457.048	0.19
457.503	0.19
457.957	0.19
458.412	0.19
458.866	0.19
459.321	0.19
459.776	0.19
460.23	0.19
460.685	0.19
461.139	0.19
461.593	0.19
462.048	0.19
462.502	0.19
462.957	0.19
463.411	0.19
463.865	0.19
464.319	0.19
464.774	0.19
465.228	0.19
465.682	0.19
466.136	0.19
466.59	0.19
467.044	0.19
467.499	0.19
467.953	0.19
468.407	0.19
468.861	0.19
469.315	0.19
469.768	0.19
470.222	0.19
470.676	0.19
471.13	0.19
471.584	0.19
472.038	0.19
472.491	0.19
472.945	0.19
473.399	0.19
473.852	0.19
474.306	0.19
474.76	0.19
475.213	0.19
475.667	0.19
476.12	0.19
476.574	0.19
477.027	0.19
477.481	0.19
477.934	0.19
478.388	0.19
478.841	0.19
479.294	0.19
479.748	0.19
480.201	0.19
480.654	0.19
481.107	0.19
481.561	0.2
482.014	0.2
482.467	0.2
482.92	0.2
483.373	0.2
483.826	0.2
484.279	0.2
484.732	0.2
485.185	0.2
485.638	0.2
486.091	0.2
486.544	0.2
486.997	0.2
487.449	0.2
487.902	0.2
488.355	0.2
488.808	0.21
489.26	0.21
489.713	0.21
490.166	0.21
490.618	0.21
491.071	0.21
491.523	0.21
491.976	0.21
492.429	0.21
492.881	0.21
493.333	0.21
493.786	0.22
494.238	0.22
494.691	0.22
495.143	0.22
495.595	0.22
496.048	0.22
496.5	0.22
496.952	0.22
497.404	0.22
497.856	0.23
498.309	0.23
498.761	0.23
499.213	0.23
499.665	0.23
500.117	0.23
500.569	0.24
501.021	0.24
501.473	0.24
501.925	0.24
502.377	0.24
502.828	0.24
503.28	0.24
503.732	0.25
504.184	0.25
504.636	0.25
505.087	0.25
505.539	0.25
505.991	0.25
506.442	0.25
506.894	0.26
507.345	0.26
507.797	0.26
508.249	0.26
508.7	0.26
509.151	0.26
509.603	0.26
510.054	0.27
510.506	0.27
510.957	0.27
511.408	0.27
511.86	0.27
512.311	0.27
512.762	0.27
513.213	0.27
513.665	0.28
514.116	0.28
514.567	0.28
515.018	0.28
515.469	0.28
515.92	0.28
516.371	0.28
516.822	0.28
517.273	0.29
517.724	0.29
518.175	0.29
518.626	0.29
519.076	0.29
519.527	0.29
519.978	0.29
520.429	0.29
520.88	0.29
521.33	0.29
521.781	0.29
522.232	0.3
522.682	0.3
523.133	0.3
523.583	0.3
524.034	0.3
524.484	0.3
524.935	0.3
525.385	0.3
525.836	0.3
526.286	0.3
526.736	0.3
527.187	0.3
527.637	0.3
528.087	0.3
528.538	0.3
528.988	0.31
529.438	0.31
529.888	0.31
530.338	0.31
530.788	0.31
531.238	0.31
531.688	0.31
532.139	0.31
532.589	0.31
533.038	0.31
533.488	0.31
533.938	0.31
534.388	0.31
534.838	0.31
535.288	0.31
535.738	0.31
536.187	0.31
536.637	0.31
537.087	0.31
537.537	0.31
537.986	0.31
538.436	0.31
538.885	0.31
539.335	0.31
539.785	0.31
540.234	0.31
540.684	0.31
541.133	0.31
541.582	0.31
542.032	0.31
542.481	0.31
542.931	0.31
543.38	0.31
543.829	0.31
544.278	0.31
544.728	0.31
545.177	0.31
545.626	0.31
546.075	0.31
546.524	0.31
546.973	0.31
547.422	0.31
547.871	0.31
548.32	0.31
548.769	0.3
549.218	0.3
549.667	0.3
550.116	0.3
550.565	0.3
551.014	0.3
551.463	0.3
551.911	0.3
552.36	0.3
552.809	0.3
553.258	0.3
553.706	0.3
554.155	0.3
554.603	0.3
555.052	0.3
555.501	0.3
555.949	0.3
556.398	0.3
556.846	0.3
557.294	0.29
557.743	0.29
558.191	0.29
558.64	0.29
559.088	0.29
559.536	0.29
559.985	0.29
560.433	0.29
560.881	0.29
561.329	0.29
561.777	0.29
562.225	0.29
562.674	0.29
563.122	0.29
563.57	0.29
564.018	0.28
564.466	0.28
564.914	0.28
565.362	0.28
565.809	0.28
566.257	0.28
566.705	0.28
567.153	0.28
567.601	0.28
568.048	0.27
568.496	0.27
568.944	0.27
569.392	0.27
569.839	0.27
570.287	0.27
570.734	0.27
571.182	0.27
571.63	0.27
572.077	0.27
572.525	0.27
572.972	0.27
573.419	0.26
573.867	0.26
574.314	0.26
574.761	0.26
575.209	0.26
575.656	0.26
576.103	0.26
576.551	0.26
576.998	0.26
577.445	0.26
577.892	0.26
578.339	0.26
578.786	0.25
579.233	0.25
579.68	0.25
580.127	0.25
580.574	0.25
581.021	0.25
581.468	0.25
581.915	0.25
582.362	0.24
582.809	0.24
583.255	0.24
583.702	0.24
584.149	0.24
584.596	0.24
585.042	0.24
585.489	0.23
585.936	0.23
586.382	0.23
586.829	0.23
587.275	0.23
587.722	0.23
588.168	0.23
588.615	0.23
589.061	0.22
589.508	0.22
589.954	0.22
590.4	0.22
590.847	0.22
591.293	0.22
591.739	0.22
592.185	0.22
592.632	0.21
593.078	0.21
593.524	0.21
593.97	0.21
594.416	0.21
594.862	0.21
595.308	0.21
595.754	0.21
596.2	0.2
596.646	0.2
597.092	0.2
597.538	0.2
597.984	0.2
598.43	0.2
598.876	0.2
599.321	0.2
599.767	0.2
600.213	0.2
600.659	0.19
601.104	0.19
601.55	0.19
601.995	0.19
602.441	0.19
602.887	0.19
603.332	0.19
603.778	0.19
604.223	0.19
604.668	0.19
605.114	0.19
605.559	0.18
606.005	0.18
606.45	0.18
606.895	0.18
607.341	0.18
607.786	0.18
608.231	0.18
608.676	0.18
609.121	0.18
609.566	0.18
610.012	0.17
610.457	0.17
610.902	0.17
611.347	0.17
611.792	0.17
612.237	0.17
612.682	0.17
613.127	0.17
613.571	0.17
614.016	0.17
614.461	0.17
614.906	0.17
615.351	0.17
615.795	0.17
616.24	0.17
616.685	0.17
617.129	0.16
617.574	0.16
618.019	0.16
618.463	0.16
618.908	0.16
619.352	0.16
619.797	0.16
620.241	0.16
620.686	0.16
621.13	0.16
621.574	0.16
622.019	0.16
622.463	0.16
622.907	0.16
623.352	0.16
623.796	0.16
624.24	0.16
624.684	0.16
625.128	0.16
625.572	0.16
626.016	0.16
626.461	0.16
626.905	0.16
627.349	0.15
627.793	0.15
628.236	0.15
628.68	0.15
629.124	0.15
629.568	0.15
630.012	0.15
630.456	0.15
630.9	0.15
631.343	0.15
631.787	0.15
632.231	0.15
632.674	0.15
633.118	0.15
633.562	0.16
634.005	0.16
634.449	0.16
634.892	0.16
635.336	0.16
635.779	0.16
636.223	0.16
636.666	0.16
637.109	0.16
637.553	0.16
637.996	0.16
638.439	0.16
638.883	0.17
639.326	0.17
639.769	0.17
640.212	0.17
640.655	0.17
641.099	0.17
641.542	0.17
641.985	0.17
642.428	0.17
642.871	0.17
643.314	0.18
643.757	0.18
644.2	0.18
644.643	0.18
645.085	0.18
645.528	0.18
645.971	0.18
646.414	0.19
646.857	0.19
647.299	0.19
647.742	0.19
648.185	0.19
648.627	0.2
649.07	0.2
649.513	0.2
649.955	0.2
650.398	0.2
650.84	0.21
651.283	0.21
651.725	0.21
652.168	0.21
652.61	0.21
653.052	0.22
653.495	0.22
653.937	0.17
654.379	0.14
654.821	0.14
655.264	0.14
655.706	0.14
656.148	0.15
656.59	0.15
657.032	0.15
657.474	0.15
657.916	0.15
658.358	0.14
658.8	0.18
659.242	0.24
659.684	0.25
660.126	0.25
660.568	0.25
661.01	0.26
661.452	0.26
661.894	0.26
662.335	0.26
662.777	0.27
663.219	0.27
663.661	0.27
664.102	0.28
664.544	0.28
664.985	0.28
665.427	0.28
665.869	0.29
666.31	0.29
666.752	0.29
667.193	0.29
667.634	0.3
668.076	0.3
668.517	0.3
668.959	0.3
669.4	0.31
669.841	0.31
670.282	0.31
670.724	0.31
671.165	0.31
671.606	0.31
672.047	0.32
672.488	0.32
672.929	0.32
673.37	0.32
673.811	0.32
674.252	0.32
674.693	0.32
675.134	0.33
675.575	0.33
676.016	0.33
676.457	0.33
676.898	0.33
677.339	0.33
677.78	0.33
678.22	0.34
678.661	0.34
679.102	0.34
679.542	0.34
679.983	0.34
680.424	0.34
680.864	0.34
681.305	0.35
681.745	0.35
682.186	0.35
682.626	0.35
683.067	0.35
683.507	0.35
683.948	0.35
684.388	0.35
684.828	0.35
685.269	0.35
685.709	0.35
686.149	0.35
686.589	0.35
687.029	0.35
687.47	0.35
687.91	0.35
688.35	0.35
688.79	0.36
689.23	0.36
689.67	0.36
690.11	0.36
690.55	0.36
690.99	0.36
691.43	0.36
691.87	0.36
692.31	0.36
692.749	0.36
693.189	0.35
693.629	0.35
694.069	0.35
694.508	0.35
694.948	0.35
695.388	0.35
695.827	0.35
696.267	0.35
696.706	0.35
697.146	0.35
697.586	0.35
698.025	0.34
698.464	0.34
698.904	0.34
699.343	0.34
699.783	0.34
700.222	0.34
700.661	0.34
701.101	0.34
701.54	0.34
701.979	0.34
702.418	0.34
702.857	0.34
703.297	0.33
703.736	0.33
704.175	0.33
704.614	0.33
705.053	0.33
705.492	0.33
705.931	0.33
706.37	0.32
706.809	0.32
707.248	0.32
707.687	0.32
708.125	0.32
708.564	0.32
709.003	0.32
709.442	0.32
709.88	0.31
710.319	0.31
710.758	0.31
711.196	0.31
711.635	0.31
712.074	0.31
712.512	0.3
712.951	0.3
713.389	0.3
713.828	0.3
714.266	0.3
714.705	0.3
715.143	0.29
715.581	0.29
716.02	0.29
716.458	0.29
716.896	0.29
717.334	0.28
717.773	0.28
718.211	0.28
718.649	0.28
719.087	0.28
719.525	0.28
719.963	0.27
720.401	0.27
720.839	0.27
721.277	0.27
721.715	0.27
722.153	0.27
722.591	0.27
723.029	0.26
723.467	0.26
723.905	0.26
724.342	0.26
724.78	0.26
725.218	0.26
725.656	0.26
726.093	0.25
726.531	0.25
726.969	0.25
727.406	0.25
727.844	0.25
728.281	0.25
728.719	0.25
729.156	0.25
729.594	0.24
730.031	0.24
730.469	0.24
730.906	0.24
731.343	0.24
731.781	0.24
732.218	0.24
732.655	0.24
733.092	0.23
733.53	0.23
733.967	0.23
734.404	0.23
734.841	0.23
735.278	0.22
735.715	0.22
736.152	0.22
736.589	0.22
737.026	0.22
737.463	0.21
737.9	0.21
738.337	0.21
738.774	0.21
739.211	0.21
739.647	0.21
740.084	0.21
740.521	0.21
740.958	0.2
741.394	0.2
741.831	0.2
742.268	0.2
742.704	0.2
743.141	0.2
743.577	0.2
744.014	0.19
744.45	0.19
744.887	0.19
745.323	0.19
745.76	0.19
746.196	0.19
746.632	0.19
747.069	0.18
747.505	0.18
747.941	0.18
748.378	0.18
748.814	0.18
749.25	0.18
749.686	0.18
750.122	0.17
750.558	0.17
750.994	0.17
751.43	0.17
751.866	0.17
752.302	0.17
752.738	0.16
753.174	0.16
753.61	0.16
754.046	0.16
754.482	0.15
754.918	0.15
755.354	0.15
755.789	0.15
756.225	0.15
756.661	0.15
757.096	0.15
757.532	0.15
757.968	0.14
758.403	0.14
758.839	0.14
759.274	0.14
759.71	0.14
760.145	0.14
760.581	0.14
761.016	0.13
761.452	0.13
761.887	0.13
762.322	0.13
762.758	0.13
763.193	0.13
763.628	0.12
764.063	0.12
764.499	0.12
764.934	0.11
765.369	0.11
765.804	0.11
766.239	0.11
766.674	0.1
767.109	0.1
767.544	0.1
767.979	0.09
768.414	0.09
768.849	0.09
769.284	0.09
769.719	0.09
770.154	0.08
770.588	0.08
771.023	0.08
771.458	0.07
771.893	0.07
772.327	0.06
772.762	0.06
773.197	0.06
773.631	0.05
774.066	0.05
774.5	0.04
774.935	0.04
775.369	0.03
775.804	0.03
776.238	0.02
776.673	0.02
777.107	0.01
777.541	0.01
777.976	-0
778.41	-0.01
778.844	-0.01
779.279	-0.01
779.713	-0.02
780.147	-0.02
780.581	-0.03
781.015	-0.03
781.449	-0.04
781.883	-0.04
782.317	-0.05
782.751	-0.06
783.185	-0.06
783.619	-0.07
784.053	-0.08
784.487	-0.09
784.921	-0.09
785.355	-0.1
785.789	-0.11
786.223	-0.11
786.656	-0.11
787.09	-0.11
787.524	-0.12
787.957	-0.12
788.391	-0.12
788.825	-0.13
789.258	-0.13
789.692	-0.13
790.125	-0.13
790.559	-0.13
790.992	-0.13
791.426	-0.13
791.859	-0.13
792.293	-0.12
792.726	-0.11
793.159	-0.1
793.593	-0.1
794.026	-0.1
794.459	-0.11
794.892	-0.11
795.326	-0.11
795.759	-0.11
796.192	-0.11
796.625	-0.12
797.058	-0.13
797.491	-0.14
797.924	-0.15
798.357	-0.15
798.79	-0.15
799.223	-0.15
799.656	-0.15
800.089	-0.15
800.522	-0.15
800.955	-0.16
801.387	-0.15
801.82	-0.16
802.253	-0.16
802.686	-0.16
803.118	-0.16
803.551	-0.16
803.984	-0.15
804.416	-0.15
804.849	-0.14
805.281	-0.14
805.714	-0.14
806.146	-0.14
806.579	-0.13
807.011	-0.13
807.444	-0.13
807.876	-0.13
808.308	-0.13
808.741	-0.14
809.173	-0.14
809.605	-0.15
810.037	-0.15
810.47	-0.15
810.902	-0.16
811.334	-0.16
811.766	-0.16
812.198	-0.15
812.63	-0.15
813.062	-0.16
813.494	-0.16
813.926	-0.16
814.358	-0.16
814.79	-0.16
815.222	-0.15
815.654	-0.15
816.086	-0.15
816.518	-0.15
816.949	-0.14
817.381	-0.14
817.813	-0.13
818.245	-0.12
818.676	-0.11
819.108	-0.1
819.54	-0.09
819.971	-0.09
820.403	-0.08
820.834	-0.07
821.266	-0.06
821.697	-0.05
822.129	-0.05
822.56	-0.04
822.991	-0.04
823.423	-0.03
823.854	-0.03
824.286	-0.02
824.717	-0.02
825.148	-0.01
825.579	-0.01
826.01	-0.01
826.442	-0
826.873	0
827.304	0
827.735	0.01
828.166	0.01
828.597	0.01
829.028	0.01
829.459	0.01
829.89	0.02
830.321	0.02
830.752	0.02
831.183	0.02
831.613	0.02
832.044	0.02
832.475	0.02
832.906	0.03
833.336	0.03
833.767	0.03
834.198	0.03
834.628	0.03
835.059	0.03
835.49	0.03
835.92	0.03
836.351	0.03
836.781	0.03
837.212	0.03
837.642	0.03
838.072	0.03
838.503	0.03
838.933	0.03
839.364	0.03
839.794	0.04
840.224	0.04
840.654	0.04
841.085	0.04
841.515	0.04
841.945	0.03
842.375	0.03
842.805	0.03
843.235	0.03
843.665	0.03
844.095	0.03
844.525	0.03
844.955	0.03
845.385	0.03
845.815	0.03
846.245	0.03
846.675	0.03
847.105	0.03
847.534	0.03
847.964	0.03
848.394	0.03
848.824	0.03
849.253	0.03
849.683	0.03
850.112	0.03
850.542	0.03
850.972	0.03
851.401	0.03
851.831	0.03
852.26	0.03
852.69	0.03
853.119	0.03
853.548	0.03
853.978	0.03
854.407	0.03
854.836	0.03
855.266	0.03
855.695	0.03
856.124	0.03
856.553	0.03
856.983	0.03
857.412	0.03
857.841	0.03
858.27	0.03
858.699	0.03
859.128	0.03
859.557	0.03
859.986	0.03
860.415	0.03
860.844	0.03
861.273	0.03
861.702	0.03
862.13	0.03
862.559	0.03
862.988	0.03
863.417	0.03
863.845	0.03
864.274	0.03
864.703	0.03
865.131	0.03
865.56	0.03
865.989	0.03
866.417	0.03
866.846	0.03
867.274	0.03
867.703	0.03
868.131	0.03
868.559	0.03
868.988	0.03
869.416	0.03
869.844	0.03
870.273	0.03
870.701	0.03
871.129	0.03
871.557	0.03
871.986	0.03
872.414	0.03
872.842	0.02
873.27	0.02
873.698	0.02
874.126	0.02
874.554	0.02
874.982	0.02
875.41	0.02
875.838	0.02
876.266	0.02
876.694	0.02
877.122	0.01
877.549	0.01
877.977	0.01
878.405	0.01
878.833	0.01
879.26	0.01
879.688	0.01
880.116	0.01
880.543	0.01
880.971	0.01
881.399	0.01
881.826	0.01
882.254	0.02
882.681	0.02
883.109	0.02
883.536	0.02
883.963	0.02
884.391	0.02
884.818	0.02
885.245	0.02
885.673	0.02
886.1	0.02
886.527	0.02
886.954	0.01
887.381	0.01
887.809	0.01
888.236	0.01
888.663	0.01
889.09	0.01
889.517	0.01
889.944	0.01
890.371	0.02
890.798	0.02
891.225	0.02
891.652	0.02
892.078	0.02
892.505	0.02
892.932	0.02
893.359	0.02
893.786	0.02
894.212	0.02
894.639	0.02
895.066	0.02
895.492	0.02
895.919	0.02
896.346	0.02
896.772	0.02
897.199	0.01
897.625	0.01
898.052	0.01
898.478	0.01
898.904	0.01
899.331	0.01
899.757	0.01
900.183	0.01
900.61	0.01
901.036	0.01
901.462	0.01
901.888	0.01
902.315	0.01
902.741	0.01
903.167	0.01
903.593	0.01
904.019	0.01
904.445	0.01
904.871	0.01
905.297	0.01
905.723	0.01
906.149	0.01
906.575	0.01
907.001	0.01
907.427	0.01
907.852	0.01
908.278	0.01
908.704	0.01
909.13	0.01
909.555	0.01
909.981	0.01
910.407	0.01
910.832	0.01
911.258	0.01
911.684	0.01
912.109	0.01
912.535	0.01
912.96	0.01
913.386	0.01
913.811	0.01
914.236	0.01
914.662	0.01
915.087	0.02
915.512	0.02
915.938	0.02
916.363	0.02
916.788	0.02
917.213	0.02
917.639	0.02
918.064	0.02
918.489	0.02
918.914	0.02
919.339	0.02
919.764	0.02
920.189	0.02
920.614	0.02
921.039	0.02
921.464	0.02
921.889	0.02
922.314	0.02
922.738	0.02
923.163	0.02
923.588	0.02
924.013	0.02
924.437	0.02
924.862	0.02
925.287	0.02
925.711	0.02
926.136	0.02
926.561	0.01
926.985	0.01
927.41	0.01
927.834	0.01
928.259	0.01
928.683	0.01
929.108	0.01
929.532	0.01
929.956	0.01
930.381	0.01
930.805	0.01
931.229	0.01
931.653	0.01
932.078	0.01
932.502	0
932.926	0
933.35	0
933.774	0
934.198	0
934.622	0
935.046	0
935.47	0
935.894	0
936.318	0
936.742	0
937.166	0
937.59	0
938.014	0
938.437	0
938.861	0
939.285	0
939.709	0
940.132	0
940.556	0
940.98	0
941.403	0
941.827	0
942.25	0
942.674	0
943.097	0
943.521	0
943.944	0
944.368	0
944.791	0
945.214	0.01
945.638	0.01
946.061	0.01
946.484	0.01
946.907	0.01
947.331	0.01
947.754	0.01
948.177	0.01
948.6	0.01
949.023	0.01
949.446	0.01
949.869	0.01
950.292	0.01
950.715	0.01
951.138	0.01
951.561	0.01
951.984	0
952.407	0
952.83	0
953.252	0
953.675	0
954.098	0
954.521	0
954.943	0
955.366	0
955.789	0
956.211	0
956.634	0
957.056	0
957.479	0
957.902	-0
958.324	-0
958.746	-0
959.169	-0
959.591	-0
960.014	-0
960.436	-0
960.858	-0
961.281	0
961.703	0
962.125	0
962.547	0
962.969	0
963.391	0
963.814	0
964.236	0
964.658	0
965.08	0
965.502	0
965.924	0
966.346	0
966.768	0
967.189	0
967.611	0
968.033	0
968.455	0
968.877	0
969.298	0
969.72	0
970.142	0
970.563	0
970.985	0
971.407	0
971.828	0
972.25	0
972.671	0
973.093	0
973.514	0
973.936	0
974.357	0
974.778	0
975.2	0
975.621	0
976.042	0
976.464	0
976.885	0
977.306	0
977.727	0
978.148	0
978.57	0.01
978.991	0.01
979.412	0.01
979.833	0.01
980.254	0.01
980.675	0.01
981.096	0.01
981.517	0.01
981.937	0.01
982.358	0.01
982.779	0.01
983.2	0.01
983.621	0.01
984.042	0
984.462	0
984.883	0
985.304	0
985.724	0
986.145	0
986.565	0
986.986	0
987.407	0
987.827	0
988.248	0
988.668	0
989.088	0
989.509	0
989.929	0
990.35	0
990.77	0.01
991.19	0.01
991.61	0.01
992.031	0.01
992.451	0.01
992.871	0.01
993.291	0.01
993.711	0.01
994.131	0.01
994.551	0.01
994.971	0.01
995.391	0.01
995.811	0
996.231	0
996.651	0
997.071	0
997.491	0
997.911	0
998.331	0
998.75	0
999.17	0
999.59	0
1000.009	0
1000.429	0
1000.849	0
1001.268	0
1001.688	0
1002.107	0
1002.527	0
1002.946	0
1003.366	0
1003.785	0
1004.205	0
1004.624	0
1005.044	-0
1005.463	-0
1005.882	-0
1006.301	-0
1006.721	-0
1007.14	-0
1007.559	-0
1007.978	-0.01
1008.397	-0.01
1008.816	-0.01
1009.235	-0.01
1009.655	-0.01
1010.074	-0.01
1010.492	-0.01
1010.911	-0.01
1011.33	-0.01
1011.749	-0.01
1012.168	-0.01
1012.587	-0.01
1013.006	-0.01
1013.425	-0.01
1013.843	-0.01
1014.262	-0.01
1014.681	-0.01
1015.099	-0.01
1015.518	-0.01
1015.937	-0.01
1016.355	-0.01
1016.774	-0.01
1017.192	-0.01
1017.611	-0.01
1018.029	-0.01
1018.448	-0.01
1018.866	-0.01
1019.285	-0.01
1019.703	-0.01
1020.121	-0.01
1020.54	-0.01
1020.958	-0.01
1021.376	-0
1021.794	-0
1022.213	-0
1022.631	-0
1023.049	-0
1023.467	-0
1023.885	-0
1024.303	-0
1024.721	-0
1025.139	-0
1025.557	-0
1025.975	-0
1026.393	-0
1026.811	-0
1027.229	-0
1027.647	-0
1028.065	-0
1028.482	-0
1028.9	-0
1029.318	-0
1029.735	-0
1030.153	-0
1030.571	-0
1030.988	0
1031.406	0
1031.823	0
1032.241	0
1032.659	-0
1033.076	-0
1033.493	-0
1033.911	-0
1034.328	-0
1034.746	-0
1035.163	-0
1035.58	-0
1035.997	-0
1036.415	-0.01
1036.832	-0.01
1037.249	-0.01
1037.666	-0.01
1038.083	-0.01
1038.501	-0.01
1038.918	-0.01
1039.335	-0.01
1039.752	-0.01
1040.169	-0.01
1040.586	-0.01
1041.003	-0.01
1041.419	-0.01
1041.836	-0.01
1042.253	-0.01
1042.67	-0.01
1043.087	-0.01
1043.504	-0.01
1043.92	-0.01
1044.337	-0.01
1044.754	-0.01
1045.17	-0.01
1045.587	-0.01
1046.004	-0.01
1046.42	-0.01
1046.837	-0.01
1047.253	-0.01
1047.67	-0.01
1048.086	-0.01
1048.503	-0.01
1048.919	-0.01
1049.335	-0.01
1049.752	-0
1050.168	-0
1050.584	-0
1051.001	-0
1051.417	-0
1051.833	-0
1052.249	-0
1052.665	-0
1053.081	-0
1053.497	-0
1053.914	-0
1054.33	-0
1054.746	-0
1055.162	-0
1055.578	-0
1055.993	-0
1056.409	-0
1056.825	-0
1057.241	-0
1057.657	-0
1058.073	-0.01
1058.488	-0.01
1058.904	-0.01
1059.32	-0.01
1059.736	-0.01
1060.151	-0.01
1060.567	-0.01
1060.982	-0.01
1061.398	-0.01
1061.813	-0.01
1062.229	-0.01
1062.644	-0.01
1063.06	-0.01
1063.475	-0.01
1063.891	-0.01
1064.306	-0.01
1064.721	-0.01
1065.137	-0.01
1065.552	-0.01
1065.967	-0.01
1066.382	-0.01
1066.798	-0.01
1067.213	-0.01
1067.628	-0.01
1068.043	-0.01
1068.458	-0.01
1068.873	-0.01
1069.288	-0.01
1069.703	-0.01
1070.118	-0.01
1070.533	-0.01
1070.948	-0.01
1071.363	-0.01
1071.778	-0.01
1072.193	-0.01
1072.607	-0.01
1073.022	-0.01
1073.437	-0.02
1073.852	-0.02
1074.266	-0.02
1074.681	-0.02
1075.096	-0.02
1075.51	-0.02
1075.925	-0.02
1076.339	-0.02
1076.754	-0.02
1077.168	-0.02
1077.583	-0.02
1077.997	-0.02
1078.412	-0.02
1078.826	-0.02
1079.24	-0.02
1079.655	-0.02
1080.069	-0.02
1080.483	-0.02
1080.897	-0.02
1081.312	-0.02
1081.726	-0.02
1082.14	-0.02
1082.554	-0.02
1082.968	-0.02
1083.382	-0.02
1083.796	-0.02
1084.21	-0.02
1084.624	-0.02
1085.038	-0.02
1085.452	-0.02
1085.866	-0.02
1086.28	-0.02
1086.694	-0.02
1087.108	-0.02
1087.521	-0.02
1087.935	-0.02
1088.349	-0.02
1088.763	-0.02
1089.176	-0.02
1089.59	-0.02
1090.004	-0.02
1090.417	-0.02
1090.831	-0.03
1091.244	-0.03
1091.658	-0.03
1092.071	-0.03
1092.485	-0.03
1092.898	-0.03
1093.312	-0.03
1093.725	-0.03
1094.138	-0.03
1094.552	-0.03
1094.965	-0.03
1095.378	-0.03
1095.791	-0.03
1096.205	-0.03
1096.618	-0.03
1097.031	-0.03
1097.444	-0.03
1097.857	-0.03
1098.27	-0.03
1098.683	-0.04
1099.096	-0.04
1099.509	-0.04
1099.922	-0.04
1100.335	-0.04
1100.748	-0.04
1101.161	-0.04
1101.574	-0.04
1101.986	-0.04
1102.399	-0.04
1102.812	-0.04
1103.225	-0.04
1103.637	-0.04
1104.05	-0.04
1104.463	-0.04
1104.875	-0.04
1105.288	-0.04
1105.7	-0.05
1106.113	-0.05
1106.525	-0.05
1106.938	-0.05
1107.35	-0.05
1107.763	-0.05
1108.175	-0.06
1108.588	-0.06
1109	-0.06
1109.412	-0.06
1109.824	-0.06
1110.237	-0.06
1110.649	-0.06
1111.061	-0.06
