Data from 2024-02-06-100ns-20nr-25nacl-100h2o-7bp2-1_8a808-40to10hyt-0_5cpm_Absorbance__86__00475.txt Node

Date: Tue Feb 06 16:07:19 CET 2024
User: Laser008
Spectrometer: MAYP115816
Trigger mode: 0
Integration Time (sec): 2.000000E-1
Scans to average: 10
Electric dark correction enabled: true
Nonlinearity correction enabled: true
Boxcar width: 5
XAxis mode: Wavelengths
Number of Pixels in Spectrum: 2068
>>>>>Begin Spectral Data<<<<<
198.914	-0.25
199.384	-0.23
199.855	-0.18
200.325	-0.15
200.796	-0.13
201.266	-0.11
201.737	-0.1
202.207	-0.1
202.677	-0.09
203.147	-0.09
203.618	-0.08
204.088	-0.07
204.558	-0.06
205.028	-0.06
205.498	-0.06
205.968	-0.06
206.439	-0.06
206.909	-0.05
207.379	-0.06
207.849	-0.06
208.319	-0.06
208.789	-0.05
209.258	-0.06
209.728	-0.06
210.198	-0.06
210.668	-0.06
211.138	-0.06
211.608	-0.06
212.077	-0.06
212.547	-0.06
213.017	-0.06
213.486	-0.06
213.956	-0.06
214.426	-0.06
214.895	-0.06
215.365	-0.06
215.834	-0.06
216.304	-0.06
216.773	-0.06
217.243	-0.05
217.712	-0.05
218.181	-0.05
218.651	-0.04
219.12	-0.04
219.589	-0.04
220.058	-0.04
220.528	-0.04
220.997	-0.04
221.466	-0.03
221.935	-0.03
222.404	-0.03
222.873	-0.02
223.342	-0.02
223.812	-0.02
224.281	-0.01
224.749	-0.01
225.218	-0
225.687	0
226.156	0.01
226.625	0.02
227.094	0.03
227.563	0.03
228.031	0.04
228.5	0.06
228.969	0.07
229.438	0.09
229.906	0.1
230.375	0.12
230.844	0.14
231.312	0.17
231.781	0.18
232.249	0.2
232.718	0.22
233.186	0.25
233.655	0.26
234.123	0.28
234.591	0.3
235.06	0.31
235.528	0.32
235.996	0.34
236.465	0.35
236.933	0.36
237.401	0.37
237.869	0.37
238.337	0.38
238.805	0.39
239.274	0.39
239.742	0.4
240.21	0.4
240.678	0.4
241.146	0.41
241.614	0.41
242.081	0.41
242.549	0.41
243.017	0.42
243.485	0.42
243.953	0.42
244.421	0.42
244.888	0.42
245.356	0.43
245.824	0.43
246.291	0.43
246.759	0.43
247.227	0.43
247.694	0.44
248.162	0.44
248.629	0.44
249.097	0.44
249.564	0.44
250.032	0.44
250.499	0.45
250.967	0.45
251.434	0.45
251.901	0.45
252.369	0.45
252.836	0.45
253.303	0.45
253.77	0.45
254.237	0.46
254.705	0.46
255.172	0.46
255.639	0.46
256.106	0.46
256.573	0.46
257.04	0.46
257.507	0.46
257.974	0.46
258.441	0.46
258.908	0.46
259.375	0.46
259.841	0.46
260.308	0.46
260.775	0.46
261.242	0.46
261.709	0.46
262.175	0.46
262.642	0.46
263.109	0.46
263.575	0.46
264.042	0.46
264.508	0.46
264.975	0.46
265.441	0.45
265.908	0.45
266.374	0.45
266.841	0.45
267.307	0.45
267.773	0.45
268.24	0.44
268.706	0.44
269.172	0.44
269.639	0.44
270.105	0.44
270.571	0.43
271.037	0.43
271.503	0.43
271.969	0.43
272.435	0.42
272.902	0.42
273.368	0.42
273.834	0.42
274.3	0.41
274.765	0.41
275.231	0.41
275.697	0.41
276.163	0.4
276.629	0.4
277.095	0.4
277.56	0.4
278.026	0.39
278.492	0.39
278.958	0.39
279.423	0.38
279.889	0.38
280.354	0.38
280.82	0.37
281.286	0.37
281.751	0.37
282.217	0.37
282.682	0.36
283.147	0.36
283.613	0.36
284.078	0.36
284.544	0.35
285.009	0.35
285.474	0.35
285.939	0.35
286.405	0.34
286.87	0.34
287.335	0.34
287.8	0.34
288.265	0.34
288.73	0.33
289.195	0.33
289.66	0.33
290.125	0.33
290.59	0.33
291.055	0.32
291.52	0.32
291.985	0.32
292.45	0.32
292.915	0.32
293.38	0.32
293.844	0.31
294.309	0.31
294.774	0.31
295.239	0.31
295.703	0.31
296.168	0.31
296.632	0.31
297.097	0.31
297.562	0.3
298.026	0.3
298.491	0.3
298.955	0.3
299.419	0.3
299.884	0.3
300.348	0.3
300.813	0.3
301.277	0.3
301.741	0.3
302.205	0.3
302.67	0.29
303.134	0.29
303.598	0.29
304.062	0.29
304.526	0.29
304.99	0.29
305.454	0.29
305.919	0.29
306.383	0.29
306.847	0.29
307.31	0.29
307.774	0.29
308.238	0.28
308.702	0.28
309.166	0.28
309.63	0.28
310.094	0.28
310.557	0.28
311.021	0.28
311.485	0.28
311.948	0.28
312.412	0.28
312.876	0.28
313.339	0.28
313.803	0.28
314.266	0.27
314.73	0.27
315.193	0.27
315.657	0.27
316.12	0.27
316.584	0.27
317.047	0.27
317.51	0.27
317.973	0.27
318.437	0.27
318.9	0.27
319.363	0.27
319.826	0.27
320.29	0.27
320.753	0.27
321.216	0.27
321.679	0.27
322.142	0.26
322.605	0.26
323.068	0.26
323.531	0.26
323.994	0.26
324.457	0.26
324.92	0.26
325.382	0.26
325.845	0.26
326.308	0.26
326.771	0.26
327.233	0.26
327.696	0.26
328.159	0.26
328.622	0.26
329.084	0.25
329.547	0.25
330.009	0.25
330.472	0.25
330.934	0.25
331.397	0.25
331.859	0.25
332.322	0.25
332.784	0.25
333.246	0.25
333.709	0.25
334.171	0.25
334.633	0.25
335.096	0.25
335.558	0.25
336.02	0.25
336.482	0.25
336.944	0.25
337.406	0.24
337.868	0.24
338.331	0.24
338.793	0.24
339.255	0.24
339.717	0.24
340.178	0.24
340.64	0.24
341.102	0.24
341.564	0.24
342.026	0.24
342.488	0.24
342.949	0.24
343.411	0.24
343.873	0.24
344.335	0.24
344.796	0.24
345.258	0.24
345.719	0.24
346.181	0.24
346.643	0.24
347.104	0.24
347.566	0.24
348.027	0.24
348.488	0.24
348.95	0.24
349.411	0.24
349.873	0.24
350.334	0.24
350.795	0.24
351.256	0.24
351.718	0.24
352.179	0.23
352.64	0.23
353.101	0.23
353.562	0.23
354.023	0.23
354.484	0.23
354.945	0.23
355.406	0.23
355.867	0.23
356.328	0.23
356.789	0.23
357.25	0.23
357.711	0.23
358.172	0.23
358.633	0.23
359.093	0.23
359.554	0.23
360.015	0.23
360.476	0.23
360.936	0.23
361.397	0.23
361.858	0.23
362.318	0.23
362.779	0.23
363.239	0.23
363.7	0.23
364.16	0.23
364.621	0.23
365.081	0.23
365.541	0.23
366.002	0.23
366.462	0.23
366.922	0.23
367.383	0.23
367.843	0.23
368.303	0.23
368.763	0.23
369.223	0.23
369.684	0.23
370.144	0.23
370.604	0.23
371.064	0.23
371.524	0.23
371.984	0.23
372.444	0.23
372.904	0.23
373.363	0.23
373.823	0.23
374.283	0.23
374.743	0.23
375.203	0.23
375.663	0.23
376.122	0.22
376.582	0.22
377.042	0.22
377.501	0.22
377.961	0.22
378.42	0.22
378.88	0.22
379.34	0.22
379.799	0.22
380.259	0.22
380.718	0.22
381.177	0.22
381.637	0.22
382.096	0.22
382.555	0.22
383.015	0.22
383.474	0.22
383.933	0.22
384.393	0.22
384.852	0.22
385.311	0.22
385.77	0.22
386.229	0.22
386.688	0.22
387.147	0.22
387.606	0.22
388.065	0.22
388.524	0.22
388.983	0.22
389.442	0.22
389.901	0.22
390.36	0.22
390.819	0.22
391.277	0.22
391.736	0.22
392.195	0.22
392.654	0.22
393.112	0.22
393.571	0.22
394.03	0.22
394.488	0.22
394.947	0.21
395.405	0.21
395.864	0.21
396.322	0.21
396.781	0.21
397.239	0.21
397.698	0.21
398.156	0.21
398.614	0.21
399.073	0.21
399.531	0.21
399.989	0.21
400.447	0.21
400.905	0.21
401.364	0.21
401.822	0.21
402.28	0.21
402.738	0.21
403.196	0.21
403.654	0.21
404.112	0.21
404.57	0.21
405.028	0.21
405.486	0.21
405.944	0.21
406.402	0.21
406.859	0.21
407.317	0.21
407.775	0.21
408.233	0.21
408.691	0.21
409.148	0.21
409.606	0.21
410.064	0.21
410.521	0.21
410.979	0.21
411.436	0.2
411.894	0.2
412.351	0.2
412.809	0.2
413.266	0.2
413.724	0.2
414.181	0.2
414.638	0.2
415.096	0.2
415.553	0.2
416.01	0.2
416.467	0.2
416.925	0.2
417.382	0.2
417.839	0.2
418.296	0.2
418.753	0.2
419.21	0.2
419.667	0.2
420.124	0.2
420.581	0.2
421.038	0.2
421.495	0.2
421.952	0.2
422.409	0.2
422.866	0.2
423.322	0.2
423.779	0.2
424.236	0.2
424.693	0.2
425.149	0.2
425.606	0.2
426.063	0.2
426.519	0.2
426.976	0.2
427.433	0.2
427.889	0.2
428.346	0.2
428.802	0.2
429.258	0.2
429.715	0.2
430.171	0.2
430.628	0.2
431.084	0.2
431.54	0.2
431.997	0.2
432.453	0.19
432.909	0.19
433.365	0.19
433.821	0.19
434.277	0.19
434.734	0.19
435.19	0.19
435.646	0.19
436.102	0.19
436.558	0.19
437.014	0.19
437.47	0.19
437.925	0.19
438.381	0.19
438.837	0.19
439.293	0.19
439.749	0.19
440.205	0.19
440.66	0.19
441.116	0.19
441.572	0.19
442.027	0.19
442.483	0.19
442.939	0.19
443.394	0.19
443.85	0.19
444.305	0.19
444.761	0.19
445.216	0.19
445.672	0.19
446.127	0.19
446.582	0.19
447.038	0.19
447.493	0.19
447.948	0.19
448.403	0.19
448.859	0.19
449.314	0.19
449.769	0.19
450.224	0.19
450.679	0.19
451.134	0.19
451.589	0.19
452.044	0.19
452.499	0.19
452.954	0.19
453.409	0.19
453.864	0.19
454.319	0.19
454.774	0.19
455.229	0.19
455.684	0.19
456.138	0.19
456.593	0.19
457.048	0.19
457.503	0.19
457.957	0.19
458.412	0.19
458.866	0.19
459.321	0.19
459.776	0.19
460.23	0.19
460.685	0.19
461.139	0.19
461.593	0.19
462.048	0.19
462.502	0.19
462.957	0.19
463.411	0.19
463.865	0.19
464.319	0.19
464.774	0.19
465.228	0.19
465.682	0.19
466.136	0.19
466.59	0.19
467.044	0.19
467.499	0.19
467.953	0.19
468.407	0.19
468.861	0.19
469.315	0.19
469.768	0.19
470.222	0.19
470.676	0.19
471.13	0.19
471.584	0.19
472.038	0.19
472.491	0.19
472.945	0.19
473.399	0.19
473.852	0.19
474.306	0.19
474.76	0.19
475.213	0.19
475.667	0.19
476.12	0.2
476.574	0.2
477.027	0.2
477.481	0.2
477.934	0.2
478.388	0.2
478.841	0.2
479.294	0.2
479.748	0.2
480.201	0.2
480.654	0.2
481.107	0.2
481.561	0.2
482.014	0.2
482.467	0.2
482.92	0.2
483.373	0.2
483.826	0.21
484.279	0.21
484.732	0.21
485.185	0.21
485.638	0.21
486.091	0.21
486.544	0.21
486.997	0.21
487.449	0.21
487.902	0.21
488.355	0.21
488.808	0.21
489.26	0.22
489.713	0.22
490.166	0.22
490.618	0.22
491.071	0.22
491.523	0.22
491.976	0.22
492.429	0.22
492.881	0.22
493.333	0.23
493.786	0.23
494.238	0.23
494.691	0.23
495.143	0.23
495.595	0.23
496.048	0.23
496.5	0.24
496.952	0.24
497.404	0.24
497.856	0.24
498.309	0.24
498.761	0.24
499.213	0.24
499.665	0.25
500.117	0.25
500.569	0.25
501.021	0.25
501.473	0.25
501.925	0.26
502.377	0.26
502.828	0.26
503.28	0.26
503.732	0.26
504.184	0.26
504.636	0.27
505.087	0.27
505.539	0.27
505.991	0.27
506.442	0.27
506.894	0.27
507.345	0.27
507.797	0.28
508.249	0.28
508.7	0.28
509.151	0.28
509.603	0.28
510.054	0.28
510.506	0.29
510.957	0.29
511.408	0.29
511.86	0.29
512.311	0.29
512.762	0.29
513.213	0.29
513.665	0.29
514.116	0.3
514.567	0.3
515.018	0.3
515.469	0.3
515.92	0.3
516.371	0.3
516.822	0.3
517.273	0.3
517.724	0.3
518.175	0.3
518.626	0.3
519.076	0.3
519.527	0.31
519.978	0.31
520.429	0.31
520.88	0.31
521.33	0.31
521.781	0.31
522.232	0.31
522.682	0.31
523.133	0.31
523.583	0.31
524.034	0.31
524.484	0.31
524.935	0.31
525.385	0.31
525.836	0.31
526.286	0.31
526.736	0.31
527.187	0.31
527.637	0.31
528.087	0.31
528.538	0.31
528.988	0.31
529.438	0.31
529.888	0.31
530.338	0.31
530.788	0.31
531.238	0.31
531.688	0.31
532.139	0.31
532.589	0.31
533.038	0.31
533.488	0.31
533.938	0.31
534.388	0.3
534.838	0.3
535.288	0.3
535.738	0.3
536.187	0.3
536.637	0.3
537.087	0.3
537.537	0.3
537.986	0.3
538.436	0.29
538.885	0.29
539.335	0.29
539.785	0.29
540.234	0.29
540.684	0.29
541.133	0.29
541.582	0.29
542.032	0.28
542.481	0.28
542.931	0.28
543.38	0.28
543.829	0.28
544.278	0.28
544.728	0.28
545.177	0.27
545.626	0.27
546.075	0.27
546.524	0.27
546.973	0.27
547.422	0.27
547.871	0.27
548.32	0.26
548.769	0.26
549.218	0.26
549.667	0.26
550.116	0.26
550.565	0.26
551.014	0.25
551.463	0.25
551.911	0.25
552.36	0.25
552.809	0.25
553.258	0.25
553.706	0.24
554.155	0.24
554.603	0.24
555.052	0.24
555.501	0.24
555.949	0.24
556.398	0.23
556.846	0.23
557.294	0.23
557.743	0.23
558.191	0.23
558.64	0.23
559.088	0.23
559.536	0.22
559.985	0.22
560.433	0.22
560.881	0.22
561.329	0.22
561.777	0.22
562.225	0.22
562.674	0.22
563.122	0.21
563.57	0.21
564.018	0.21
564.466	0.21
564.914	0.21
565.362	0.21
565.809	0.2
566.257	0.2
566.705	0.2
567.153	0.2
567.601	0.2
568.048	0.2
568.496	0.2
568.944	0.2
569.392	0.19
569.839	0.19
570.287	0.19
570.734	0.19
571.182	0.19
571.63	0.19
572.077	0.19
572.525	0.19
572.972	0.19
573.419	0.18
573.867	0.18
574.314	0.18
574.761	0.18
575.209	0.18
575.656	0.18
576.103	0.18
576.551	0.18
576.998	0.18
577.445	0.18
577.892	0.17
578.339	0.17
578.786	0.17
579.233	0.17
579.68	0.17
580.127	0.17
580.574	0.17
581.021	0.17
581.468	0.17
581.915	0.17
582.362	0.17
582.809	0.17
583.255	0.16
583.702	0.16
584.149	0.16
584.596	0.16
585.042	0.16
585.489	0.16
585.936	0.16
586.382	0.15
586.829	0.15
587.275	0.15
587.722	0.15
588.168	0.15
588.615	0.15
589.061	0.15
589.508	0.15
589.954	0.15
590.4	0.15
590.847	0.15
591.293	0.15
591.739	0.14
592.185	0.14
592.632	0.14
593.078	0.14
593.524	0.14
593.97	0.14
594.416	0.14
594.862	0.14
595.308	0.14
595.754	0.14
596.2	0.14
596.646	0.14
597.092	0.14
597.538	0.13
597.984	0.13
598.43	0.13
598.876	0.13
599.321	0.13
599.767	0.13
600.213	0.13
600.659	0.13
601.104	0.13
601.55	0.13
601.995	0.13
602.441	0.13
602.887	0.13
603.332	0.13
603.778	0.13
604.223	0.13
604.668	0.13
605.114	0.13
605.559	0.13
606.005	0.13
606.45	0.13
606.895	0.13
607.341	0.12
607.786	0.12
608.231	0.12
608.676	0.12
609.121	0.12
609.566	0.12
610.012	0.12
610.457	0.12
610.902	0.12
611.347	0.12
611.792	0.12
612.237	0.12
612.682	0.12
613.127	0.12
613.571	0.12
614.016	0.12
614.461	0.12
614.906	0.12
615.351	0.12
615.795	0.12
616.24	0.12
616.685	0.12
617.129	0.12
617.574	0.12
618.019	0.12
618.463	0.12
618.908	0.12
619.352	0.12
619.797	0.12
620.241	0.12
620.686	0.12
621.13	0.12
621.574	0.12
622.019	0.12
622.463	0.12
622.907	0.12
623.352	0.12
623.796	0.12
624.24	0.12
624.684	0.12
625.128	0.12
625.572	0.12
626.016	0.12
626.461	0.12
626.905	0.12
627.349	0.12
627.793	0.12
628.236	0.12
628.68	0.12
629.124	0.12
629.568	0.12
630.012	0.12
630.456	0.12
630.9	0.12
631.343	0.12
631.787	0.12
632.231	0.12
632.674	0.12
633.118	0.12
633.562	0.13
634.005	0.13
634.449	0.13
634.892	0.13
635.336	0.13
635.779	0.13
636.223	0.13
636.666	0.13
637.109	0.14
637.553	0.14
637.996	0.14
638.439	0.14
638.883	0.14
639.326	0.14
639.769	0.14
640.212	0.14
640.655	0.14
641.099	0.15
641.542	0.15
641.985	0.15
642.428	0.15
642.871	0.15
643.314	0.15
643.757	0.16
644.2	0.16
644.643	0.16
645.085	0.16
645.528	0.16
645.971	0.16
646.414	0.17
646.857	0.17
647.299	0.17
647.742	0.17
648.185	0.17
648.627	0.18
649.07	0.18
649.513	0.18
649.955	0.18
650.398	0.19
650.84	0.19
651.283	0.19
651.725	0.19
652.168	0.2
652.61	0.2
653.052	0.2
653.495	0.21
653.937	0.16
654.379	0.13
654.821	0.13
655.264	0.14
655.706	0.14
656.148	0.14
656.59	0.14
657.032	0.14
657.474	0.14
657.916	0.14
658.358	0.14
658.8	0.18
659.242	0.23
659.684	0.24
660.126	0.24
660.568	0.24
661.01	0.25
661.452	0.25
661.894	0.25
662.335	0.26
662.777	0.26
663.219	0.26
663.661	0.27
664.102	0.27
664.544	0.27
664.985	0.28
665.427	0.28
665.869	0.28
666.31	0.28
666.752	0.28
667.193	0.29
667.634	0.29
668.076	0.29
668.517	0.29
668.959	0.29
669.4	0.3
669.841	0.3
670.282	0.3
670.724	0.3
671.165	0.3
671.606	0.31
672.047	0.31
672.488	0.31
672.929	0.31
673.37	0.31
673.811	0.31
674.252	0.32
674.693	0.32
675.134	0.32
675.575	0.32
676.016	0.32
676.457	0.32
676.898	0.33
677.339	0.33
677.78	0.33
678.22	0.33
678.661	0.33
679.102	0.33
679.542	0.33
679.983	0.33
680.424	0.33
680.864	0.33
681.305	0.33
681.745	0.33
682.186	0.34
682.626	0.34
683.067	0.34
683.507	0.34
683.948	0.34
684.388	0.34
684.828	0.34
685.269	0.34
685.709	0.34
686.149	0.34
686.589	0.34
687.029	0.34
687.47	0.34
687.91	0.34
688.35	0.34
688.79	0.34
689.23	0.34
689.67	0.34
690.11	0.34
690.55	0.34
690.99	0.34
691.43	0.34
691.87	0.34
692.31	0.34
692.749	0.34
693.189	0.34
693.629	0.34
694.069	0.33
694.508	0.33
694.948	0.33
695.388	0.33
695.827	0.33
696.267	0.33
696.706	0.33
697.146	0.33
697.586	0.32
698.025	0.32
698.464	0.32
698.904	0.32
699.343	0.32
699.783	0.32
700.222	0.32
700.661	0.31
701.101	0.31
701.54	0.31
701.979	0.31
702.418	0.31
702.857	0.31
703.297	0.31
703.736	0.3
704.175	0.3
704.614	0.3
705.053	0.3
705.492	0.3
705.931	0.3
706.37	0.29
706.809	0.29
707.248	0.29
707.687	0.29
708.125	0.29
708.564	0.29
709.003	0.29
709.442	0.28
709.88	0.28
710.319	0.28
710.758	0.28
711.196	0.28
711.635	0.27
712.074	0.27
712.512	0.27
712.951	0.27
713.389	0.27
713.828	0.26
714.266	0.26
714.705	0.26
715.143	0.26
715.581	0.26
716.02	0.25
716.458	0.25
716.896	0.25
717.334	0.25
717.773	0.25
718.211	0.25
718.649	0.24
719.087	0.24
719.525	0.24
719.963	0.24
720.401	0.24
720.839	0.23
721.277	0.23
721.715	0.23
722.153	0.23
722.591	0.23
723.029	0.22
723.467	0.22
723.905	0.22
724.342	0.22
724.78	0.22
725.218	0.22
725.656	0.21
726.093	0.21
726.531	0.21
726.969	0.21
727.406	0.21
727.844	0.21
728.281	0.2
728.719	0.2
729.156	0.2
729.594	0.2
730.031	0.2
730.469	0.2
730.906	0.2
731.343	0.19
731.781	0.19
732.218	0.19
732.655	0.19
733.092	0.19
733.53	0.19
733.967	0.18
734.404	0.18
734.841	0.18
735.278	0.18
735.715	0.18
736.152	0.18
736.589	0.18
737.026	0.17
737.463	0.17
737.9	0.17
738.337	0.17
738.774	0.17
739.211	0.17
739.647	0.17
740.084	0.16
740.521	0.16
740.958	0.16
741.394	0.16
741.831	0.16
742.268	0.16
742.704	0.16
743.141	0.15
743.577	0.15
744.014	0.15
744.45	0.15
744.887	0.15
745.323	0.15
745.76	0.14
746.196	0.14
746.632	0.14
747.069	0.14
747.505	0.14
747.941	0.14
748.378	0.14
748.814	0.13
749.25	0.13
749.686	0.13
750.122	0.13
750.558	0.13
750.994	0.13
751.43	0.13
751.866	0.13
752.302	0.13
752.738	0.12
753.174	0.12
753.61	0.12
754.046	0.12
754.482	0.12
754.918	0.12
755.354	0.11
755.789	0.11
756.225	0.11
756.661	0.11
757.096	0.11
757.532	0.11
757.968	0.11
758.403	0.11
758.839	0.11
759.274	0.11
759.71	0.1
760.145	0.1
760.581	0.1
761.016	0.1
761.452	0.1
761.887	0.1
762.322	0.1
762.758	0.1
763.193	0.09
763.628	0.09
764.063	0.09
764.499	0.09
764.934	0.09
765.369	0.09
765.804	0.08
766.239	0.08
766.674	0.08
767.109	0.08
767.544	0.08
767.979	0.08
768.414	0.07
768.849	0.07
769.284	0.07
769.719	0.07
770.154	0.07
770.588	0.07
771.023	0.06
771.458	0.06
771.893	0.06
772.327	0.06
772.762	0.05
773.197	0.05
773.631	0.05
774.066	0.04
774.5	0.04
774.935	0.04
775.369	0.03
775.804	0.03
776.238	0.03
776.673	0.02
777.107	0.02
777.541	0.02
777.976	0.01
778.41	0.01
778.844	0.01
779.279	0
779.713	0
780.147	-0
780.581	-0.01
781.015	-0.01
781.449	-0.01
781.883	-0.02
782.317	-0.02
782.751	-0.03
783.185	-0.03
783.619	-0.04
784.053	-0.04
784.487	-0.05
784.921	-0.05
785.355	-0.06
785.789	-0.06
786.223	-0.07
786.656	-0.07
787.09	-0.08
787.524	-0.08
787.957	-0.09
788.391	-0.09
788.825	-0.1
789.258	-0.11
789.692	-0.11
790.125	-0.11
790.559	-0.12
790.992	-0.12
791.426	-0.13
791.859	-0.12
792.293	-0.11
792.726	-0.11
793.159	-0.1
793.593	-0.1
794.026	-0.1
794.459	-0.11
794.892	-0.11
795.326	-0.11
795.759	-0.11
796.192	-0.11
796.625	-0.12
797.058	-0.13
797.491	-0.14
797.924	-0.15
798.357	-0.15
798.79	-0.15
799.223	-0.15
799.656	-0.15
800.089	-0.15
800.522	-0.15
800.955	-0.16
801.387	-0.15
801.82	-0.16
802.253	-0.16
802.686	-0.16
803.118	-0.16
803.551	-0.16
803.984	-0.15
804.416	-0.15
804.849	-0.14
805.281	-0.14
805.714	-0.14
806.146	-0.14
806.579	-0.13
807.011	-0.13
807.444	-0.13
807.876	-0.13
808.308	-0.13
808.741	-0.14
809.173	-0.14
809.605	-0.15
810.037	-0.15
810.47	-0.15
810.902	-0.16
811.334	-0.16
811.766	-0.16
812.198	-0.15
812.63	-0.15
813.062	-0.15
813.494	-0.15
813.926	-0.15
814.358	-0.15
814.79	-0.14
815.222	-0.13
815.654	-0.13
816.086	-0.12
816.518	-0.12
816.949	-0.11
817.381	-0.1
817.813	-0.09
818.245	-0.08
818.676	-0.07
819.108	-0.07
819.54	-0.06
819.971	-0.05
820.403	-0.05
820.834	-0.04
821.266	-0.04
821.697	-0.03
822.129	-0.03
822.56	-0.02
822.991	-0.02
823.423	-0.02
823.854	-0.01
824.286	-0.01
824.717	-0.01
825.148	-0
825.579	0
826.01	0
826.442	0
826.873	0.01
827.304	0.01
827.735	0.01
828.166	0.01
828.597	0.01
829.028	0.01
829.459	0.01
829.89	0.02
830.321	0.02
830.752	0.02
831.183	0.02
831.613	0.02
832.044	0.02
832.475	0.02
832.906	0.02
833.336	0.02
833.767	0.02
834.198	0.03
834.628	0.03
835.059	0.03
835.49	0.03
835.92	0.03
836.351	0.03
836.781	0.03
837.212	0.03
837.642	0.03
838.072	0.03
838.503	0.03
838.933	0.03
839.364	0.03
839.794	0.03
840.224	0.03
840.654	0.02
841.085	0.02
841.515	0.02
841.945	0.02
842.375	0.02
842.805	0.02
843.235	0.02
843.665	0.02
844.095	0.02
844.525	0.02
844.955	0.02
845.385	0.02
845.815	0.02
846.245	0.02
846.675	0.02
847.105	0.02
847.534	0.02
847.964	0.02
848.394	0.02
848.824	0.02
849.253	0.02
849.683	0.02
850.112	0.02
850.542	0.02
850.972	0.02
851.401	0.02
851.831	0.02
852.26	0.02
852.69	0.02
853.119	0.02
853.548	0.02
853.978	0.02
854.407	0.02
854.836	0.02
855.266	0.02
855.695	0.02
856.124	0.02
856.553	0.02
856.983	0.02
857.412	0.02
857.841	0.02
858.27	0.02
858.699	0.02
859.128	0.02
859.557	0.03
859.986	0.03
860.415	0.03
860.844	0.03
861.273	0.03
861.702	0.03
862.13	0.03
862.559	0.03
862.988	0.03
863.417	0.03
863.845	0.03
864.274	0.02
864.703	0.02
865.131	0.02
865.56	0.02
865.989	0.02
866.417	0.02
866.846	0.02
867.274	0.02
867.703	0.02
868.131	0.02
868.559	0.02
868.988	0.03
869.416	0.02
869.844	0.02
870.273	0.02
870.701	0.02
871.129	0.02
871.557	0.02
871.986	0.02
872.414	0.02
872.842	0.02
873.27	0.02
873.698	0.02
874.126	0.02
874.554	0.02
874.982	0.02
875.41	0.02
875.838	0.02
876.266	0.02
876.694	0.02
877.122	0.02
877.549	0.02
877.977	0.02
878.405	0.02
878.833	0.02
879.26	0.02
879.688	0.02
880.116	0.02
880.543	0.01
880.971	0.01
881.399	0.01
881.826	0.01
882.254	0.01
882.681	0.01
883.109	0.01
883.536	0.01
883.963	0.01
884.391	0.01
884.818	0.01
885.245	0.01
885.673	0.01
886.1	0.01
886.527	0.01
886.954	0.01
887.381	0.01
887.809	0.01
888.236	0.01
888.663	0.01
889.09	0.01
889.517	0.01
889.944	0.01
890.371	0.01
890.798	0.01
891.225	0.01
891.652	0.01
892.078	0.01
892.505	0.01
892.932	0.01
893.359	0.01
893.786	0.01
894.212	0.01
894.639	0.01
895.066	0.01
895.492	0.01
895.919	0.01
896.346	0.01
896.772	0.01
897.199	0.01
897.625	0.01
898.052	0.01
898.478	0
898.904	0
899.331	0
899.757	-0
900.183	-0
900.61	-0
901.036	-0
901.462	-0.01
901.888	-0.01
902.315	-0
902.741	-0
903.167	-0
903.593	-0
904.019	-0
904.445	-0
904.871	0
905.297	0
905.723	0
906.149	0.01
906.575	0.01
907.001	0.01
907.427	0.01
907.852	0.01
908.278	0.01
908.704	0.01
909.13	0.01
909.555	0.01
909.981	0.01
910.407	0.01
910.832	0.01
911.258	0.01
911.684	0.01
912.109	0.01
912.535	0.01
912.96	0.01
913.386	0.01
913.811	0.01
914.236	0.01
914.662	0.01
915.087	0.01
915.512	0.01
915.938	0.01
916.363	0.01
916.788	0.01
917.213	0.01
917.639	0.01
918.064	0.01
918.489	0.01
918.914	0.01
919.339	0.01
919.764	0.01
920.189	0.01
920.614	0.01
921.039	0.01
921.464	0.01
921.889	0.01
922.314	0.01
922.738	0.01
923.163	0.01
923.588	0.01
924.013	0.01
924.437	0.01
924.862	0.01
925.287	0.01
925.711	0.01
926.136	0.01
926.561	0.01
926.985	0.01
927.41	0.01
927.834	0.01
928.259	0.01
928.683	0.01
929.108	0.01
929.532	0.01
929.956	0.01
930.381	0.01
930.805	0.01
931.229	0.01
931.653	0.01
932.078	0.01
932.502	0.01
932.926	0.01
933.35	0.01
933.774	0.01
934.198	0.01
934.622	0.01
935.046	0
935.47	0
935.894	0
936.318	0
936.742	0
937.166	0
937.59	0
938.014	0
938.437	0
938.861	0
939.285	0
939.709	0
940.132	0
940.556	-0
940.98	-0
941.403	-0
941.827	-0
942.25	-0
942.674	-0
943.097	-0
943.521	0
943.944	0
944.368	0
944.791	0
945.214	0
945.638	0
946.061	0
946.484	0
946.907	0
947.331	0
947.754	0
948.177	0
948.6	0
949.023	0
949.446	0
949.869	0
950.292	0
950.715	0
951.138	0
951.561	0
951.984	0
952.407	0
952.83	0
953.252	0
953.675	0
954.098	-0
954.521	-0
954.943	-0
955.366	-0
955.789	-0
956.211	-0
956.634	-0
957.056	-0
957.479	-0
957.902	-0
958.324	-0
958.746	-0
959.169	-0
959.591	-0
960.014	-0
960.436	-0
960.858	-0
961.281	-0
961.703	0
962.125	0
962.547	0
962.969	0
963.391	0
963.814	0
964.236	0
964.658	0
965.08	0
965.502	0
965.924	0
966.346	0
966.768	0
967.189	0
967.611	0
968.033	0
968.455	0
968.877	-0
969.298	-0
969.72	-0
970.142	-0
970.563	-0
970.985	-0
971.407	-0
971.828	-0
972.25	-0
972.671	-0
973.093	-0.01
973.514	-0.01
973.936	-0.01
974.357	-0
974.778	-0
975.2	-0
975.621	-0
976.042	-0
976.464	-0
976.885	-0
977.306	-0
977.727	-0
978.148	0
978.57	0
978.991	0
979.412	0
979.833	0
980.254	0
980.675	0
981.096	0
981.517	0
981.937	0
982.358	0
982.779	0
983.2	0
983.621	-0
984.042	-0
984.462	-0
984.883	-0
985.304	-0
985.724	-0
986.145	-0
986.565	-0.01
986.986	-0.01
987.407	-0.01
987.827	-0.01
988.248	-0.01
988.668	-0.01
989.088	-0.01
989.509	-0.01
989.929	-0.01
990.35	-0.01
990.77	-0.01
991.19	-0
991.61	-0
992.031	-0
992.451	-0
992.871	-0
993.291	-0
993.711	-0
994.131	-0
994.551	-0
994.971	0
995.391	0
995.811	0
996.231	0
996.651	0
997.071	0
997.491	0
997.911	0
998.331	0
998.75	0
999.17	0
999.59	0
1000.009	0
1000.429	0
1000.849	0
1001.268	0
1001.688	0
1002.107	0
1002.527	0
1002.946	-0
1003.366	-0
1003.785	-0
1004.205	-0
1004.624	-0
1005.044	-0
1005.463	-0
1005.882	-0
1006.301	-0
1006.721	-0
1007.14	-0
1007.559	-0
1007.978	-0.01
1008.397	-0.01
1008.816	-0.01
1009.235	-0.01
1009.655	-0.01
1010.074	-0.01
1010.492	-0.01
1010.911	-0.01
1011.33	-0.01
1011.749	-0.01
1012.168	-0.01
1012.587	-0.01
1013.006	-0.01
1013.425	-0.01
1013.843	-0.01
1014.262	-0.01
1014.681	-0
1015.099	-0
1015.518	-0
1015.937	-0
1016.355	-0
1016.774	-0
1017.192	-0
1017.611	-0
1018.029	-0
1018.448	-0
1018.866	-0.01
1019.285	-0.01
1019.703	-0.01
1020.121	-0.01
1020.54	-0.01
1020.958	-0.01
1021.376	-0.01
1021.794	-0
1022.213	-0
1022.631	-0
1023.049	-0
1023.467	-0
1023.885	-0
1024.303	-0
1024.721	-0
1025.139	-0
1025.557	-0
1025.975	-0
1026.393	-0
1026.811	-0
1027.229	-0
1027.647	-0
1028.065	-0
1028.482	-0
1028.9	-0
1029.318	-0
1029.735	-0
1030.153	-0
1030.571	-0
1030.988	-0
1031.406	-0
1031.823	-0
1032.241	-0
1032.659	-0
1033.076	-0
1033.493	-0
1033.911	-0
1034.328	-0
1034.746	-0
1035.163	-0
1035.58	-0
1035.997	-0
1036.415	-0
1036.832	-0.01
1037.249	-0.01
1037.666	-0.01
1038.083	-0.01
1038.501	-0.01
1038.918	-0.01
1039.335	-0.01
1039.752	-0.01
1040.169	-0.01
1040.586	-0.01
1041.003	-0.01
1041.419	-0.01
1041.836	-0.01
1042.253	-0.01
1042.67	-0.01
1043.087	-0.01
1043.504	-0.01
1043.92	-0.01
1044.337	-0.01
1044.754	-0.01
1045.17	-0.01
1045.587	-0.01
1046.004	-0.01
1046.42	-0.01
1046.837	-0.01
1047.253	-0.01
1047.67	-0.01
1048.086	-0.01
1048.503	-0.01
1048.919	-0.01
1049.335	-0.01
1049.752	-0.01
1050.168	-0.01
1050.584	-0.01
1051.001	-0.01
1051.417	-0.01
1051.833	-0.01
1052.249	-0
1052.665	-0
1053.081	-0
1053.497	-0
1053.914	-0
1054.33	-0
1054.746	-0
1055.162	-0
1055.578	-0.01
1055.993	-0.01
1056.409	-0.01
1056.825	-0.01
1057.241	-0.01
1057.657	-0.01
1058.073	-0.01
1058.488	-0.01
1058.904	-0.01
1059.32	-0.01
1059.736	-0.01
1060.151	-0.01
1060.567	-0.01
1060.982	-0.01
1061.398	-0.01
1061.813	-0.01
1062.229	-0.01
1062.644	-0.01
1063.06	-0.01
1063.475	-0.01
1063.891	-0.01
1064.306	-0.01
1064.721	-0.01
1065.137	-0.01
1065.552	-0.01
1065.967	-0.01
1066.382	-0.01
1066.798	-0.01
1067.213	-0.01
1067.628	-0.01
1068.043	-0.01
1068.458	-0.01
1068.873	-0.01
1069.288	-0.01
1069.703	-0.01
1070.118	-0.01
1070.533	-0.01
1070.948	-0.01
1071.363	-0.01
1071.778	-0.01
1072.193	-0.01
1072.607	-0.01
1073.022	-0.01
1073.437	-0.01
1073.852	-0.01
1074.266	-0.02
1074.681	-0.02
1075.096	-0.02
1075.51	-0.02
1075.925	-0.02
1076.339	-0.02
1076.754	-0.02
1077.168	-0.02
1077.583	-0.02
1077.997	-0.02
1078.412	-0.02
1078.826	-0.02
1079.24	-0.02
1079.655	-0.02
1080.069	-0.02
1080.483	-0.02
1080.897	-0.02
1081.312	-0.02
1081.726	-0.02
1082.14	-0.02
1082.554	-0.02
1082.968	-0.02
1083.382	-0.02
1083.796	-0.02
1084.21	-0.02
1084.624	-0.02
1085.038	-0.02
1085.452	-0.02
1085.866	-0.02
1086.28	-0.02
1086.694	-0.02
1087.108	-0.02
1087.521	-0.02
1087.935	-0.02
1088.349	-0.02
1088.763	-0.02
1089.176	-0.02
1089.59	-0.03
1090.004	-0.03
1090.417	-0.03
1090.831	-0.03
1091.244	-0.03
1091.658	-0.03
1092.071	-0.03
1092.485	-0.03
1092.898	-0.03
1093.312	-0.03
1093.725	-0.03
1094.138	-0.03
1094.552	-0.03
1094.965	-0.03
1095.378	-0.03
1095.791	-0.03
1096.205	-0.03
1096.618	-0.03
1097.031	-0.03
1097.444	-0.03
1097.857	-0.04
1098.27	-0.04
1098.683	-0.04
1099.096	-0.04
1099.509	-0.04
1099.922	-0.04
1100.335	-0.04
1100.748	-0.04
1101.161	-0.04
1101.574	-0.04
1101.986	-0.05
1102.399	-0.05
1102.812	-0.05
1103.225	-0.05
1103.637	-0.05
1104.05	-0.05
1104.463	-0.05
1104.875	-0.05
1105.288	-0.05
1105.7	-0.05
1106.113	-0.05
1106.525	-0.06
1106.938	-0.06
1107.35	-0.06
1107.763	-0.06
1108.175	-0.06
1108.588	-0.06
1109	-0.06
1109.412	-0.07
1109.824	-0.07
1110.237	-0.07
1110.649	-0.07
1111.061	-0.07
