Data from 2024-02-06-100ns-20nr-25nacl-100h2o-7bp2-1_8a808-40to10hyt-0_5cpm_Absorbance__57__00446.txt Node

Date: Tue Feb 06 15:52:50 CET 2024
User: Laser008
Spectrometer: MAYP115816
Trigger mode: 0
Integration Time (sec): 2.000000E-1
Scans to average: 10
Electric dark correction enabled: true
Nonlinearity correction enabled: true
Boxcar width: 5
XAxis mode: Wavelengths
Number of Pixels in Spectrum: 2068
>>>>>Begin Spectral Data<<<<<
198.914	-0.24
199.384	-0.21
199.855	-0.16
200.325	-0.13
200.796	-0.1
201.266	-0.09
201.737	-0.08
202.207	-0.08
202.677	-0.07
203.147	-0.07
203.618	-0.06
204.088	-0.05
204.558	-0.05
205.028	-0.04
205.498	-0.04
205.968	-0.04
206.439	-0.05
206.909	-0.04
207.379	-0.04
207.849	-0.05
208.319	-0.04
208.789	-0.04
209.258	-0.05
209.728	-0.04
210.198	-0.04
210.668	-0.04
211.138	-0.05
211.608	-0.05
212.077	-0.05
212.547	-0.05
213.017	-0.05
213.486	-0.05
213.956	-0.04
214.426	-0.04
214.895	-0.04
215.365	-0.04
215.834	-0.04
216.304	-0.04
216.773	-0.04
217.243	-0.04
217.712	-0.03
218.181	-0.03
218.651	-0.03
219.12	-0.03
219.589	-0.03
220.058	-0.03
220.528	-0.03
220.997	-0.02
221.466	-0.02
221.935	-0.02
222.404	-0.02
222.873	-0.02
223.342	-0.02
223.812	-0.01
224.281	-0.01
224.749	-0
225.218	-0
225.687	0
226.156	0.01
226.625	0.02
227.094	0.03
227.563	0.04
228.031	0.05
228.5	0.06
228.969	0.07
229.438	0.09
229.906	0.1
230.375	0.12
230.844	0.13
231.312	0.15
231.781	0.16
232.249	0.18
232.718	0.2
233.186	0.21
233.655	0.23
234.123	0.24
234.591	0.25
235.06	0.26
235.528	0.27
235.996	0.28
236.465	0.29
236.933	0.3
237.401	0.3
237.869	0.31
238.337	0.31
238.805	0.32
239.274	0.32
239.742	0.32
240.21	0.33
240.678	0.33
241.146	0.33
241.614	0.34
242.081	0.34
242.549	0.34
243.017	0.34
243.485	0.34
243.953	0.34
244.421	0.35
244.888	0.35
245.356	0.35
245.824	0.35
246.291	0.35
246.759	0.35
247.227	0.36
247.694	0.36
248.162	0.36
248.629	0.36
249.097	0.36
249.564	0.36
250.032	0.37
250.499	0.37
250.967	0.37
251.434	0.37
251.901	0.37
252.369	0.37
252.836	0.38
253.303	0.38
253.77	0.38
254.237	0.38
254.705	0.38
255.172	0.38
255.639	0.38
256.106	0.38
256.573	0.38
257.04	0.38
257.507	0.38
257.974	0.39
258.441	0.39
258.908	0.39
259.375	0.39
259.841	0.39
260.308	0.39
260.775	0.39
261.242	0.39
261.709	0.39
262.175	0.39
262.642	0.39
263.109	0.39
263.575	0.38
264.042	0.38
264.508	0.38
264.975	0.38
265.441	0.38
265.908	0.38
266.374	0.38
266.841	0.38
267.307	0.38
267.773	0.38
268.24	0.37
268.706	0.37
269.172	0.37
269.639	0.37
270.105	0.37
270.571	0.37
271.037	0.36
271.503	0.36
271.969	0.36
272.435	0.36
272.902	0.36
273.368	0.35
273.834	0.35
274.3	0.35
274.765	0.35
275.231	0.35
275.697	0.34
276.163	0.34
276.629	0.34
277.095	0.34
277.56	0.34
278.026	0.33
278.492	0.33
278.958	0.33
279.423	0.33
279.889	0.32
280.354	0.32
280.82	0.32
281.286	0.32
281.751	0.31
282.217	0.31
282.682	0.31
283.147	0.31
283.613	0.3
284.078	0.3
284.544	0.3
285.009	0.3
285.474	0.3
285.939	0.3
286.405	0.29
286.87	0.29
287.335	0.29
287.8	0.29
288.265	0.29
288.73	0.29
289.195	0.28
289.66	0.28
290.125	0.28
290.59	0.28
291.055	0.28
291.52	0.28
291.985	0.28
292.45	0.27
292.915	0.27
293.38	0.27
293.844	0.27
294.309	0.27
294.774	0.27
295.239	0.27
295.703	0.27
296.168	0.27
296.632	0.27
297.097	0.27
297.562	0.26
298.026	0.26
298.491	0.26
298.955	0.26
299.419	0.26
299.884	0.26
300.348	0.26
300.813	0.26
301.277	0.26
301.741	0.26
302.205	0.26
302.67	0.26
303.134	0.26
303.598	0.26
304.062	0.26
304.526	0.26
304.99	0.26
305.454	0.26
305.919	0.25
306.383	0.25
306.847	0.25
307.31	0.25
307.774	0.25
308.238	0.25
308.702	0.25
309.166	0.25
309.63	0.25
310.094	0.25
310.557	0.25
311.021	0.25
311.485	0.25
311.948	0.25
312.412	0.25
312.876	0.25
313.339	0.25
313.803	0.25
314.266	0.25
314.73	0.25
315.193	0.25
315.657	0.25
316.12	0.25
316.584	0.24
317.047	0.24
317.51	0.24
317.973	0.24
318.437	0.24
318.9	0.24
319.363	0.24
319.826	0.24
320.29	0.24
320.753	0.24
321.216	0.24
321.679	0.24
322.142	0.24
322.605	0.24
323.068	0.24
323.531	0.24
323.994	0.24
324.457	0.24
324.92	0.24
325.382	0.24
325.845	0.24
326.308	0.24
326.771	0.24
327.233	0.23
327.696	0.23
328.159	0.23
328.622	0.23
329.084	0.23
329.547	0.23
330.009	0.23
330.472	0.23
330.934	0.23
331.397	0.23
331.859	0.23
332.322	0.23
332.784	0.23
333.246	0.23
333.709	0.23
334.171	0.23
334.633	0.23
335.096	0.23
335.558	0.23
336.02	0.23
336.482	0.23
336.944	0.23
337.406	0.23
337.868	0.23
338.331	0.22
338.793	0.22
339.255	0.22
339.717	0.22
340.178	0.22
340.64	0.22
341.102	0.22
341.564	0.22
342.026	0.22
342.488	0.22
342.949	0.22
343.411	0.22
343.873	0.22
344.335	0.22
344.796	0.22
345.258	0.22
345.719	0.22
346.181	0.22
346.643	0.22
347.104	0.22
347.566	0.22
348.027	0.22
348.488	0.22
348.95	0.22
349.411	0.22
349.873	0.22
350.334	0.22
350.795	0.22
351.256	0.22
351.718	0.22
352.179	0.22
352.64	0.22
353.101	0.22
353.562	0.22
354.023	0.22
354.484	0.22
354.945	0.22
355.406	0.22
355.867	0.22
356.328	0.22
356.789	0.22
357.25	0.21
357.711	0.21
358.172	0.21
358.633	0.21
359.093	0.21
359.554	0.21
360.015	0.21
360.476	0.21
360.936	0.21
361.397	0.21
361.858	0.21
362.318	0.21
362.779	0.21
363.239	0.21
363.7	0.21
364.16	0.21
364.621	0.21
365.081	0.21
365.541	0.21
366.002	0.21
366.462	0.21
366.922	0.21
367.383	0.21
367.843	0.21
368.303	0.21
368.763	0.21
369.223	0.21
369.684	0.21
370.144	0.21
370.604	0.21
371.064	0.21
371.524	0.21
371.984	0.21
372.444	0.21
372.904	0.21
373.363	0.21
373.823	0.21
374.283	0.21
374.743	0.21
375.203	0.21
375.663	0.21
376.122	0.21
376.582	0.21
377.042	0.21
377.501	0.21
377.961	0.21
378.42	0.21
378.88	0.21
379.34	0.21
379.799	0.21
380.259	0.21
380.718	0.21
381.177	0.21
381.637	0.21
382.096	0.21
382.555	0.21
383.015	0.21
383.474	0.21
383.933	0.21
384.393	0.21
384.852	0.21
385.311	0.21
385.77	0.21
386.229	0.21
386.688	0.21
387.147	0.21
387.606	0.21
388.065	0.21
388.524	0.21
388.983	0.21
389.442	0.21
389.901	0.21
390.36	0.21
390.819	0.21
391.277	0.21
391.736	0.21
392.195	0.21
392.654	0.2
393.112	0.2
393.571	0.2
394.03	0.2
394.488	0.2
394.947	0.2
395.405	0.2
395.864	0.2
396.322	0.2
396.781	0.2
397.239	0.2
397.698	0.2
398.156	0.2
398.614	0.2
399.073	0.2
399.531	0.2
399.989	0.2
400.447	0.2
400.905	0.2
401.364	0.2
401.822	0.2
402.28	0.2
402.738	0.2
403.196	0.2
403.654	0.2
404.112	0.2
404.57	0.2
405.028	0.2
405.486	0.2
405.944	0.2
406.402	0.2
406.859	0.2
407.317	0.2
407.775	0.2
408.233	0.2
408.691	0.2
409.148	0.2
409.606	0.2
410.064	0.2
410.521	0.2
410.979	0.2
411.436	0.2
411.894	0.2
412.351	0.2
412.809	0.19
413.266	0.19
413.724	0.19
414.181	0.19
414.638	0.19
415.096	0.19
415.553	0.19
416.01	0.19
416.467	0.19
416.925	0.19
417.382	0.19
417.839	0.19
418.296	0.19
418.753	0.19
419.21	0.19
419.667	0.19
420.124	0.19
420.581	0.19
421.038	0.19
421.495	0.19
421.952	0.19
422.409	0.19
422.866	0.19
423.322	0.19
423.779	0.19
424.236	0.19
424.693	0.19
425.149	0.19
425.606	0.19
426.063	0.19
426.519	0.19
426.976	0.19
427.433	0.19
427.889	0.19
428.346	0.19
428.802	0.19
429.258	0.19
429.715	0.19
430.171	0.19
430.628	0.19
431.084	0.19
431.54	0.19
431.997	0.19
432.453	0.19
432.909	0.19
433.365	0.19
433.821	0.19
434.277	0.19
434.734	0.19
435.19	0.19
435.646	0.19
436.102	0.18
436.558	0.18
437.014	0.18
437.47	0.18
437.925	0.18
438.381	0.18
438.837	0.18
439.293	0.18
439.749	0.18
440.205	0.18
440.66	0.18
441.116	0.18
441.572	0.18
442.027	0.18
442.483	0.18
442.939	0.18
443.394	0.18
443.85	0.18
444.305	0.18
444.761	0.18
445.216	0.18
445.672	0.18
446.127	0.18
446.582	0.18
447.038	0.18
447.493	0.18
447.948	0.18
448.403	0.18
448.859	0.18
449.314	0.18
449.769	0.18
450.224	0.18
450.679	0.18
451.134	0.18
451.589	0.18
452.044	0.18
452.499	0.18
452.954	0.18
453.409	0.18
453.864	0.18
454.319	0.18
454.774	0.18
455.229	0.18
455.684	0.18
456.138	0.18
456.593	0.18
457.048	0.18
457.503	0.18
457.957	0.18
458.412	0.18
458.866	0.18
459.321	0.18
459.776	0.18
460.23	0.18
460.685	0.18
461.139	0.18
461.593	0.18
462.048	0.18
462.502	0.18
462.957	0.18
463.411	0.18
463.865	0.18
464.319	0.18
464.774	0.18
465.228	0.18
465.682	0.18
466.136	0.18
466.59	0.18
467.044	0.17
467.499	0.17
467.953	0.17
468.407	0.18
468.861	0.18
469.315	0.18
469.768	0.18
470.222	0.18
470.676	0.18
471.13	0.18
471.584	0.18
472.038	0.18
472.491	0.18
472.945	0.18
473.399	0.18
473.852	0.18
474.306	0.18
474.76	0.18
475.213	0.18
475.667	0.18
476.12	0.18
476.574	0.18
477.027	0.18
477.481	0.18
477.934	0.18
478.388	0.18
478.841	0.18
479.294	0.18
479.748	0.18
480.201	0.18
480.654	0.18
481.107	0.18
481.561	0.18
482.014	0.18
482.467	0.18
482.92	0.18
483.373	0.18
483.826	0.18
484.279	0.18
484.732	0.18
485.185	0.18
485.638	0.18
486.091	0.18
486.544	0.18
486.997	0.19
487.449	0.19
487.902	0.19
488.355	0.19
488.808	0.19
489.26	0.19
489.713	0.19
490.166	0.19
490.618	0.19
491.071	0.19
491.523	0.19
491.976	0.19
492.429	0.19
492.881	0.19
493.333	0.2
493.786	0.2
494.238	0.2
494.691	0.2
495.143	0.2
495.595	0.2
496.048	0.2
496.5	0.2
496.952	0.2
497.404	0.2
497.856	0.2
498.309	0.21
498.761	0.21
499.213	0.21
499.665	0.21
500.117	0.21
500.569	0.21
501.021	0.21
501.473	0.21
501.925	0.22
502.377	0.22
502.828	0.22
503.28	0.22
503.732	0.22
504.184	0.22
504.636	0.22
505.087	0.22
505.539	0.22
505.991	0.23
506.442	0.23
506.894	0.23
507.345	0.23
507.797	0.23
508.249	0.23
508.7	0.23
509.151	0.23
509.603	0.24
510.054	0.24
510.506	0.24
510.957	0.24
511.408	0.24
511.86	0.24
512.311	0.24
512.762	0.24
513.213	0.24
513.665	0.25
514.116	0.25
514.567	0.25
515.018	0.25
515.469	0.25
515.92	0.25
516.371	0.25
516.822	0.25
517.273	0.25
517.724	0.25
518.175	0.26
518.626	0.26
519.076	0.26
519.527	0.26
519.978	0.26
520.429	0.26
520.88	0.26
521.33	0.26
521.781	0.26
522.232	0.26
522.682	0.26
523.133	0.26
523.583	0.26
524.034	0.27
524.484	0.27
524.935	0.27
525.385	0.27
525.836	0.27
526.286	0.27
526.736	0.27
527.187	0.27
527.637	0.27
528.087	0.27
528.538	0.27
528.988	0.27
529.438	0.27
529.888	0.28
530.338	0.28
530.788	0.28
531.238	0.28
531.688	0.28
532.139	0.28
532.589	0.28
533.038	0.28
533.488	0.28
533.938	0.28
534.388	0.28
534.838	0.28
535.288	0.28
535.738	0.28
536.187	0.28
536.637	0.28
537.087	0.28
537.537	0.28
537.986	0.28
538.436	0.28
538.885	0.28
539.335	0.28
539.785	0.28
540.234	0.28
540.684	0.28
541.133	0.29
541.582	0.29
542.032	0.29
542.481	0.29
542.931	0.29
543.38	0.29
543.829	0.29
544.278	0.29
544.728	0.29
545.177	0.29
545.626	0.29
546.075	0.29
546.524	0.29
546.973	0.29
547.422	0.29
547.871	0.29
548.32	0.29
548.769	0.29
549.218	0.29
549.667	0.29
550.116	0.29
550.565	0.29
551.014	0.29
551.463	0.29
551.911	0.29
552.36	0.29
552.809	0.29
553.258	0.29
553.706	0.29
554.155	0.29
554.603	0.29
555.052	0.29
555.501	0.29
555.949	0.29
556.398	0.29
556.846	0.29
557.294	0.29
557.743	0.29
558.191	0.29
558.64	0.29
559.088	0.29
559.536	0.29
559.985	0.29
560.433	0.29
560.881	0.29
561.329	0.29
561.777	0.29
562.225	0.29
562.674	0.29
563.122	0.29
563.57	0.29
564.018	0.29
564.466	0.29
564.914	0.28
565.362	0.28
565.809	0.28
566.257	0.28
566.705	0.28
567.153	0.28
567.601	0.28
568.048	0.28
568.496	0.28
568.944	0.28
569.392	0.28
569.839	0.28
570.287	0.28
570.734	0.28
571.182	0.28
571.63	0.28
572.077	0.28
572.525	0.28
572.972	0.28
573.419	0.28
573.867	0.27
574.314	0.27
574.761	0.27
575.209	0.27
575.656	0.27
576.103	0.27
576.551	0.27
576.998	0.27
577.445	0.27
577.892	0.27
578.339	0.27
578.786	0.27
579.233	0.27
579.68	0.27
580.127	0.27
580.574	0.27
581.021	0.26
581.468	0.26
581.915	0.26
582.362	0.26
582.809	0.26
583.255	0.26
583.702	0.26
584.149	0.26
584.596	0.26
585.042	0.26
585.489	0.25
585.936	0.25
586.382	0.25
586.829	0.25
587.275	0.25
587.722	0.25
588.168	0.25
588.615	0.25
589.061	0.25
589.508	0.25
589.954	0.24
590.4	0.24
590.847	0.24
591.293	0.24
591.739	0.24
592.185	0.24
592.632	0.24
593.078	0.24
593.524	0.23
593.97	0.23
594.416	0.23
594.862	0.23
595.308	0.23
595.754	0.23
596.2	0.23
596.646	0.23
597.092	0.22
597.538	0.22
597.984	0.22
598.43	0.22
598.876	0.22
599.321	0.22
599.767	0.22
600.213	0.22
600.659	0.22
601.104	0.22
601.55	0.22
601.995	0.22
602.441	0.21
602.887	0.21
603.332	0.21
603.778	0.21
604.223	0.21
604.668	0.21
605.114	0.21
605.559	0.21
606.005	0.21
606.45	0.21
606.895	0.21
607.341	0.2
607.786	0.2
608.231	0.2
608.676	0.2
609.121	0.2
609.566	0.2
610.012	0.2
610.457	0.2
610.902	0.2
611.347	0.2
611.792	0.2
612.237	0.2
612.682	0.19
613.127	0.19
613.571	0.19
614.016	0.19
614.461	0.19
614.906	0.19
615.351	0.19
615.795	0.19
616.24	0.19
616.685	0.19
617.129	0.19
617.574	0.18
618.019	0.18
618.463	0.18
618.908	0.18
619.352	0.18
619.797	0.18
620.241	0.18
620.686	0.18
621.13	0.18
621.574	0.18
622.019	0.18
622.463	0.18
622.907	0.18
623.352	0.18
623.796	0.18
624.24	0.18
624.684	0.17
625.128	0.17
625.572	0.17
626.016	0.17
626.461	0.17
626.905	0.17
627.349	0.17
627.793	0.17
628.236	0.17
628.68	0.17
629.124	0.17
629.568	0.17
630.012	0.17
630.456	0.17
630.9	0.17
631.343	0.17
631.787	0.17
632.231	0.17
632.674	0.17
633.118	0.17
633.562	0.17
634.005	0.17
634.449	0.17
634.892	0.17
635.336	0.17
635.779	0.17
636.223	0.17
636.666	0.17
637.109	0.17
637.553	0.17
637.996	0.17
638.439	0.18
638.883	0.18
639.326	0.18
639.769	0.18
640.212	0.18
640.655	0.18
641.099	0.18
641.542	0.18
641.985	0.18
642.428	0.18
642.871	0.18
643.314	0.18
643.757	0.18
644.2	0.18
644.643	0.19
645.085	0.19
645.528	0.19
645.971	0.19
646.414	0.19
646.857	0.19
647.299	0.19
647.742	0.2
648.185	0.2
648.627	0.2
649.07	0.2
649.513	0.2
649.955	0.2
650.398	0.21
650.84	0.21
651.283	0.21
651.725	0.21
652.168	0.21
652.61	0.21
653.052	0.22
653.495	0.22
653.937	0.17
654.379	0.14
654.821	0.14
655.264	0.14
655.706	0.14
656.148	0.14
656.59	0.15
657.032	0.15
657.474	0.15
657.916	0.15
658.358	0.14
658.8	0.18
659.242	0.24
659.684	0.24
660.126	0.25
660.568	0.25
661.01	0.25
661.452	0.25
661.894	0.26
662.335	0.26
662.777	0.26
663.219	0.26
663.661	0.27
664.102	0.27
664.544	0.27
664.985	0.27
665.427	0.28
665.869	0.28
666.31	0.28
666.752	0.28
667.193	0.28
667.634	0.29
668.076	0.29
668.517	0.29
668.959	0.29
669.4	0.29
669.841	0.3
670.282	0.3
670.724	0.3
671.165	0.3
671.606	0.3
672.047	0.3
672.488	0.31
672.929	0.31
673.37	0.31
673.811	0.31
674.252	0.31
674.693	0.31
675.134	0.31
675.575	0.32
676.016	0.32
676.457	0.32
676.898	0.32
677.339	0.32
677.78	0.32
678.22	0.32
678.661	0.32
679.102	0.33
679.542	0.33
679.983	0.33
680.424	0.33
680.864	0.33
681.305	0.33
681.745	0.33
682.186	0.34
682.626	0.34
683.067	0.34
683.507	0.34
683.948	0.34
684.388	0.34
684.828	0.34
685.269	0.34
685.709	0.34
686.149	0.34
686.589	0.34
687.029	0.34
687.47	0.34
687.91	0.34
688.35	0.34
688.79	0.34
689.23	0.35
689.67	0.35
690.11	0.35
690.55	0.35
690.99	0.35
691.43	0.35
691.87	0.35
692.31	0.35
692.749	0.35
693.189	0.35
693.629	0.35
694.069	0.35
694.508	0.35
694.948	0.35
695.388	0.34
695.827	0.34
696.267	0.34
696.706	0.34
697.146	0.34
697.586	0.34
698.025	0.34
698.464	0.34
698.904	0.34
699.343	0.34
699.783	0.34
700.222	0.34
700.661	0.34
701.101	0.34
701.54	0.34
701.979	0.34
702.418	0.33
702.857	0.33
703.297	0.33
703.736	0.33
704.175	0.33
704.614	0.33
705.053	0.33
705.492	0.33
705.931	0.33
706.37	0.33
706.809	0.33
707.248	0.33
707.687	0.32
708.125	0.32
708.564	0.32
709.003	0.32
709.442	0.32
709.88	0.32
710.319	0.32
710.758	0.32
711.196	0.31
711.635	0.31
712.074	0.31
712.512	0.31
712.951	0.31
713.389	0.31
713.828	0.31
714.266	0.31
714.705	0.3
715.143	0.3
715.581	0.3
716.02	0.3
716.458	0.3
716.896	0.3
717.334	0.3
717.773	0.29
718.211	0.29
718.649	0.29
719.087	0.29
719.525	0.29
719.963	0.29
720.401	0.29
720.839	0.28
721.277	0.28
721.715	0.28
722.153	0.28
722.591	0.28
723.029	0.28
723.467	0.28
723.905	0.28
724.342	0.28
724.78	0.28
725.218	0.27
725.656	0.27
726.093	0.27
726.531	0.27
726.969	0.27
727.406	0.27
727.844	0.27
728.281	0.27
728.719	0.27
729.156	0.27
729.594	0.27
730.031	0.26
730.469	0.26
730.906	0.26
731.343	0.26
731.781	0.26
732.218	0.26
732.655	0.26
733.092	0.26
733.53	0.26
733.967	0.25
734.404	0.25
734.841	0.25
735.278	0.25
735.715	0.25
736.152	0.25
736.589	0.24
737.026	0.24
737.463	0.24
737.9	0.24
738.337	0.24
738.774	0.24
739.211	0.24
739.647	0.23
740.084	0.23
740.521	0.23
740.958	0.23
741.394	0.23
741.831	0.23
742.268	0.23
742.704	0.23
743.141	0.22
743.577	0.22
744.014	0.22
744.45	0.22
744.887	0.22
745.323	0.22
745.76	0.22
746.196	0.21
746.632	0.21
747.069	0.21
747.505	0.21
747.941	0.21
748.378	0.21
748.814	0.21
749.25	0.21
749.686	0.21
750.122	0.2
750.558	0.2
750.994	0.2
751.43	0.2
751.866	0.2
752.302	0.2
752.738	0.19
753.174	0.19
753.61	0.19
754.046	0.19
754.482	0.19
754.918	0.18
755.354	0.18
755.789	0.18
756.225	0.18
756.661	0.18
757.096	0.18
757.532	0.18
757.968	0.18
758.403	0.17
758.839	0.17
759.274	0.17
759.71	0.17
760.145	0.17
760.581	0.17
761.016	0.16
761.452	0.16
761.887	0.16
762.322	0.16
762.758	0.16
763.193	0.16
763.628	0.15
764.063	0.15
764.499	0.15
764.934	0.14
765.369	0.14
765.804	0.14
766.239	0.14
766.674	0.13
767.109	0.13
767.544	0.13
767.979	0.12
768.414	0.12
768.849	0.12
769.284	0.12
769.719	0.11
770.154	0.11
770.588	0.11
771.023	0.1
771.458	0.1
771.893	0.1
772.327	0.09
772.762	0.09
773.197	0.08
773.631	0.08
774.066	0.07
774.5	0.07
774.935	0.06
775.369	0.05
775.804	0.05
776.238	0.04
776.673	0.04
777.107	0.03
777.541	0.03
777.976	0.02
778.41	0.02
778.844	0.01
779.279	0.01
779.713	0
780.147	-0
780.581	-0.01
781.015	-0.01
781.449	-0.02
781.883	-0.03
782.317	-0.04
782.751	-0.04
783.185	-0.05
783.619	-0.06
784.053	-0.06
784.487	-0.07
784.921	-0.08
785.355	-0.09
785.789	-0.1
786.223	-0.1
786.656	-0.1
787.09	-0.11
787.524	-0.11
787.957	-0.12
788.391	-0.12
788.825	-0.12
789.258	-0.13
789.692	-0.13
790.125	-0.13
790.559	-0.13
790.992	-0.13
791.426	-0.13
791.859	-0.13
792.293	-0.12
792.726	-0.11
793.159	-0.1
793.593	-0.1
794.026	-0.1
794.459	-0.11
794.892	-0.11
795.326	-0.11
795.759	-0.11
796.192	-0.11
796.625	-0.12
797.058	-0.13
797.491	-0.14
797.924	-0.15
798.357	-0.15
798.79	-0.15
799.223	-0.15
799.656	-0.15
800.089	-0.15
800.522	-0.15
800.955	-0.16
801.387	-0.15
801.82	-0.16
802.253	-0.16
802.686	-0.16
803.118	-0.16
803.551	-0.16
803.984	-0.15
804.416	-0.15
804.849	-0.14
805.281	-0.14
805.714	-0.14
806.146	-0.14
806.579	-0.13
807.011	-0.13
807.444	-0.13
807.876	-0.13
808.308	-0.13
808.741	-0.14
809.173	-0.14
809.605	-0.15
810.037	-0.15
810.47	-0.15
810.902	-0.16
811.334	-0.16
811.766	-0.16
812.198	-0.15
812.63	-0.15
813.062	-0.16
813.494	-0.16
813.926	-0.16
814.358	-0.16
814.79	-0.16
815.222	-0.15
815.654	-0.15
816.086	-0.14
816.518	-0.14
816.949	-0.14
817.381	-0.14
817.813	-0.13
818.245	-0.12
818.676	-0.1
819.108	-0.09
819.54	-0.08
819.971	-0.07
820.403	-0.07
820.834	-0.06
821.266	-0.05
821.697	-0.04
822.129	-0.03
822.56	-0.03
822.991	-0.02
823.423	-0.02
823.854	-0.01
824.286	-0.01
824.717	0
825.148	0.01
825.579	0.01
826.01	0.01
826.442	0.02
826.873	0.02
827.304	0.03
827.735	0.03
828.166	0.03
828.597	0.03
829.028	0.04
829.459	0.04
829.89	0.04
830.321	0.04
830.752	0.04
831.183	0.04
831.613	0.05
832.044	0.05
832.475	0.05
832.906	0.05
833.336	0.05
833.767	0.05
834.198	0.05
834.628	0.05
835.059	0.05
835.49	0.05
835.92	0.05
836.351	0.06
836.781	0.06
837.212	0.06
837.642	0.06
838.072	0.06
838.503	0.06
838.933	0.06
839.364	0.06
839.794	0.06
840.224	0.06
840.654	0.06
841.085	0.06
841.515	0.06
841.945	0.06
842.375	0.06
842.805	0.06
843.235	0.06
843.665	0.06
844.095	0.06
844.525	0.06
844.955	0.06
845.385	0.06
845.815	0.06
846.245	0.06
846.675	0.06
847.105	0.06
847.534	0.05
847.964	0.05
848.394	0.05
848.824	0.05
849.253	0.05
849.683	0.05
850.112	0.05
850.542	0.05
850.972	0.05
851.401	0.05
851.831	0.05
852.26	0.05
852.69	0.05
853.119	0.06
853.548	0.06
853.978	0.06
854.407	0.06
854.836	0.06
855.266	0.06
855.695	0.06
856.124	0.06
856.553	0.06
856.983	0.06
857.412	0.06
857.841	0.06
858.27	0.06
858.699	0.06
859.128	0.06
859.557	0.06
859.986	0.06
860.415	0.06
860.844	0.06
861.273	0.06
861.702	0.06
862.13	0.06
862.559	0.06
862.988	0.06
863.417	0.06
863.845	0.06
864.274	0.06
864.703	0.06
865.131	0.06
865.56	0.06
865.989	0.06
866.417	0.06
866.846	0.05
867.274	0.05
867.703	0.05
868.131	0.05
868.559	0.05
868.988	0.06
869.416	0.05
869.844	0.05
870.273	0.05
870.701	0.05
871.129	0.05
871.557	0.05
871.986	0.05
872.414	0.05
872.842	0.05
873.27	0.05
873.698	0.04
874.126	0.04
874.554	0.04
874.982	0.04
875.41	0.04
875.838	0.04
876.266	0.04
876.694	0.04
877.122	0.04
877.549	0.04
877.977	0.04
878.405	0.04
878.833	0.04
879.26	0.04
879.688	0.04
880.116	0.04
880.543	0.04
880.971	0.04
881.399	0.04
881.826	0.04
882.254	0.04
882.681	0.04
883.109	0.04
883.536	0.04
883.963	0.04
884.391	0.04
884.818	0.04
885.245	0.04
885.673	0.04
886.1	0.04
886.527	0.04
886.954	0.04
887.381	0.04
887.809	0.04
888.236	0.04
888.663	0.04
889.09	0.04
889.517	0.04
889.944	0.04
890.371	0.04
890.798	0.04
891.225	0.04
891.652	0.04
892.078	0.04
892.505	0.04
892.932	0.04
893.359	0.04
893.786	0.04
894.212	0.04
894.639	0.04
895.066	0.04
895.492	0.04
895.919	0.04
896.346	0.04
896.772	0.04
897.199	0.04
897.625	0.04
898.052	0.03
898.478	0.03
898.904	0.03
899.331	0.03
899.757	0.03
900.183	0.03
900.61	0.03
901.036	0.03
901.462	0.03
901.888	0.03
902.315	0.03
902.741	0.03
903.167	0.03
903.593	0.03
904.019	0.03
904.445	0.03
904.871	0.03
905.297	0.03
905.723	0.03
906.149	0.03
906.575	0.03
907.001	0.03
907.427	0.03
907.852	0.03
908.278	0.03
908.704	0.03
909.13	0.03
909.555	0.04
909.981	0.04
910.407	0.04
910.832	0.04
911.258	0.04
911.684	0.04
912.109	0.04
912.535	0.04
912.96	0.03
913.386	0.03
913.811	0.03
914.236	0.03
914.662	0.03
915.087	0.03
915.512	0.04
915.938	0.04
916.363	0.04
916.788	0.04
917.213	0.04
917.639	0.04
918.064	0.04
918.489	0.04
918.914	0.04
919.339	0.04
919.764	0.04
920.189	0.04
920.614	0.04
921.039	0.04
921.464	0.04
921.889	0.04
922.314	0.04
922.738	0.04
923.163	0.04
923.588	0.04
924.013	0.03
924.437	0.03
924.862	0.03
925.287	0.03
925.711	0.03
926.136	0.03
926.561	0.03
926.985	0.03
927.41	0.03
927.834	0.03
928.259	0.03
928.683	0.03
929.108	0.03
929.532	0.03
929.956	0.03
930.381	0.03
930.805	0.03
931.229	0.02
931.653	0.02
932.078	0.02
932.502	0.02
932.926	0.02
933.35	0.02
933.774	0.02
934.198	0.02
934.622	0.02
935.046	0.02
935.47	0.02
935.894	0.02
936.318	0.02
936.742	0.02
937.166	0.02
937.59	0.02
938.014	0.02
938.437	0.02
938.861	0.02
939.285	0.02
939.709	0.02
940.132	0.02
940.556	0.02
940.98	0.02
941.403	0.02
941.827	0.02
942.25	0.02
942.674	0.02
943.097	0.02
943.521	0.02
943.944	0.02
944.368	0.02
944.791	0.02
945.214	0.02
945.638	0.02
946.061	0.02
946.484	0.02
946.907	0.03
947.331	0.03
947.754	0.03
948.177	0.03
948.6	0.03
949.023	0.03
949.446	0.03
949.869	0.02
950.292	0.02
950.715	0.02
951.138	0.02
951.561	0.02
951.984	0.02
952.407	0.02
952.83	0.02
953.252	0.02
953.675	0.02
954.098	0.02
954.521	0.02
954.943	0.02
955.366	0.02
955.789	0.02
956.211	0.02
956.634	0.02
957.056	0.02
957.479	0.02
957.902	0.02
958.324	0.02
958.746	0.02
959.169	0.02
959.591	0.02
960.014	0.02
960.436	0.02
960.858	0.02
961.281	0.02
961.703	0.02
962.125	0.02
962.547	0.02
962.969	0.02
963.391	0.02
963.814	0.02
964.236	0.02
964.658	0.02
965.08	0.02
965.502	0.02
965.924	0.02
966.346	0.02
966.768	0.02
967.189	0.02
967.611	0.02
968.033	0.02
968.455	0.02
968.877	0.02
969.298	0.02
969.72	0.02
970.142	0.02
970.563	0.02
970.985	0.02
971.407	0.02
971.828	0.02
972.25	0.02
972.671	0.02
973.093	0.02
973.514	0.02
973.936	0.02
974.357	0.02
974.778	0.02
975.2	0.02
975.621	0.02
976.042	0.02
976.464	0.02
976.885	0.02
977.306	0.02
977.727	0.02
978.148	0.02
978.57	0.02
978.991	0.02
979.412	0.02
979.833	0.02
980.254	0.02
980.675	0.02
981.096	0.02
981.517	0.02
981.937	0.02
982.358	0.02
982.779	0.02
983.2	0.02
983.621	0.02
984.042	0.02
984.462	0.02
984.883	0.02
985.304	0.02
985.724	0.02
986.145	0.02
986.565	0.02
986.986	0.02
987.407	0.02
987.827	0.02
988.248	0.02
988.668	0.02
989.088	0.02
989.509	0.02
989.929	0.02
990.35	0.02
990.77	0.02
991.19	0.02
991.61	0.02
992.031	0.02
992.451	0.02
992.871	0.02
993.291	0.02
993.711	0.02
994.131	0.02
994.551	0.02
994.971	0.02
995.391	0.02
995.811	0.02
996.231	0.02
996.651	0.02
997.071	0.02
997.491	0.02
997.911	0.02
998.331	0.02
998.75	0.02
999.17	0.02
999.59	0.02
1000.009	0.02
1000.429	0.02
1000.849	0.02
1001.268	0.02
1001.688	0.02
1002.107	0.02
1002.527	0.02
1002.946	0.02
1003.366	0.02
1003.785	0.02
1004.205	0.01
1004.624	0.01
1005.044	0.01
1005.463	0.01
1005.882	0.01
1006.301	0.01
1006.721	0.01
1007.14	0.01
1007.559	0.01
1007.978	0.01
1008.397	0.01
1008.816	0.01
1009.235	0.01
1009.655	0
1010.074	0
1010.492	0
1010.911	0
1011.33	0
1011.749	0
1012.168	0
1012.587	0
1013.006	0
1013.425	0
1013.843	0
1014.262	0
1014.681	0
1015.099	0
1015.518	0
1015.937	0
1016.355	0
1016.774	0
1017.192	0.01
1017.611	0.01
1018.029	0.01
1018.448	0.01
1018.866	0.01
1019.285	0.01
1019.703	0.01
1020.121	0.01
1020.54	0.01
1020.958	0.01
1021.376	0.01
1021.794	0.01
1022.213	0.01
1022.631	0.01
1023.049	0.01
1023.467	0.01
1023.885	0.01
1024.303	0.01
1024.721	0.01
1025.139	0.01
1025.557	0.01
1025.975	0.01
1026.393	0.01
1026.811	0.01
1027.229	0.01
1027.647	0.01
1028.065	0.01
1028.482	0.01
1028.9	0.01
1029.318	0.01
1029.735	0.01
1030.153	0.01
1030.571	0.01
1030.988	0.01
1031.406	0.01
1031.823	0.01
1032.241	0.01
1032.659	0.01
1033.076	0.01
1033.493	0.01
1033.911	0.01
1034.328	0.01
1034.746	0.01
1035.163	0.01
1035.58	0.01
1035.997	0.01
1036.415	0.01
1036.832	0.01
1037.249	0.01
1037.666	0.01
1038.083	0.01
1038.501	0.01
1038.918	0.01
1039.335	0.01
1039.752	0.01
1040.169	0.01
1040.586	0.01
1041.003	0.01
1041.419	0.01
1041.836	0.01
1042.253	0.01
1042.67	0.01
1043.087	0.01
1043.504	0
1043.92	0
1044.337	0
1044.754	0
1045.17	0
1045.587	0
1046.004	0
1046.42	0
1046.837	0
1047.253	0
1047.67	0
1048.086	0
1048.503	0.01
1048.919	0.01
1049.335	0.01
1049.752	0.01
1050.168	0.01
1050.584	0.01
1051.001	0.01
1051.417	0.01
1051.833	0.01
1052.249	0.01
1052.665	0.01
1053.081	0.01
1053.497	0.01
1053.914	0.01
1054.33	0.01
1054.746	0.01
1055.162	0.01
1055.578	0.01
1055.993	0.01
1056.409	0.01
1056.825	0.01
1057.241	0.01
1057.657	0.01
1058.073	0.01
1058.488	0.01
1058.904	0
1059.32	0
1059.736	0
1060.151	0
1060.567	0
1060.982	0
1061.398	0
1061.813	0
1062.229	0
1062.644	0
1063.06	-0
1063.475	-0
1063.891	-0
1064.306	-0
1064.721	-0
1065.137	-0
1065.552	-0
1065.967	-0
1066.382	-0
1066.798	-0
1067.213	-0
1067.628	-0
1068.043	-0
1068.458	-0
1068.873	-0
1069.288	-0
1069.703	-0
1070.118	-0
1070.533	-0
1070.948	-0
1071.363	-0
1071.778	-0
1072.193	-0
1072.607	-0
1073.022	-0
1073.437	-0
1073.852	-0
1074.266	-0
1074.681	-0
1075.096	-0.01
1075.51	-0.01
1075.925	-0.01
1076.339	-0.01
1076.754	-0.01
1077.168	-0.01
1077.583	-0.01
1077.997	-0.01
1078.412	-0.01
1078.826	-0.01
1079.24	-0.01
1079.655	-0.01
1080.069	-0.01
1080.483	-0.01
1080.897	-0.01
1081.312	-0.01
1081.726	-0.01
1082.14	-0.01
1082.554	-0.01
1082.968	-0.01
1083.382	-0.01
1083.796	-0.01
1084.21	-0.01
1084.624	-0.01
1085.038	-0.01
1085.452	-0.01
1085.866	-0.01
1086.28	-0.01
1086.694	-0.01
1087.108	-0.01
1087.521	-0.01
1087.935	-0.01
1088.349	-0.01
1088.763	-0.01
1089.176	-0.01
1089.59	-0.01
1090.004	-0.01
1090.417	-0.01
1090.831	-0.01
1091.244	-0.01
1091.658	-0.01
1092.071	-0.01
1092.485	-0.02
1092.898	-0.02
1093.312	-0.02
1093.725	-0.02
1094.138	-0.02
1094.552	-0.02
1094.965	-0.02
1095.378	-0.02
1095.791	-0.02
1096.205	-0.02
1096.618	-0.02
1097.031	-0.02
1097.444	-0.02
1097.857	-0.02
1098.27	-0.02
1098.683	-0.02
1099.096	-0.02
1099.509	-0.02
1099.922	-0.03
1100.335	-0.03
1100.748	-0.03
1101.161	-0.03
1101.574	-0.03
1101.986	-0.03
1102.399	-0.03
1102.812	-0.03
1103.225	-0.03
1103.637	-0.03
1104.05	-0.03
1104.463	-0.04
1104.875	-0.03
1105.288	-0.04
1105.7	-0.04
1106.113	-0.04
1106.525	-0.04
1106.938	-0.04
1107.35	-0.04
1107.763	-0.04
1108.175	-0.04
1108.588	-0.05
1109	-0.05
1109.412	-0.05
1109.824	-0.05
1110.237	-0.05
1110.649	-0.05
1111.061	-0.05
