Data from 2024-02-06-100ns-20nr-25nacl-100h2o-7bp2-1_8a808-40to10hyt-0_5cpm_Absorbance__59__00448.txt Node

Date: Tue Feb 06 15:53:50 CET 2024
User: Laser008
Spectrometer: MAYP115816
Trigger mode: 0
Integration Time (sec): 2.000000E-1
Scans to average: 10
Electric dark correction enabled: true
Nonlinearity correction enabled: true
Boxcar width: 5
XAxis mode: Wavelengths
Number of Pixels in Spectrum: 2068
>>>>>Begin Spectral Data<<<<<
198.914	-0.24
199.384	-0.21
199.855	-0.17
200.325	-0.14
200.796	-0.12
201.266	-0.1
201.737	-0.1
202.207	-0.09
202.677	-0.08
203.147	-0.08
203.618	-0.07
204.088	-0.06
204.558	-0.06
205.028	-0.05
205.498	-0.05
205.968	-0.05
206.439	-0.05
206.909	-0.05
207.379	-0.05
207.849	-0.05
208.319	-0.05
208.789	-0.05
209.258	-0.05
209.728	-0.05
210.198	-0.05
210.668	-0.05
211.138	-0.05
211.608	-0.05
212.077	-0.05
212.547	-0.05
213.017	-0.05
213.486	-0.05
213.956	-0.05
214.426	-0.05
214.895	-0.05
215.365	-0.05
215.834	-0.05
216.304	-0.05
216.773	-0.04
217.243	-0.04
217.712	-0.04
218.181	-0.04
218.651	-0.04
219.12	-0.03
219.589	-0.03
220.058	-0.03
220.528	-0.03
220.997	-0.03
221.466	-0.03
221.935	-0.03
222.404	-0.03
222.873	-0.02
223.342	-0.02
223.812	-0.02
224.281	-0.01
224.749	-0.01
225.218	-0.01
225.687	-0
226.156	0
226.625	0.01
227.094	0.02
227.563	0.03
228.031	0.04
228.5	0.05
228.969	0.06
229.438	0.07
229.906	0.09
230.375	0.11
230.844	0.13
231.312	0.14
231.781	0.15
232.249	0.17
232.718	0.18
233.186	0.2
233.655	0.21
234.123	0.23
234.591	0.24
235.06	0.25
235.528	0.26
235.996	0.27
236.465	0.27
236.933	0.28
237.401	0.29
237.869	0.29
238.337	0.3
238.805	0.3
239.274	0.3
239.742	0.31
240.21	0.31
240.678	0.31
241.146	0.31
241.614	0.31
242.081	0.32
242.549	0.32
243.017	0.32
243.485	0.32
243.953	0.32
244.421	0.33
244.888	0.33
245.356	0.33
245.824	0.33
246.291	0.33
246.759	0.33
247.227	0.33
247.694	0.34
248.162	0.34
248.629	0.34
249.097	0.34
249.564	0.34
250.032	0.34
250.499	0.35
250.967	0.35
251.434	0.35
251.901	0.35
252.369	0.35
252.836	0.35
253.303	0.35
253.77	0.36
254.237	0.36
254.705	0.36
255.172	0.36
255.639	0.36
256.106	0.36
256.573	0.36
257.04	0.36
257.507	0.36
257.974	0.37
258.441	0.37
258.908	0.37
259.375	0.37
259.841	0.37
260.308	0.37
260.775	0.37
261.242	0.37
261.709	0.37
262.175	0.37
262.642	0.36
263.109	0.36
263.575	0.36
264.042	0.36
264.508	0.36
264.975	0.36
265.441	0.36
265.908	0.36
266.374	0.36
266.841	0.36
267.307	0.36
267.773	0.36
268.24	0.35
268.706	0.35
269.172	0.35
269.639	0.35
270.105	0.35
270.571	0.35
271.037	0.34
271.503	0.34
271.969	0.34
272.435	0.34
272.902	0.34
273.368	0.33
273.834	0.33
274.3	0.33
274.765	0.33
275.231	0.33
275.697	0.33
276.163	0.32
276.629	0.32
277.095	0.32
277.56	0.32
278.026	0.32
278.492	0.31
278.958	0.31
279.423	0.31
279.889	0.31
280.354	0.3
280.82	0.3
281.286	0.3
281.751	0.3
282.217	0.29
282.682	0.29
283.147	0.29
283.613	0.29
284.078	0.29
284.544	0.28
285.009	0.28
285.474	0.28
285.939	0.28
286.405	0.28
286.87	0.28
287.335	0.27
287.8	0.27
288.265	0.27
288.73	0.27
289.195	0.27
289.66	0.27
290.125	0.27
290.59	0.26
291.055	0.26
291.52	0.26
291.985	0.26
292.45	0.26
292.915	0.26
293.38	0.26
293.844	0.26
294.309	0.26
294.774	0.25
295.239	0.25
295.703	0.25
296.168	0.25
296.632	0.25
297.097	0.25
297.562	0.25
298.026	0.25
298.491	0.25
298.955	0.25
299.419	0.25
299.884	0.25
300.348	0.25
300.813	0.25
301.277	0.25
301.741	0.25
302.205	0.24
302.67	0.24
303.134	0.24
303.598	0.24
304.062	0.24
304.526	0.24
304.99	0.24
305.454	0.24
305.919	0.24
306.383	0.24
306.847	0.24
307.31	0.24
307.774	0.24
308.238	0.24
308.702	0.24
309.166	0.24
309.63	0.24
310.094	0.24
310.557	0.24
311.021	0.24
311.485	0.24
311.948	0.24
312.412	0.24
312.876	0.24
313.339	0.23
313.803	0.23
314.266	0.23
314.73	0.23
315.193	0.23
315.657	0.23
316.12	0.23
316.584	0.23
317.047	0.23
317.51	0.23
317.973	0.23
318.437	0.23
318.9	0.23
319.363	0.23
319.826	0.23
320.29	0.23
320.753	0.23
321.216	0.23
321.679	0.23
322.142	0.23
322.605	0.23
323.068	0.23
323.531	0.23
323.994	0.23
324.457	0.23
324.92	0.22
325.382	0.22
325.845	0.22
326.308	0.22
326.771	0.22
327.233	0.22
327.696	0.22
328.159	0.22
328.622	0.22
329.084	0.22
329.547	0.22
330.009	0.22
330.472	0.22
330.934	0.22
331.397	0.22
331.859	0.22
332.322	0.22
332.784	0.22
333.246	0.22
333.709	0.22
334.171	0.22
334.633	0.22
335.096	0.22
335.558	0.22
336.02	0.22
336.482	0.22
336.944	0.22
337.406	0.21
337.868	0.21
338.331	0.21
338.793	0.21
339.255	0.21
339.717	0.21
340.178	0.21
340.64	0.21
341.102	0.21
341.564	0.21
342.026	0.21
342.488	0.21
342.949	0.21
343.411	0.21
343.873	0.21
344.335	0.21
344.796	0.21
345.258	0.21
345.719	0.21
346.181	0.21
346.643	0.21
347.104	0.21
347.566	0.21
348.027	0.21
348.488	0.21
348.95	0.21
349.411	0.21
349.873	0.21
350.334	0.21
350.795	0.21
351.256	0.21
351.718	0.21
352.179	0.21
352.64	0.21
353.101	0.21
353.562	0.21
354.023	0.21
354.484	0.21
354.945	0.21
355.406	0.21
355.867	0.21
356.328	0.21
356.789	0.21
357.25	0.21
357.711	0.21
358.172	0.2
358.633	0.2
359.093	0.2
359.554	0.2
360.015	0.2
360.476	0.2
360.936	0.2
361.397	0.2
361.858	0.2
362.318	0.2
362.779	0.2
363.239	0.2
363.7	0.2
364.16	0.2
364.621	0.2
365.081	0.2
365.541	0.2
366.002	0.2
366.462	0.2
366.922	0.2
367.383	0.2
367.843	0.2
368.303	0.2
368.763	0.2
369.223	0.2
369.684	0.2
370.144	0.2
370.604	0.2
371.064	0.2
371.524	0.2
371.984	0.2
372.444	0.2
372.904	0.2
373.363	0.2
373.823	0.2
374.283	0.2
374.743	0.2
375.203	0.2
375.663	0.2
376.122	0.2
376.582	0.2
377.042	0.2
377.501	0.2
377.961	0.2
378.42	0.2
378.88	0.2
379.34	0.2
379.799	0.2
380.259	0.2
380.718	0.2
381.177	0.2
381.637	0.2
382.096	0.2
382.555	0.2
383.015	0.2
383.474	0.2
383.933	0.2
384.393	0.2
384.852	0.2
385.311	0.2
385.77	0.2
386.229	0.2
386.688	0.2
387.147	0.2
387.606	0.2
388.065	0.2
388.524	0.2
388.983	0.2
389.442	0.2
389.901	0.2
390.36	0.2
390.819	0.2
391.277	0.2
391.736	0.2
392.195	0.2
392.654	0.2
393.112	0.2
393.571	0.2
394.03	0.2
394.488	0.2
394.947	0.2
395.405	0.2
395.864	0.19
396.322	0.19
396.781	0.19
397.239	0.19
397.698	0.19
398.156	0.19
398.614	0.19
399.073	0.19
399.531	0.19
399.989	0.19
400.447	0.19
400.905	0.19
401.364	0.19
401.822	0.19
402.28	0.19
402.738	0.19
403.196	0.19
403.654	0.19
404.112	0.19
404.57	0.19
405.028	0.19
405.486	0.19
405.944	0.19
406.402	0.19
406.859	0.19
407.317	0.19
407.775	0.19
408.233	0.19
408.691	0.19
409.148	0.19
409.606	0.19
410.064	0.19
410.521	0.19
410.979	0.19
411.436	0.19
411.894	0.19
412.351	0.19
412.809	0.19
413.266	0.19
413.724	0.19
414.181	0.19
414.638	0.19
415.096	0.19
415.553	0.19
416.01	0.19
416.467	0.19
416.925	0.19
417.382	0.19
417.839	0.19
418.296	0.19
418.753	0.19
419.21	0.19
419.667	0.18
420.124	0.18
420.581	0.18
421.038	0.18
421.495	0.18
421.952	0.18
422.409	0.18
422.866	0.18
423.322	0.18
423.779	0.18
424.236	0.18
424.693	0.18
425.149	0.18
425.606	0.18
426.063	0.18
426.519	0.18
426.976	0.18
427.433	0.18
427.889	0.18
428.346	0.18
428.802	0.18
429.258	0.18
429.715	0.18
430.171	0.18
430.628	0.18
431.084	0.18
431.54	0.18
431.997	0.18
432.453	0.18
432.909	0.18
433.365	0.18
433.821	0.18
434.277	0.18
434.734	0.18
435.19	0.18
435.646	0.18
436.102	0.18
436.558	0.18
437.014	0.18
437.47	0.18
437.925	0.18
438.381	0.18
438.837	0.18
439.293	0.18
439.749	0.18
440.205	0.18
440.66	0.18
441.116	0.17
441.572	0.17
442.027	0.17
442.483	0.17
442.939	0.17
443.394	0.17
443.85	0.17
444.305	0.17
444.761	0.17
445.216	0.17
445.672	0.17
446.127	0.17
446.582	0.17
447.038	0.17
447.493	0.17
447.948	0.17
448.403	0.17
448.859	0.17
449.314	0.17
449.769	0.17
450.224	0.17
450.679	0.17
451.134	0.17
451.589	0.17
452.044	0.17
452.499	0.17
452.954	0.17
453.409	0.17
453.864	0.17
454.319	0.17
454.774	0.17
455.229	0.17
455.684	0.17
456.138	0.17
456.593	0.17
457.048	0.17
457.503	0.17
457.957	0.17
458.412	0.17
458.866	0.17
459.321	0.17
459.776	0.17
460.23	0.17
460.685	0.17
461.139	0.17
461.593	0.17
462.048	0.17
462.502	0.17
462.957	0.17
463.411	0.17
463.865	0.17
464.319	0.17
464.774	0.17
465.228	0.17
465.682	0.17
466.136	0.17
466.59	0.17
467.044	0.17
467.499	0.17
467.953	0.17
468.407	0.17
468.861	0.17
469.315	0.17
469.768	0.17
470.222	0.17
470.676	0.17
471.13	0.17
471.584	0.17
472.038	0.17
472.491	0.17
472.945	0.17
473.399	0.17
473.852	0.17
474.306	0.17
474.76	0.17
475.213	0.17
475.667	0.17
476.12	0.17
476.574	0.17
477.027	0.17
477.481	0.17
477.934	0.17
478.388	0.17
478.841	0.17
479.294	0.17
479.748	0.17
480.201	0.17
480.654	0.17
481.107	0.17
481.561	0.17
482.014	0.17
482.467	0.17
482.92	0.17
483.373	0.17
483.826	0.17
484.279	0.17
484.732	0.17
485.185	0.17
485.638	0.17
486.091	0.17
486.544	0.17
486.997	0.17
487.449	0.18
487.902	0.18
488.355	0.18
488.808	0.18
489.26	0.18
489.713	0.18
490.166	0.18
490.618	0.18
491.071	0.18
491.523	0.18
491.976	0.18
492.429	0.18
492.881	0.18
493.333	0.18
493.786	0.18
494.238	0.19
494.691	0.19
495.143	0.19
495.595	0.19
496.048	0.19
496.5	0.19
496.952	0.19
497.404	0.19
497.856	0.19
498.309	0.19
498.761	0.19
499.213	0.19
499.665	0.2
500.117	0.2
500.569	0.2
501.021	0.2
501.473	0.2
501.925	0.2
502.377	0.2
502.828	0.2
503.28	0.2
503.732	0.21
504.184	0.21
504.636	0.21
505.087	0.21
505.539	0.21
505.991	0.21
506.442	0.21
506.894	0.21
507.345	0.21
507.797	0.21
508.249	0.22
508.7	0.22
509.151	0.22
509.603	0.22
510.054	0.22
510.506	0.22
510.957	0.22
511.408	0.22
511.86	0.22
512.311	0.23
512.762	0.23
513.213	0.23
513.665	0.23
514.116	0.23
514.567	0.23
515.018	0.23
515.469	0.23
515.92	0.23
516.371	0.23
516.822	0.23
517.273	0.24
517.724	0.24
518.175	0.24
518.626	0.24
519.076	0.24
519.527	0.24
519.978	0.24
520.429	0.24
520.88	0.24
521.33	0.24
521.781	0.24
522.232	0.24
522.682	0.25
523.133	0.25
523.583	0.25
524.034	0.25
524.484	0.25
524.935	0.25
525.385	0.25
525.836	0.25
526.286	0.25
526.736	0.25
527.187	0.25
527.637	0.25
528.087	0.25
528.538	0.26
528.988	0.26
529.438	0.26
529.888	0.26
530.338	0.26
530.788	0.26
531.238	0.26
531.688	0.26
532.139	0.26
532.589	0.26
533.038	0.26
533.488	0.26
533.938	0.26
534.388	0.26
534.838	0.26
535.288	0.26
535.738	0.26
536.187	0.26
536.637	0.26
537.087	0.26
537.537	0.26
537.986	0.27
538.436	0.27
538.885	0.27
539.335	0.27
539.785	0.27
540.234	0.27
540.684	0.27
541.133	0.27
541.582	0.27
542.032	0.27
542.481	0.27
542.931	0.27
543.38	0.27
543.829	0.27
544.278	0.27
544.728	0.27
545.177	0.27
545.626	0.27
546.075	0.27
546.524	0.27
546.973	0.27
547.422	0.27
547.871	0.28
548.32	0.28
548.769	0.28
549.218	0.28
549.667	0.28
550.116	0.28
550.565	0.28
551.014	0.28
551.463	0.28
551.911	0.28
552.36	0.28
552.809	0.28
553.258	0.28
553.706	0.28
554.155	0.28
554.603	0.28
555.052	0.28
555.501	0.28
555.949	0.28
556.398	0.28
556.846	0.28
557.294	0.28
557.743	0.28
558.191	0.28
558.64	0.28
559.088	0.28
559.536	0.28
559.985	0.28
560.433	0.28
560.881	0.28
561.329	0.28
561.777	0.28
562.225	0.28
562.674	0.28
563.122	0.28
563.57	0.28
564.018	0.28
564.466	0.28
564.914	0.28
565.362	0.28
565.809	0.28
566.257	0.28
566.705	0.28
567.153	0.28
567.601	0.28
568.048	0.28
568.496	0.28
568.944	0.28
569.392	0.28
569.839	0.28
570.287	0.28
570.734	0.28
571.182	0.28
571.63	0.28
572.077	0.27
572.525	0.27
572.972	0.27
573.419	0.27
573.867	0.27
574.314	0.27
574.761	0.27
575.209	0.27
575.656	0.27
576.103	0.27
576.551	0.27
576.998	0.27
577.445	0.27
577.892	0.27
578.339	0.27
578.786	0.27
579.233	0.27
579.68	0.27
580.127	0.27
580.574	0.27
581.021	0.26
581.468	0.26
581.915	0.26
582.362	0.26
582.809	0.26
583.255	0.26
583.702	0.26
584.149	0.26
584.596	0.26
585.042	0.26
585.489	0.26
585.936	0.26
586.382	0.25
586.829	0.25
587.275	0.25
587.722	0.25
588.168	0.25
588.615	0.25
589.061	0.25
589.508	0.25
589.954	0.25
590.4	0.25
590.847	0.25
591.293	0.24
591.739	0.24
592.185	0.24
592.632	0.24
593.078	0.24
593.524	0.24
593.97	0.24
594.416	0.24
594.862	0.24
595.308	0.23
595.754	0.23
596.2	0.23
596.646	0.23
597.092	0.23
597.538	0.23
597.984	0.23
598.43	0.23
598.876	0.23
599.321	0.23
599.767	0.22
600.213	0.22
600.659	0.22
601.104	0.22
601.55	0.22
601.995	0.22
602.441	0.22
602.887	0.22
603.332	0.22
603.778	0.22
604.223	0.22
604.668	0.21
605.114	0.21
605.559	0.21
606.005	0.21
606.45	0.21
606.895	0.21
607.341	0.21
607.786	0.21
608.231	0.21
608.676	0.21
609.121	0.21
609.566	0.2
610.012	0.2
610.457	0.2
610.902	0.2
611.347	0.2
611.792	0.2
612.237	0.2
612.682	0.2
613.127	0.2
613.571	0.2
614.016	0.2
614.461	0.19
614.906	0.19
615.351	0.19
615.795	0.19
616.24	0.19
616.685	0.19
617.129	0.19
617.574	0.19
618.019	0.19
618.463	0.19
618.908	0.19
619.352	0.19
619.797	0.18
620.241	0.18
620.686	0.18
621.13	0.18
621.574	0.18
622.019	0.18
622.463	0.18
622.907	0.18
623.352	0.18
623.796	0.18
624.24	0.18
624.684	0.18
625.128	0.18
625.572	0.18
626.016	0.18
626.461	0.18
626.905	0.17
627.349	0.17
627.793	0.17
628.236	0.17
628.68	0.17
629.124	0.17
629.568	0.17
630.012	0.17
630.456	0.17
630.9	0.17
631.343	0.17
631.787	0.17
632.231	0.17
632.674	0.17
633.118	0.17
633.562	0.17
634.005	0.17
634.449	0.17
634.892	0.17
635.336	0.17
635.779	0.17
636.223	0.17
636.666	0.17
637.109	0.17
637.553	0.17
637.996	0.17
638.439	0.17
638.883	0.17
639.326	0.17
639.769	0.18
640.212	0.18
640.655	0.18
641.099	0.18
641.542	0.18
641.985	0.18
642.428	0.18
642.871	0.18
643.314	0.18
643.757	0.18
644.2	0.18
644.643	0.18
645.085	0.18
645.528	0.18
645.971	0.19
646.414	0.19
646.857	0.19
647.299	0.19
647.742	0.19
648.185	0.19
648.627	0.19
649.07	0.19
649.513	0.2
649.955	0.2
650.398	0.2
650.84	0.2
651.283	0.2
651.725	0.2
652.168	0.2
652.61	0.21
653.052	0.21
653.495	0.21
653.937	0.16
654.379	0.13
654.821	0.13
655.264	0.14
655.706	0.14
656.148	0.14
656.59	0.14
657.032	0.14
657.474	0.14
657.916	0.14
658.358	0.13
658.8	0.17
659.242	0.23
659.684	0.23
660.126	0.23
660.568	0.24
661.01	0.24
661.452	0.24
661.894	0.24
662.335	0.25
662.777	0.25
663.219	0.25
663.661	0.25
664.102	0.26
664.544	0.26
664.985	0.26
665.427	0.26
665.869	0.26
666.31	0.27
666.752	0.27
667.193	0.27
667.634	0.27
668.076	0.27
668.517	0.27
668.959	0.28
669.4	0.28
669.841	0.28
670.282	0.28
670.724	0.28
671.165	0.28
671.606	0.29
672.047	0.29
672.488	0.29
672.929	0.29
673.37	0.29
673.811	0.29
674.252	0.29
674.693	0.29
675.134	0.3
675.575	0.3
676.016	0.3
676.457	0.3
676.898	0.3
677.339	0.3
677.78	0.3
678.22	0.31
678.661	0.31
679.102	0.31
679.542	0.31
679.983	0.31
680.424	0.31
680.864	0.31
681.305	0.31
681.745	0.32
682.186	0.32
682.626	0.32
683.067	0.32
683.507	0.32
683.948	0.32
684.388	0.32
684.828	0.32
685.269	0.32
685.709	0.32
686.149	0.32
686.589	0.32
687.029	0.32
687.47	0.33
687.91	0.33
688.35	0.33
688.79	0.33
689.23	0.33
689.67	0.33
690.11	0.33
690.55	0.33
690.99	0.33
691.43	0.33
691.87	0.33
692.31	0.33
692.749	0.33
693.189	0.33
693.629	0.33
694.069	0.33
694.508	0.33
694.948	0.33
695.388	0.33
695.827	0.33
696.267	0.33
696.706	0.33
697.146	0.33
697.586	0.33
698.025	0.33
698.464	0.32
698.904	0.32
699.343	0.32
699.783	0.32
700.222	0.32
700.661	0.32
701.101	0.32
701.54	0.32
701.979	0.32
702.418	0.32
702.857	0.32
703.297	0.32
703.736	0.32
704.175	0.32
704.614	0.32
705.053	0.32
705.492	0.32
705.931	0.32
706.37	0.32
706.809	0.32
707.248	0.32
707.687	0.32
708.125	0.32
708.564	0.31
709.003	0.31
709.442	0.31
709.88	0.31
710.319	0.31
710.758	0.31
711.196	0.31
711.635	0.31
712.074	0.31
712.512	0.31
712.951	0.3
713.389	0.3
713.828	0.3
714.266	0.3
714.705	0.3
715.143	0.3
715.581	0.3
716.02	0.3
716.458	0.3
716.896	0.29
717.334	0.29
717.773	0.29
718.211	0.29
718.649	0.29
719.087	0.29
719.525	0.29
719.963	0.29
720.401	0.29
720.839	0.28
721.277	0.28
721.715	0.28
722.153	0.28
722.591	0.28
723.029	0.28
723.467	0.28
723.905	0.28
724.342	0.28
724.78	0.28
725.218	0.28
725.656	0.28
726.093	0.28
726.531	0.28
726.969	0.27
727.406	0.27
727.844	0.27
728.281	0.27
728.719	0.27
729.156	0.27
729.594	0.27
730.031	0.27
730.469	0.27
730.906	0.27
731.343	0.27
731.781	0.27
732.218	0.27
732.655	0.27
733.092	0.26
733.53	0.26
733.967	0.26
734.404	0.26
734.841	0.26
735.278	0.26
735.715	0.26
736.152	0.25
736.589	0.25
737.026	0.25
737.463	0.25
737.9	0.25
738.337	0.25
738.774	0.25
739.211	0.25
739.647	0.24
740.084	0.24
740.521	0.24
740.958	0.24
741.394	0.24
741.831	0.24
742.268	0.24
742.704	0.24
743.141	0.24
743.577	0.24
744.014	0.23
744.45	0.23
744.887	0.23
745.323	0.23
745.76	0.23
746.196	0.23
746.632	0.23
747.069	0.23
747.505	0.22
747.941	0.22
748.378	0.22
748.814	0.22
749.25	0.22
749.686	0.22
750.122	0.22
750.558	0.22
750.994	0.22
751.43	0.21
751.866	0.21
752.302	0.21
752.738	0.21
753.174	0.21
753.61	0.2
754.046	0.2
754.482	0.2
754.918	0.2
755.354	0.2
755.789	0.2
756.225	0.2
756.661	0.19
757.096	0.19
757.532	0.19
757.968	0.19
758.403	0.19
758.839	0.19
759.274	0.19
759.71	0.19
760.145	0.19
760.581	0.18
761.016	0.18
761.452	0.18
761.887	0.18
762.322	0.18
762.758	0.18
763.193	0.17
763.628	0.17
764.063	0.17
764.499	0.16
764.934	0.16
765.369	0.16
765.804	0.15
766.239	0.15
766.674	0.15
767.109	0.15
767.544	0.14
767.979	0.14
768.414	0.14
768.849	0.13
769.284	0.13
769.719	0.13
770.154	0.13
770.588	0.12
771.023	0.12
771.458	0.12
771.893	0.11
772.327	0.11
772.762	0.1
773.197	0.1
773.631	0.09
774.066	0.09
774.5	0.08
774.935	0.07
775.369	0.07
775.804	0.06
776.238	0.06
776.673	0.05
777.107	0.05
777.541	0.04
777.976	0.03
778.41	0.03
778.844	0.02
779.279	0.02
779.713	0.01
780.147	0.01
780.581	0
781.015	-0
781.449	-0.01
781.883	-0.02
782.317	-0.02
782.751	-0.03
783.185	-0.04
783.619	-0.04
784.053	-0.05
784.487	-0.06
784.921	-0.07
785.355	-0.08
785.789	-0.09
786.223	-0.09
786.656	-0.1
787.09	-0.1
787.524	-0.1
787.957	-0.11
788.391	-0.12
788.825	-0.12
789.258	-0.12
789.692	-0.12
790.125	-0.13
790.559	-0.13
790.992	-0.13
791.426	-0.13
791.859	-0.13
792.293	-0.12
792.726	-0.11
793.159	-0.1
793.593	-0.1
794.026	-0.1
794.459	-0.11
794.892	-0.11
795.326	-0.11
795.759	-0.11
796.192	-0.11
796.625	-0.12
797.058	-0.13
797.491	-0.14
797.924	-0.15
798.357	-0.15
798.79	-0.15
799.223	-0.15
799.656	-0.15
800.089	-0.15
800.522	-0.15
800.955	-0.16
801.387	-0.15
801.82	-0.16
802.253	-0.16
802.686	-0.16
803.118	-0.16
803.551	-0.16
803.984	-0.15
804.416	-0.15
804.849	-0.14
805.281	-0.14
805.714	-0.14
806.146	-0.14
806.579	-0.13
807.011	-0.13
807.444	-0.13
807.876	-0.13
808.308	-0.13
808.741	-0.14
809.173	-0.14
809.605	-0.15
810.037	-0.15
810.47	-0.15
810.902	-0.16
811.334	-0.16
811.766	-0.16
812.198	-0.15
812.63	-0.15
813.062	-0.16
813.494	-0.16
813.926	-0.16
814.358	-0.16
814.79	-0.16
815.222	-0.15
815.654	-0.15
816.086	-0.14
816.518	-0.14
816.949	-0.14
817.381	-0.13
817.813	-0.12
818.245	-0.11
818.676	-0.1
819.108	-0.09
819.54	-0.08
819.971	-0.07
820.403	-0.06
820.834	-0.05
821.266	-0.04
821.697	-0.03
822.129	-0.02
822.56	-0.01
822.991	-0.01
823.423	-0
823.854	0
824.286	0.01
824.717	0.01
825.148	0.02
825.579	0.02
826.01	0.03
826.442	0.03
826.873	0.04
827.304	0.04
827.735	0.04
828.166	0.05
828.597	0.05
829.028	0.05
829.459	0.05
829.89	0.05
830.321	0.06
830.752	0.06
831.183	0.06
831.613	0.06
832.044	0.06
832.475	0.06
832.906	0.07
833.336	0.07
833.767	0.07
834.198	0.07
834.628	0.07
835.059	0.07
835.49	0.07
835.92	0.07
836.351	0.07
836.781	0.07
837.212	0.07
837.642	0.07
838.072	0.07
838.503	0.07
838.933	0.08
839.364	0.08
839.794	0.08
840.224	0.08
840.654	0.08
841.085	0.08
841.515	0.08
841.945	0.08
842.375	0.08
842.805	0.08
843.235	0.08
843.665	0.08
844.095	0.08
844.525	0.07
844.955	0.07
845.385	0.07
845.815	0.07
846.245	0.07
846.675	0.07
847.105	0.07
847.534	0.07
847.964	0.07
848.394	0.07
848.824	0.07
849.253	0.07
849.683	0.07
850.112	0.07
850.542	0.07
850.972	0.07
851.401	0.07
851.831	0.07
852.26	0.07
852.69	0.07
853.119	0.07
853.548	0.07
853.978	0.07
854.407	0.07
854.836	0.07
855.266	0.07
855.695	0.07
856.124	0.07
856.553	0.07
856.983	0.07
857.412	0.07
857.841	0.07
858.27	0.07
858.699	0.07
859.128	0.07
859.557	0.07
859.986	0.07
860.415	0.07
860.844	0.07
861.273	0.07
861.702	0.07
862.13	0.07
862.559	0.07
862.988	0.07
863.417	0.07
863.845	0.07
864.274	0.07
864.703	0.07
865.131	0.07
865.56	0.07
865.989	0.07
866.417	0.07
866.846	0.07
867.274	0.07
867.703	0.07
868.131	0.07
868.559	0.07
868.988	0.07
869.416	0.07
869.844	0.07
870.273	0.07
870.701	0.07
871.129	0.06
871.557	0.06
871.986	0.06
872.414	0.06
872.842	0.06
873.27	0.06
873.698	0.06
874.126	0.06
874.554	0.06
874.982	0.05
875.41	0.05
875.838	0.05
876.266	0.05
876.694	0.05
877.122	0.05
877.549	0.05
877.977	0.05
878.405	0.05
878.833	0.05
879.26	0.05
879.688	0.05
880.116	0.05
880.543	0.05
880.971	0.05
881.399	0.05
881.826	0.05
882.254	0.05
882.681	0.05
883.109	0.05
883.536	0.05
883.963	0.05
884.391	0.05
884.818	0.05
885.245	0.05
885.673	0.05
886.1	0.05
886.527	0.05
886.954	0.05
887.381	0.05
887.809	0.05
888.236	0.05
888.663	0.05
889.09	0.05
889.517	0.05
889.944	0.05
890.371	0.05
890.798	0.05
891.225	0.05
891.652	0.05
892.078	0.05
892.505	0.05
892.932	0.05
893.359	0.05
893.786	0.05
894.212	0.05
894.639	0.05
895.066	0.05
895.492	0.05
895.919	0.05
896.346	0.05
896.772	0.05
897.199	0.05
897.625	0.05
898.052	0.05
898.478	0.05
898.904	0.04
899.331	0.04
899.757	0.04
900.183	0.04
900.61	0.04
901.036	0.04
901.462	0.04
901.888	0.04
902.315	0.04
902.741	0.04
903.167	0.04
903.593	0.04
904.019	0.04
904.445	0.04
904.871	0.04
905.297	0.04
905.723	0.04
906.149	0.04
906.575	0.04
907.001	0.04
907.427	0.05
907.852	0.05
908.278	0.05
908.704	0.05
909.13	0.05
909.555	0.05
909.981	0.05
910.407	0.05
910.832	0.05
911.258	0.05
911.684	0.05
912.109	0.05
912.535	0.05
912.96	0.05
913.386	0.05
913.811	0.05
914.236	0.05
914.662	0.05
915.087	0.05
915.512	0.05
915.938	0.05
916.363	0.05
916.788	0.05
917.213	0.05
917.639	0.05
918.064	0.05
918.489	0.05
918.914	0.05
919.339	0.05
919.764	0.05
920.189	0.05
920.614	0.05
921.039	0.05
921.464	0.05
921.889	0.05
922.314	0.05
922.738	0.05
923.163	0.05
923.588	0.05
924.013	0.05
924.437	0.04
924.862	0.04
925.287	0.04
925.711	0.04
926.136	0.04
926.561	0.04
926.985	0.04
927.41	0.04
927.834	0.04
928.259	0.04
928.683	0.04
929.108	0.04
929.532	0.04
929.956	0.04
930.381	0.04
930.805	0.04
931.229	0.03
931.653	0.03
932.078	0.03
932.502	0.03
932.926	0.03
933.35	0.03
933.774	0.03
934.198	0.03
934.622	0.03
935.046	0.03
935.47	0.03
935.894	0.03
936.318	0.03
936.742	0.03
937.166	0.03
937.59	0.03
938.014	0.03
938.437	0.03
938.861	0.03
939.285	0.03
939.709	0.03
940.132	0.03
940.556	0.03
940.98	0.03
941.403	0.03
941.827	0.03
942.25	0.03
942.674	0.03
943.097	0.03
943.521	0.03
943.944	0.03
944.368	0.03
944.791	0.03
945.214	0.03
945.638	0.03
946.061	0.03
946.484	0.03
946.907	0.04
947.331	0.04
947.754	0.04
948.177	0.04
948.6	0.04
949.023	0.04
949.446	0.04
949.869	0.04
950.292	0.04
950.715	0.04
951.138	0.03
951.561	0.03
951.984	0.03
952.407	0.03
952.83	0.03
953.252	0.03
953.675	0.03
954.098	0.03
954.521	0.03
954.943	0.03
955.366	0.03
955.789	0.03
956.211	0.03
956.634	0.03
957.056	0.03
957.479	0.03
957.902	0.03
958.324	0.03
958.746	0.03
959.169	0.03
959.591	0.03
960.014	0.03
960.436	0.03
960.858	0.03
961.281	0.03
961.703	0.03
962.125	0.03
962.547	0.03
962.969	0.03
963.391	0.03
963.814	0.03
964.236	0.03
964.658	0.03
965.08	0.03
965.502	0.03
965.924	0.03
966.346	0.03
966.768	0.03
967.189	0.03
967.611	0.03
968.033	0.03
968.455	0.03
968.877	0.03
969.298	0.03
969.72	0.03
970.142	0.03
970.563	0.03
970.985	0.03
971.407	0.03
971.828	0.03
972.25	0.03
972.671	0.03
973.093	0.03
973.514	0.03
973.936	0.03
974.357	0.03
974.778	0.03
975.2	0.03
975.621	0.03
976.042	0.03
976.464	0.03
976.885	0.03
977.306	0.03
977.727	0.03
978.148	0.03
978.57	0.03
978.991	0.03
979.412	0.03
979.833	0.03
980.254	0.03
980.675	0.03
981.096	0.03
981.517	0.03
981.937	0.03
982.358	0.03
982.779	0.03
983.2	0.03
983.621	0.03
984.042	0.03
984.462	0.03
984.883	0.03
985.304	0.03
985.724	0.03
986.145	0.03
986.565	0.03
986.986	0.03
987.407	0.03
987.827	0.03
988.248	0.03
988.668	0.03
989.088	0.03
989.509	0.03
989.929	0.03
990.35	0.03
990.77	0.03
991.19	0.03
991.61	0.03
992.031	0.03
992.451	0.03
992.871	0.03
993.291	0.03
993.711	0.03
994.131	0.03
994.551	0.03
994.971	0.03
995.391	0.03
995.811	0.03
996.231	0.03
996.651	0.03
997.071	0.03
997.491	0.03
997.911	0.03
998.331	0.03
998.75	0.03
999.17	0.03
999.59	0.03
1000.009	0.03
1000.429	0.03
1000.849	0.03
1001.268	0.03
1001.688	0.03
1002.107	0.03
1002.527	0.03
1002.946	0.02
1003.366	0.02
1003.785	0.02
1004.205	0.02
1004.624	0.02
1005.044	0.02
1005.463	0.02
1005.882	0.02
1006.301	0.02
1006.721	0.02
1007.14	0.02
1007.559	0.02
1007.978	0.02
1008.397	0.01
1008.816	0.01
1009.235	0.01
1009.655	0.01
1010.074	0.01
1010.492	0.01
1010.911	0.01
1011.33	0.01
1011.749	0.01
1012.168	0.01
1012.587	0.01
1013.006	0.01
1013.425	0.01
1013.843	0.01
1014.262	0.01
1014.681	0.01
1015.099	0.01
1015.518	0.01
1015.937	0.01
1016.355	0.01
1016.774	0.01
1017.192	0.01
1017.611	0.01
1018.029	0.01
1018.448	0.01
1018.866	0.01
1019.285	0.01
1019.703	0.01
1020.121	0.01
1020.54	0.01
1020.958	0.01
1021.376	0.01
1021.794	0.01
1022.213	0.02
1022.631	0.02
1023.049	0.02
1023.467	0.02
1023.885	0.02
1024.303	0.02
1024.721	0.02
1025.139	0.02
1025.557	0.02
1025.975	0.02
1026.393	0.02
1026.811	0.02
1027.229	0.02
1027.647	0.02
1028.065	0.02
1028.482	0.02
1028.9	0.02
1029.318	0.02
1029.735	0.02
1030.153	0.02
1030.571	0.02
1030.988	0.02
1031.406	0.02
1031.823	0.02
1032.241	0.02
1032.659	0.02
1033.076	0.02
1033.493	0.02
1033.911	0.02
1034.328	0.02
1034.746	0.02
1035.163	0.02
1035.58	0.02
1035.997	0.02
1036.415	0.02
1036.832	0.02
1037.249	0.02
1037.666	0.01
1038.083	0.01
1038.501	0.01
1038.918	0.01
1039.335	0.01
1039.752	0.01
1040.169	0.01
1040.586	0.01
1041.003	0.01
1041.419	0.01
1041.836	0.01
1042.253	0.01
1042.67	0.01
1043.087	0.01
1043.504	0.01
1043.92	0.01
1044.337	0.01
1044.754	0.01
1045.17	0.01
1045.587	0.01
1046.004	0.01
1046.42	0.01
1046.837	0.01
1047.253	0.01
1047.67	0.01
1048.086	0.01
1048.503	0.01
1048.919	0.01
1049.335	0.01
1049.752	0.01
1050.168	0.02
1050.584	0.02
1051.001	0.02
1051.417	0.02
1051.833	0.02
1052.249	0.02
1052.665	0.02
1053.081	0.02
1053.497	0.02
1053.914	0.02
1054.33	0.02
1054.746	0.02
1055.162	0.02
1055.578	0.02
1055.993	0.02
1056.409	0.02
1056.825	0.02
1057.241	0.01
1057.657	0.01
1058.073	0.01
1058.488	0.01
1058.904	0.01
1059.32	0.01
1059.736	0.01
1060.151	0.01
1060.567	0.01
1060.982	0.01
1061.398	0.01
1061.813	0.01
1062.229	0.01
1062.644	0.01
1063.06	0.01
1063.475	0.01
1063.891	0.01
1064.306	0.01
1064.721	0.01
1065.137	0.01
1065.552	0.01
1065.967	0.01
1066.382	0.01
1066.798	0.01
1067.213	0
1067.628	0.01
1068.043	0.01
1068.458	0.01
1068.873	0.01
1069.288	0.01
1069.703	0.01
1070.118	0.01
1070.533	0.01
1070.948	0.01
1071.363	0.01
1071.778	0
1072.193	0
1072.607	0
1073.022	0
1073.437	0
1073.852	0
1074.266	0
1074.681	0
1075.096	0
1075.51	-0
1075.925	-0
1076.339	-0
1076.754	-0
1077.168	-0
1077.583	-0
1077.997	-0
1078.412	-0
1078.826	-0
1079.24	-0
1079.655	-0
1080.069	-0
1080.483	-0
1080.897	-0
1081.312	-0
1081.726	-0
1082.14	-0
1082.554	-0
1082.968	-0
1083.382	-0
1083.796	-0
1084.21	-0
1084.624	-0
1085.038	-0
1085.452	-0
1085.866	-0
1086.28	-0
1086.694	-0
1087.108	-0
1087.521	-0
1087.935	-0
1088.349	-0
1088.763	-0
1089.176	-0
1089.59	-0.01
1090.004	-0.01
1090.417	-0.01
1090.831	-0.01
1091.244	-0.01
1091.658	-0.01
1092.071	-0.01
1092.485	-0.01
1092.898	-0.01
1093.312	-0.01
1093.725	-0.01
1094.138	-0.01
1094.552	-0.01
1094.965	-0.01
1095.378	-0.01
1095.791	-0.01
1096.205	-0.01
1096.618	-0.01
1097.031	-0.02
1097.444	-0.02
1097.857	-0.02
1098.27	-0.02
1098.683	-0.02
1099.096	-0.02
1099.509	-0.02
1099.922	-0.02
1100.335	-0.02
1100.748	-0.02
1101.161	-0.02
1101.574	-0.02
1101.986	-0.02
1102.399	-0.02
1102.812	-0.03
1103.225	-0.03
1103.637	-0.03
1104.05	-0.03
1104.463	-0.03
1104.875	-0.03
1105.288	-0.03
1105.7	-0.03
1106.113	-0.03
1106.525	-0.04
1106.938	-0.04
1107.35	-0.04
1107.763	-0.04
1108.175	-0.04
1108.588	-0.04
1109	-0.05
1109.412	-0.05
1109.824	-0.05
1110.237	-0.05
1110.649	-0.05
1111.061	-0.05
