Data from 2024-02-06-100ns-20nr-25nacl-100h2o-7bp2-1_8a808-40to10hyt-0_5cpm_Absorbance__84__00473.txt Node

Date: Tue Feb 06 16:06:20 CET 2024
User: Laser008
Spectrometer: MAYP115816
Trigger mode: 0
Integration Time (sec): 2.000000E-1
Scans to average: 10
Electric dark correction enabled: true
Nonlinearity correction enabled: true
Boxcar width: 5
XAxis mode: Wavelengths
Number of Pixels in Spectrum: 2068
>>>>>Begin Spectral Data<<<<<
198.914	-0.26
199.384	-0.22
199.855	-0.18
200.325	-0.15
200.796	-0.12
201.266	-0.11
201.737	-0.11
202.207	-0.1
202.677	-0.09
203.147	-0.09
203.618	-0.08
204.088	-0.07
204.558	-0.06
205.028	-0.06
205.498	-0.05
205.968	-0.05
206.439	-0.06
206.909	-0.05
207.379	-0.05
207.849	-0.06
208.319	-0.06
208.789	-0.05
209.258	-0.06
209.728	-0.06
210.198	-0.06
210.668	-0.06
211.138	-0.06
211.608	-0.06
212.077	-0.07
212.547	-0.07
213.017	-0.07
213.486	-0.07
213.956	-0.07
214.426	-0.07
214.895	-0.06
215.365	-0.07
215.834	-0.06
216.304	-0.06
216.773	-0.06
217.243	-0.06
217.712	-0.05
218.181	-0.05
218.651	-0.05
219.12	-0.05
219.589	-0.04
220.058	-0.04
220.528	-0.04
220.997	-0.04
221.466	-0.03
221.935	-0.04
222.404	-0.03
222.873	-0.03
223.342	-0.03
223.812	-0.03
224.281	-0.02
224.749	-0.02
225.218	-0.01
225.687	-0.01
226.156	-0
226.625	0.01
227.094	0.01
227.563	0.02
228.031	0.03
228.5	0.04
228.969	0.06
229.438	0.07
229.906	0.09
230.375	0.11
230.844	0.13
231.312	0.15
231.781	0.16
232.249	0.18
232.718	0.2
233.186	0.22
233.655	0.23
234.123	0.25
234.591	0.26
235.06	0.27
235.528	0.28
235.996	0.29
236.465	0.3
236.933	0.31
237.401	0.32
237.869	0.32
238.337	0.33
238.805	0.33
239.274	0.34
239.742	0.34
240.21	0.34
240.678	0.34
241.146	0.35
241.614	0.35
242.081	0.35
242.549	0.35
243.017	0.35
243.485	0.36
243.953	0.36
244.421	0.36
244.888	0.36
245.356	0.36
245.824	0.36
246.291	0.37
246.759	0.37
247.227	0.37
247.694	0.37
248.162	0.37
248.629	0.38
249.097	0.38
249.564	0.38
250.032	0.38
250.499	0.38
250.967	0.38
251.434	0.39
251.901	0.39
252.369	0.39
252.836	0.39
253.303	0.39
253.77	0.39
254.237	0.39
254.705	0.4
255.172	0.4
255.639	0.4
256.106	0.4
256.573	0.4
257.04	0.4
257.507	0.4
257.974	0.4
258.441	0.4
258.908	0.4
259.375	0.4
259.841	0.4
260.308	0.4
260.775	0.4
261.242	0.4
261.709	0.4
262.175	0.4
262.642	0.4
263.109	0.4
263.575	0.4
264.042	0.4
264.508	0.4
264.975	0.39
265.441	0.39
265.908	0.39
266.374	0.39
266.841	0.39
267.307	0.39
267.773	0.39
268.24	0.39
268.706	0.38
269.172	0.38
269.639	0.38
270.105	0.38
270.571	0.38
271.037	0.37
271.503	0.37
271.969	0.37
272.435	0.37
272.902	0.37
273.368	0.36
273.834	0.36
274.3	0.36
274.765	0.36
275.231	0.36
275.697	0.35
276.163	0.35
276.629	0.35
277.095	0.35
277.56	0.34
278.026	0.34
278.492	0.34
278.958	0.33
279.423	0.33
279.889	0.33
280.354	0.33
280.82	0.32
281.286	0.32
281.751	0.32
282.217	0.32
282.682	0.31
283.147	0.31
283.613	0.31
284.078	0.31
284.544	0.31
285.009	0.3
285.474	0.3
285.939	0.3
286.405	0.3
286.87	0.3
287.335	0.29
287.8	0.29
288.265	0.29
288.73	0.29
289.195	0.29
289.66	0.29
290.125	0.28
290.59	0.28
291.055	0.28
291.52	0.28
291.985	0.28
292.45	0.28
292.915	0.28
293.38	0.27
293.844	0.27
294.309	0.27
294.774	0.27
295.239	0.27
295.703	0.27
296.168	0.27
296.632	0.27
297.097	0.27
297.562	0.26
298.026	0.26
298.491	0.26
298.955	0.26
299.419	0.26
299.884	0.26
300.348	0.26
300.813	0.26
301.277	0.26
301.741	0.26
302.205	0.26
302.67	0.26
303.134	0.26
303.598	0.26
304.062	0.26
304.526	0.26
304.99	0.25
305.454	0.25
305.919	0.25
306.383	0.25
306.847	0.25
307.31	0.25
307.774	0.25
308.238	0.25
308.702	0.25
309.166	0.25
309.63	0.25
310.094	0.25
310.557	0.25
311.021	0.25
311.485	0.25
311.948	0.25
312.412	0.25
312.876	0.25
313.339	0.25
313.803	0.24
314.266	0.24
314.73	0.24
315.193	0.24
315.657	0.24
316.12	0.24
316.584	0.24
317.047	0.24
317.51	0.24
317.973	0.24
318.437	0.24
318.9	0.24
319.363	0.24
319.826	0.24
320.29	0.24
320.753	0.24
321.216	0.24
321.679	0.24
322.142	0.24
322.605	0.24
323.068	0.24
323.531	0.23
323.994	0.23
324.457	0.23
324.92	0.23
325.382	0.23
325.845	0.23
326.308	0.23
326.771	0.23
327.233	0.23
327.696	0.23
328.159	0.23
328.622	0.23
329.084	0.23
329.547	0.23
330.009	0.23
330.472	0.23
330.934	0.23
331.397	0.23
331.859	0.23
332.322	0.23
332.784	0.23
333.246	0.23
333.709	0.22
334.171	0.22
334.633	0.22
335.096	0.22
335.558	0.22
336.02	0.22
336.482	0.22
336.944	0.22
337.406	0.22
337.868	0.22
338.331	0.22
338.793	0.22
339.255	0.22
339.717	0.22
340.178	0.22
340.64	0.22
341.102	0.22
341.564	0.22
342.026	0.22
342.488	0.22
342.949	0.22
343.411	0.22
343.873	0.22
344.335	0.22
344.796	0.22
345.258	0.22
345.719	0.22
346.181	0.22
346.643	0.21
347.104	0.21
347.566	0.21
348.027	0.21
348.488	0.21
348.95	0.21
349.411	0.21
349.873	0.21
350.334	0.21
350.795	0.21
351.256	0.21
351.718	0.21
352.179	0.21
352.64	0.21
353.101	0.21
353.562	0.21
354.023	0.21
354.484	0.21
354.945	0.21
355.406	0.21
355.867	0.21
356.328	0.21
356.789	0.21
357.25	0.21
357.711	0.21
358.172	0.21
358.633	0.21
359.093	0.21
359.554	0.21
360.015	0.21
360.476	0.21
360.936	0.21
361.397	0.21
361.858	0.21
362.318	0.21
362.779	0.21
363.239	0.21
363.7	0.21
364.16	0.21
364.621	0.21
365.081	0.21
365.541	0.21
366.002	0.21
366.462	0.21
366.922	0.21
367.383	0.21
367.843	0.21
368.303	0.21
368.763	0.21
369.223	0.21
369.684	0.21
370.144	0.21
370.604	0.21
371.064	0.21
371.524	0.21
371.984	0.21
372.444	0.21
372.904	0.21
373.363	0.21
373.823	0.21
374.283	0.21
374.743	0.21
375.203	0.21
375.663	0.21
376.122	0.21
376.582	0.21
377.042	0.21
377.501	0.21
377.961	0.21
378.42	0.21
378.88	0.2
379.34	0.2
379.799	0.2
380.259	0.2
380.718	0.2
381.177	0.2
381.637	0.2
382.096	0.2
382.555	0.2
383.015	0.2
383.474	0.2
383.933	0.2
384.393	0.2
384.852	0.2
385.311	0.2
385.77	0.2
386.229	0.2
386.688	0.2
387.147	0.2
387.606	0.2
388.065	0.2
388.524	0.2
388.983	0.2
389.442	0.2
389.901	0.2
390.36	0.2
390.819	0.2
391.277	0.2
391.736	0.2
392.195	0.2
392.654	0.2
393.112	0.2
393.571	0.2
394.03	0.2
394.488	0.2
394.947	0.2
395.405	0.2
395.864	0.2
396.322	0.2
396.781	0.2
397.239	0.2
397.698	0.2
398.156	0.2
398.614	0.2
399.073	0.2
399.531	0.19
399.989	0.19
400.447	0.19
400.905	0.19
401.364	0.19
401.822	0.19
402.28	0.19
402.738	0.19
403.196	0.19
403.654	0.19
404.112	0.19
404.57	0.19
405.028	0.19
405.486	0.19
405.944	0.19
406.402	0.19
406.859	0.19
407.317	0.19
407.775	0.19
408.233	0.19
408.691	0.19
409.148	0.19
409.606	0.19
410.064	0.19
410.521	0.19
410.979	0.19
411.436	0.19
411.894	0.19
412.351	0.19
412.809	0.19
413.266	0.19
413.724	0.19
414.181	0.19
414.638	0.19
415.096	0.19
415.553	0.19
416.01	0.19
416.467	0.19
416.925	0.19
417.382	0.19
417.839	0.19
418.296	0.19
418.753	0.19
419.21	0.19
419.667	0.19
420.124	0.19
420.581	0.19
421.038	0.19
421.495	0.19
421.952	0.19
422.409	0.18
422.866	0.18
423.322	0.18
423.779	0.18
424.236	0.18
424.693	0.18
425.149	0.18
425.606	0.18
426.063	0.18
426.519	0.18
426.976	0.18
427.433	0.18
427.889	0.18
428.346	0.18
428.802	0.18
429.258	0.18
429.715	0.18
430.171	0.18
430.628	0.18
431.084	0.18
431.54	0.18
431.997	0.18
432.453	0.18
432.909	0.18
433.365	0.18
433.821	0.18
434.277	0.18
434.734	0.18
435.19	0.18
435.646	0.18
436.102	0.18
436.558	0.18
437.014	0.18
437.47	0.18
437.925	0.18
438.381	0.18
438.837	0.18
439.293	0.18
439.749	0.18
440.205	0.18
440.66	0.18
441.116	0.18
441.572	0.18
442.027	0.18
442.483	0.18
442.939	0.18
443.394	0.18
443.85	0.18
444.305	0.18
444.761	0.18
445.216	0.18
445.672	0.18
446.127	0.18
446.582	0.18
447.038	0.18
447.493	0.18
447.948	0.18
448.403	0.18
448.859	0.18
449.314	0.18
449.769	0.17
450.224	0.17
450.679	0.17
451.134	0.17
451.589	0.17
452.044	0.17
452.499	0.17
452.954	0.17
453.409	0.17
453.864	0.17
454.319	0.17
454.774	0.17
455.229	0.17
455.684	0.17
456.138	0.17
456.593	0.17
457.048	0.17
457.503	0.17
457.957	0.17
458.412	0.17
458.866	0.17
459.321	0.17
459.776	0.17
460.23	0.17
460.685	0.17
461.139	0.17
461.593	0.17
462.048	0.17
462.502	0.17
462.957	0.17
463.411	0.17
463.865	0.17
464.319	0.17
464.774	0.17
465.228	0.17
465.682	0.17
466.136	0.17
466.59	0.17
467.044	0.17
467.499	0.17
467.953	0.17
468.407	0.17
468.861	0.17
469.315	0.17
469.768	0.17
470.222	0.17
470.676	0.17
471.13	0.17
471.584	0.17
472.038	0.17
472.491	0.17
472.945	0.17
473.399	0.17
473.852	0.17
474.306	0.17
474.76	0.17
475.213	0.17
475.667	0.17
476.12	0.17
476.574	0.17
477.027	0.18
477.481	0.18
477.934	0.18
478.388	0.18
478.841	0.18
479.294	0.18
479.748	0.18
480.201	0.18
480.654	0.18
481.107	0.18
481.561	0.18
482.014	0.18
482.467	0.18
482.92	0.18
483.373	0.18
483.826	0.18
484.279	0.18
484.732	0.18
485.185	0.18
485.638	0.18
486.091	0.18
486.544	0.18
486.997	0.18
487.449	0.19
487.902	0.19
488.355	0.19
488.808	0.19
489.26	0.19
489.713	0.19
490.166	0.19
490.618	0.19
491.071	0.19
491.523	0.19
491.976	0.19
492.429	0.19
492.881	0.19
493.333	0.2
493.786	0.2
494.238	0.2
494.691	0.2
495.143	0.2
495.595	0.2
496.048	0.2
496.5	0.2
496.952	0.2
497.404	0.2
497.856	0.21
498.309	0.21
498.761	0.21
499.213	0.21
499.665	0.21
500.117	0.21
500.569	0.21
501.021	0.21
501.473	0.22
501.925	0.22
502.377	0.22
502.828	0.22
503.28	0.22
503.732	0.22
504.184	0.22
504.636	0.22
505.087	0.23
505.539	0.23
505.991	0.23
506.442	0.23
506.894	0.23
507.345	0.23
507.797	0.23
508.249	0.23
508.7	0.24
509.151	0.24
509.603	0.24
510.054	0.24
510.506	0.24
510.957	0.24
511.408	0.24
511.86	0.24
512.311	0.24
512.762	0.24
513.213	0.25
513.665	0.25
514.116	0.25
514.567	0.25
515.018	0.25
515.469	0.25
515.92	0.25
516.371	0.25
516.822	0.25
517.273	0.25
517.724	0.25
518.175	0.25
518.626	0.26
519.076	0.26
519.527	0.26
519.978	0.26
520.429	0.26
520.88	0.26
521.33	0.26
521.781	0.26
522.232	0.26
522.682	0.26
523.133	0.26
523.583	0.26
524.034	0.26
524.484	0.26
524.935	0.26
525.385	0.26
525.836	0.26
526.286	0.26
526.736	0.26
527.187	0.26
527.637	0.26
528.087	0.27
528.538	0.27
528.988	0.27
529.438	0.27
529.888	0.27
530.338	0.27
530.788	0.27
531.238	0.27
531.688	0.27
532.139	0.27
532.589	0.27
533.038	0.27
533.488	0.27
533.938	0.26
534.388	0.26
534.838	0.26
535.288	0.26
535.738	0.26
536.187	0.26
536.637	0.26
537.087	0.26
537.537	0.26
537.986	0.26
538.436	0.26
538.885	0.26
539.335	0.26
539.785	0.26
540.234	0.26
540.684	0.26
541.133	0.26
541.582	0.26
542.032	0.26
542.481	0.26
542.931	0.26
543.38	0.26
543.829	0.26
544.278	0.26
544.728	0.26
545.177	0.26
545.626	0.26
546.075	0.25
546.524	0.25
546.973	0.25
547.422	0.25
547.871	0.25
548.32	0.25
548.769	0.25
549.218	0.25
549.667	0.25
550.116	0.25
550.565	0.25
551.014	0.25
551.463	0.25
551.911	0.25
552.36	0.25
552.809	0.25
553.258	0.24
553.706	0.24
554.155	0.24
554.603	0.24
555.052	0.24
555.501	0.24
555.949	0.24
556.398	0.24
556.846	0.24
557.294	0.24
557.743	0.24
558.191	0.24
558.64	0.24
559.088	0.24
559.536	0.24
559.985	0.24
560.433	0.24
560.881	0.24
561.329	0.24
561.777	0.23
562.225	0.23
562.674	0.23
563.122	0.23
563.57	0.23
564.018	0.23
564.466	0.23
564.914	0.23
565.362	0.23
565.809	0.23
566.257	0.23
566.705	0.23
567.153	0.23
567.601	0.23
568.048	0.23
568.496	0.23
568.944	0.23
569.392	0.22
569.839	0.22
570.287	0.22
570.734	0.22
571.182	0.22
571.63	0.22
572.077	0.22
572.525	0.22
572.972	0.22
573.419	0.22
573.867	0.22
574.314	0.22
574.761	0.22
575.209	0.22
575.656	0.22
576.103	0.22
576.551	0.21
576.998	0.21
577.445	0.21
577.892	0.21
578.339	0.21
578.786	0.21
579.233	0.21
579.68	0.21
580.127	0.21
580.574	0.21
581.021	0.21
581.468	0.21
581.915	0.21
582.362	0.21
582.809	0.21
583.255	0.21
583.702	0.2
584.149	0.2
584.596	0.2
585.042	0.2
585.489	0.2
585.936	0.2
586.382	0.2
586.829	0.2
587.275	0.2
587.722	0.2
588.168	0.2
588.615	0.19
589.061	0.19
589.508	0.19
589.954	0.19
590.4	0.19
590.847	0.19
591.293	0.19
591.739	0.19
592.185	0.19
592.632	0.19
593.078	0.19
593.524	0.19
593.97	0.19
594.416	0.19
594.862	0.19
595.308	0.19
595.754	0.18
596.2	0.18
596.646	0.18
597.092	0.18
597.538	0.18
597.984	0.18
598.43	0.18
598.876	0.18
599.321	0.18
599.767	0.18
600.213	0.18
600.659	0.18
601.104	0.18
601.55	0.18
601.995	0.18
602.441	0.18
602.887	0.17
603.332	0.17
603.778	0.17
604.223	0.17
604.668	0.17
605.114	0.17
605.559	0.17
606.005	0.17
606.45	0.17
606.895	0.17
607.341	0.17
607.786	0.17
608.231	0.17
608.676	0.17
609.121	0.17
609.566	0.17
610.012	0.17
610.457	0.17
610.902	0.17
611.347	0.17
611.792	0.17
612.237	0.17
612.682	0.17
613.127	0.16
613.571	0.16
614.016	0.16
614.461	0.16
614.906	0.16
615.351	0.16
615.795	0.16
616.24	0.16
616.685	0.16
617.129	0.16
617.574	0.16
618.019	0.16
618.463	0.16
618.908	0.16
619.352	0.16
619.797	0.16
620.241	0.16
620.686	0.16
621.13	0.16
621.574	0.15
622.019	0.15
622.463	0.15
622.907	0.15
623.352	0.15
623.796	0.15
624.24	0.15
624.684	0.15
625.128	0.15
625.572	0.15
626.016	0.15
626.461	0.15
626.905	0.15
627.349	0.15
627.793	0.15
628.236	0.15
628.68	0.15
629.124	0.15
629.568	0.15
630.012	0.15
630.456	0.15
630.9	0.15
631.343	0.15
631.787	0.15
632.231	0.15
632.674	0.15
633.118	0.15
633.562	0.15
634.005	0.16
634.449	0.16
634.892	0.16
635.336	0.16
635.779	0.16
636.223	0.16
636.666	0.16
637.109	0.16
637.553	0.16
637.996	0.16
638.439	0.16
638.883	0.16
639.326	0.16
639.769	0.16
640.212	0.17
640.655	0.17
641.099	0.17
641.542	0.17
641.985	0.17
642.428	0.17
642.871	0.17
643.314	0.17
643.757	0.18
644.2	0.18
644.643	0.18
645.085	0.18
645.528	0.18
645.971	0.18
646.414	0.18
646.857	0.18
647.299	0.18
647.742	0.19
648.185	0.19
648.627	0.19
649.07	0.19
649.513	0.19
649.955	0.2
650.398	0.2
650.84	0.2
651.283	0.2
651.725	0.2
652.168	0.21
652.61	0.21
653.052	0.21
653.495	0.22
653.937	0.17
654.379	0.13
654.821	0.14
655.264	0.14
655.706	0.14
656.148	0.14
656.59	0.14
657.032	0.15
657.474	0.15
657.916	0.15
658.358	0.14
658.8	0.18
659.242	0.24
659.684	0.24
660.126	0.24
660.568	0.25
661.01	0.25
661.452	0.25
661.894	0.26
662.335	0.26
662.777	0.26
663.219	0.26
663.661	0.27
664.102	0.27
664.544	0.27
664.985	0.27
665.427	0.28
665.869	0.28
666.31	0.28
666.752	0.28
667.193	0.28
667.634	0.29
668.076	0.29
668.517	0.29
668.959	0.29
669.4	0.29
669.841	0.29
670.282	0.3
670.724	0.3
671.165	0.3
671.606	0.3
672.047	0.3
672.488	0.3
672.929	0.31
673.37	0.31
673.811	0.31
674.252	0.31
674.693	0.31
675.134	0.31
675.575	0.31
676.016	0.32
676.457	0.32
676.898	0.32
677.339	0.32
677.78	0.32
678.22	0.32
678.661	0.32
679.102	0.32
679.542	0.32
679.983	0.33
680.424	0.33
680.864	0.33
681.305	0.33
681.745	0.33
682.186	0.33
682.626	0.33
683.067	0.33
683.507	0.33
683.948	0.33
684.388	0.33
684.828	0.34
685.269	0.34
685.709	0.34
686.149	0.34
686.589	0.34
687.029	0.34
687.47	0.34
687.91	0.34
688.35	0.34
688.79	0.34
689.23	0.34
689.67	0.34
690.11	0.34
690.55	0.34
690.99	0.34
691.43	0.34
691.87	0.34
692.31	0.34
692.749	0.34
693.189	0.34
693.629	0.34
694.069	0.34
694.508	0.33
694.948	0.33
695.388	0.33
695.827	0.33
696.267	0.33
696.706	0.33
697.146	0.33
697.586	0.33
698.025	0.33
698.464	0.33
698.904	0.32
699.343	0.32
699.783	0.32
700.222	0.32
700.661	0.32
701.101	0.32
701.54	0.32
701.979	0.32
702.418	0.32
702.857	0.32
703.297	0.31
703.736	0.31
704.175	0.31
704.614	0.31
705.053	0.31
705.492	0.31
705.931	0.31
706.37	0.31
706.809	0.3
707.248	0.3
707.687	0.3
708.125	0.3
708.564	0.3
709.003	0.3
709.442	0.3
709.88	0.3
710.319	0.3
710.758	0.29
711.196	0.29
711.635	0.29
712.074	0.29
712.512	0.29
712.951	0.29
713.389	0.28
713.828	0.28
714.266	0.28
714.705	0.28
715.143	0.28
715.581	0.28
716.02	0.28
716.458	0.27
716.896	0.27
717.334	0.27
717.773	0.27
718.211	0.27
718.649	0.27
719.087	0.27
719.525	0.27
719.963	0.26
720.401	0.26
720.839	0.26
721.277	0.26
721.715	0.26
722.153	0.26
722.591	0.25
723.029	0.25
723.467	0.25
723.905	0.25
724.342	0.25
724.78	0.25
725.218	0.25
725.656	0.25
726.093	0.24
726.531	0.24
726.969	0.24
727.406	0.24
727.844	0.24
728.281	0.24
728.719	0.24
729.156	0.24
729.594	0.23
730.031	0.23
730.469	0.23
730.906	0.23
731.343	0.23
731.781	0.23
732.218	0.23
732.655	0.23
733.092	0.23
733.53	0.22
733.967	0.22
734.404	0.22
734.841	0.22
735.278	0.22
735.715	0.22
736.152	0.22
736.589	0.21
737.026	0.21
737.463	0.21
737.9	0.21
738.337	0.21
738.774	0.21
739.211	0.21
739.647	0.21
740.084	0.2
740.521	0.2
740.958	0.2
741.394	0.2
741.831	0.2
742.268	0.2
742.704	0.2
743.141	0.2
743.577	0.2
744.014	0.19
744.45	0.19
744.887	0.19
745.323	0.19
745.76	0.19
746.196	0.18
746.632	0.18
747.069	0.18
747.505	0.18
747.941	0.18
748.378	0.18
748.814	0.18
749.25	0.18
749.686	0.18
750.122	0.18
750.558	0.17
750.994	0.17
751.43	0.17
751.866	0.17
752.302	0.17
752.738	0.17
753.174	0.17
753.61	0.16
754.046	0.16
754.482	0.16
754.918	0.16
755.354	0.16
755.789	0.16
756.225	0.16
756.661	0.15
757.096	0.15
757.532	0.15
757.968	0.15
758.403	0.15
758.839	0.15
759.274	0.15
759.71	0.15
760.145	0.15
760.581	0.14
761.016	0.14
761.452	0.14
761.887	0.14
762.322	0.14
762.758	0.14
763.193	0.14
763.628	0.13
764.063	0.13
764.499	0.13
764.934	0.13
765.369	0.13
765.804	0.12
766.239	0.12
766.674	0.12
767.109	0.12
767.544	0.12
767.979	0.11
768.414	0.11
768.849	0.11
769.284	0.11
769.719	0.11
770.154	0.11
770.588	0.1
771.023	0.1
771.458	0.1
771.893	0.09
772.327	0.09
772.762	0.09
773.197	0.08
773.631	0.08
774.066	0.07
774.5	0.07
774.935	0.07
775.369	0.06
775.804	0.06
776.238	0.05
776.673	0.05
777.107	0.04
777.541	0.04
777.976	0.04
778.41	0.03
778.844	0.03
779.279	0.02
779.713	0.02
780.147	0.02
780.581	0.01
781.015	0.01
781.449	0
781.883	-0
782.317	-0.01
782.751	-0.02
783.185	-0.02
783.619	-0.03
784.053	-0.04
784.487	-0.04
784.921	-0.05
785.355	-0.06
785.789	-0.06
786.223	-0.07
786.656	-0.07
787.09	-0.08
787.524	-0.08
787.957	-0.09
788.391	-0.1
788.825	-0.11
789.258	-0.11
789.692	-0.12
790.125	-0.12
790.559	-0.12
790.992	-0.13
791.426	-0.13
791.859	-0.13
792.293	-0.12
792.726	-0.11
793.159	-0.1
793.593	-0.1
794.026	-0.1
794.459	-0.11
794.892	-0.11
795.326	-0.11
795.759	-0.11
796.192	-0.11
796.625	-0.12
797.058	-0.13
797.491	-0.14
797.924	-0.15
798.357	-0.15
798.79	-0.15
799.223	-0.15
799.656	-0.15
800.089	-0.15
800.522	-0.15
800.955	-0.16
801.387	-0.15
801.82	-0.16
802.253	-0.16
802.686	-0.16
803.118	-0.16
803.551	-0.16
803.984	-0.15
804.416	-0.15
804.849	-0.14
805.281	-0.14
805.714	-0.14
806.146	-0.14
806.579	-0.13
807.011	-0.13
807.444	-0.13
807.876	-0.13
808.308	-0.13
808.741	-0.14
809.173	-0.14
809.605	-0.15
810.037	-0.15
810.47	-0.15
810.902	-0.16
811.334	-0.16
811.766	-0.16
812.198	-0.15
812.63	-0.15
813.062	-0.16
813.494	-0.16
813.926	-0.16
814.358	-0.15
814.79	-0.15
815.222	-0.14
815.654	-0.13
816.086	-0.13
816.518	-0.12
816.949	-0.12
817.381	-0.11
817.813	-0.1
818.245	-0.09
818.676	-0.07
819.108	-0.06
819.54	-0.05
819.971	-0.05
820.403	-0.04
820.834	-0.03
821.266	-0.02
821.697	-0.02
822.129	-0.01
822.56	-0.01
822.991	-0
823.423	0
823.854	0.01
824.286	0.01
824.717	0.02
825.148	0.02
825.579	0.02
826.01	0.03
826.442	0.03
826.873	0.03
827.304	0.04
827.735	0.04
828.166	0.04
828.597	0.04
829.028	0.04
829.459	0.04
829.89	0.04
830.321	0.05
830.752	0.05
831.183	0.05
831.613	0.05
832.044	0.05
832.475	0.05
832.906	0.05
833.336	0.06
833.767	0.06
834.198	0.06
834.628	0.06
835.059	0.06
835.49	0.06
835.92	0.06
836.351	0.06
836.781	0.06
837.212	0.06
837.642	0.06
838.072	0.06
838.503	0.06
838.933	0.06
839.364	0.06
839.794	0.06
840.224	0.06
840.654	0.06
841.085	0.06
841.515	0.06
841.945	0.06
842.375	0.06
842.805	0.06
843.235	0.06
843.665	0.06
844.095	0.06
844.525	0.06
844.955	0.06
845.385	0.06
845.815	0.06
846.245	0.06
846.675	0.06
847.105	0.06
847.534	0.06
847.964	0.06
848.394	0.06
848.824	0.06
849.253	0.06
849.683	0.06
850.112	0.06
850.542	0.06
850.972	0.06
851.401	0.06
851.831	0.06
852.26	0.06
852.69	0.06
853.119	0.06
853.548	0.06
853.978	0.06
854.407	0.06
854.836	0.06
855.266	0.06
855.695	0.06
856.124	0.06
856.553	0.06
856.983	0.06
857.412	0.06
857.841	0.06
858.27	0.06
858.699	0.06
859.128	0.06
859.557	0.06
859.986	0.06
860.415	0.06
860.844	0.06
861.273	0.06
861.702	0.06
862.13	0.06
862.559	0.06
862.988	0.06
863.417	0.06
863.845	0.06
864.274	0.06
864.703	0.06
865.131	0.06
865.56	0.06
865.989	0.06
866.417	0.06
866.846	0.06
867.274	0.06
867.703	0.06
868.131	0.06
868.559	0.06
868.988	0.06
869.416	0.06
869.844	0.06
870.273	0.06
870.701	0.06
871.129	0.06
871.557	0.06
871.986	0.05
872.414	0.05
872.842	0.05
873.27	0.05
873.698	0.05
874.126	0.05
874.554	0.05
874.982	0.05
875.41	0.05
875.838	0.05
876.266	0.05
876.694	0.05
877.122	0.05
877.549	0.05
877.977	0.05
878.405	0.05
878.833	0.05
879.26	0.05
879.688	0.05
880.116	0.05
880.543	0.05
880.971	0.05
881.399	0.04
881.826	0.04
882.254	0.04
882.681	0.04
883.109	0.04
883.536	0.04
883.963	0.04
884.391	0.04
884.818	0.04
885.245	0.04
885.673	0.04
886.1	0.04
886.527	0.04
886.954	0.04
887.381	0.04
887.809	0.04
888.236	0.04
888.663	0.04
889.09	0.04
889.517	0.04
889.944	0.04
890.371	0.04
890.798	0.04
891.225	0.04
891.652	0.04
892.078	0.04
892.505	0.04
892.932	0.04
893.359	0.04
893.786	0.04
894.212	0.04
894.639	0.04
895.066	0.04
895.492	0.04
895.919	0.04
896.346	0.04
896.772	0.04
897.199	0.04
897.625	0.04
898.052	0.04
898.478	0.03
898.904	0.03
899.331	0.03
899.757	0.03
900.183	0.03
900.61	0.03
901.036	0.03
901.462	0.02
901.888	0.02
902.315	0.02
902.741	0.03
903.167	0.03
903.593	0.03
904.019	0.03
904.445	0.03
904.871	0.03
905.297	0.03
905.723	0.03
906.149	0.04
906.575	0.04
907.001	0.04
907.427	0.04
907.852	0.04
908.278	0.04
908.704	0.04
909.13	0.04
909.555	0.04
909.981	0.04
910.407	0.04
910.832	0.04
911.258	0.04
911.684	0.04
912.109	0.04
912.535	0.04
912.96	0.04
913.386	0.04
913.811	0.04
914.236	0.04
914.662	0.04
915.087	0.04
915.512	0.04
915.938	0.04
916.363	0.04
916.788	0.04
917.213	0.04
917.639	0.04
918.064	0.04
918.489	0.04
918.914	0.04
919.339	0.04
919.764	0.04
920.189	0.04
920.614	0.04
921.039	0.04
921.464	0.04
921.889	0.04
922.314	0.04
922.738	0.04
923.163	0.04
923.588	0.04
924.013	0.04
924.437	0.04
924.862	0.04
925.287	0.04
925.711	0.04
926.136	0.04
926.561	0.04
926.985	0.04
927.41	0.04
927.834	0.04
928.259	0.04
928.683	0.04
929.108	0.04
929.532	0.04
929.956	0.03
930.381	0.03
930.805	0.03
931.229	0.03
931.653	0.03
932.078	0.03
932.502	0.03
932.926	0.03
933.35	0.03
933.774	0.03
934.198	0.03
934.622	0.03
935.046	0.03
935.47	0.03
935.894	0.03
936.318	0.03
936.742	0.03
937.166	0.03
937.59	0.03
938.014	0.03
938.437	0.03
938.861	0.03
939.285	0.03
939.709	0.03
940.132	0.03
940.556	0.03
940.98	0.02
941.403	0.02
941.827	0.02
942.25	0.02
942.674	0.02
943.097	0.02
943.521	0.03
943.944	0.03
944.368	0.03
944.791	0.03
945.214	0.03
945.638	0.03
946.061	0.03
946.484	0.03
946.907	0.03
947.331	0.03
947.754	0.03
948.177	0.03
948.6	0.03
949.023	0.03
949.446	0.03
949.869	0.03
950.292	0.03
950.715	0.03
951.138	0.03
951.561	0.03
951.984	0.03
952.407	0.03
952.83	0.03
953.252	0.03
953.675	0.02
954.098	0.02
954.521	0.02
954.943	0.02
955.366	0.02
955.789	0.02
956.211	0.02
956.634	0.02
957.056	0.02
957.479	0.02
957.902	0.02
958.324	0.02
958.746	0.02
959.169	0.02
959.591	0.02
960.014	0.02
960.436	0.02
960.858	0.02
961.281	0.02
961.703	0.02
962.125	0.02
962.547	0.02
962.969	0.03
963.391	0.03
963.814	0.03
964.236	0.03
964.658	0.03
965.08	0.03
965.502	0.03
965.924	0.03
966.346	0.02
966.768	0.02
967.189	0.02
967.611	0.02
968.033	0.02
968.455	0.02
968.877	0.02
969.298	0.02
969.72	0.02
970.142	0.02
970.563	0.02
970.985	0.02
971.407	0.02
971.828	0.02
972.25	0.02
972.671	0.02
973.093	0.02
973.514	0.02
973.936	0.02
974.357	0.02
974.778	0.02
975.2	0.02
975.621	0.02
976.042	0.02
976.464	0.02
976.885	0.02
977.306	0.02
977.727	0.02
978.148	0.02
978.57	0.02
978.991	0.02
979.412	0.02
979.833	0.02
980.254	0.02
980.675	0.02
981.096	0.02
981.517	0.02
981.937	0.02
982.358	0.02
982.779	0.02
983.2	0.02
983.621	0.02
984.042	0.02
984.462	0.02
984.883	0.02
985.304	0.02
985.724	0.02
986.145	0.02
986.565	0.02
986.986	0.02
987.407	0.02
987.827	0.02
988.248	0.01
988.668	0.01
989.088	0.01
989.509	0.01
989.929	0.02
990.35	0.02
990.77	0.02
991.19	0.02
991.61	0.02
992.031	0.02
992.451	0.02
992.871	0.02
993.291	0.02
993.711	0.02
994.131	0.02
994.551	0.02
994.971	0.02
995.391	0.02
995.811	0.02
996.231	0.02
996.651	0.02
997.071	0.02
997.491	0.02
997.911	0.02
998.331	0.02
998.75	0.02
999.17	0.02
999.59	0.02
1000.009	0.02
1000.429	0.02
1000.849	0.02
1001.268	0.02
1001.688	0.02
1002.107	0.02
1002.527	0.02
1002.946	0.02
1003.366	0.02
1003.785	0.02
1004.205	0.02
1004.624	0.02
1005.044	0.02
1005.463	0.02
1005.882	0.02
1006.301	0.02
1006.721	0.02
1007.14	0.02
1007.559	0.02
1007.978	0.02
1008.397	0.01
1008.816	0.01
1009.235	0.01
1009.655	0.01
1010.074	0.01
1010.492	0.01
1010.911	0.01
1011.33	0.01
1011.749	0.01
1012.168	0.01
1012.587	0.01
1013.006	0.01
1013.425	0.01
1013.843	0.01
1014.262	0.02
1014.681	0.02
1015.099	0.02
1015.518	0.02
1015.937	0.02
1016.355	0.02
1016.774	0.02
1017.192	0.02
1017.611	0.02
1018.029	0.02
1018.448	0.02
1018.866	0.02
1019.285	0.02
1019.703	0.02
1020.121	0.01
1020.54	0.02
1020.958	0.02
1021.376	0.02
1021.794	0.02
1022.213	0.02
1022.631	0.02
1023.049	0.02
1023.467	0.02
1023.885	0.02
1024.303	0.01
1024.721	0.01
1025.139	0.01
1025.557	0.01
1025.975	0.01
1026.393	0.02
1026.811	0.02
1027.229	0.02
1027.647	0.02
1028.065	0.02
1028.482	0.02
1028.9	0.02
1029.318	0.02
1029.735	0.02
1030.153	0.02
1030.571	0.02
1030.988	0.02
1031.406	0.02
1031.823	0.02
1032.241	0.02
1032.659	0.02
1033.076	0.02
1033.493	0.02
1033.911	0.02
1034.328	0.02
1034.746	0.02
1035.163	0.02
1035.58	0.02
1035.997	0.01
1036.415	0.01
1036.832	0.01
1037.249	0.01
1037.666	0.01
1038.083	0.01
1038.501	0.01
1038.918	0.01
1039.335	0.01
1039.752	0.01
1040.169	0.01
1040.586	0.01
1041.003	0.01
1041.419	0.01
1041.836	0.01
1042.253	0.01
1042.67	0.01
1043.087	0.01
1043.504	0.01
1043.92	0.01
1044.337	0.01
1044.754	0.01
1045.17	0.01
1045.587	0.01
1046.004	0.01
1046.42	0.01
1046.837	0.01
1047.253	0.01
1047.67	0.01
1048.086	0.01
1048.503	0.01
1048.919	0.01
1049.335	0.01
1049.752	0.01
1050.168	0.01
1050.584	0.01
1051.001	0.01
1051.417	0.01
1051.833	0.01
1052.249	0.01
1052.665	0.01
1053.081	0.01
1053.497	0.01
1053.914	0.01
1054.33	0.01
1054.746	0.01
1055.162	0.01
1055.578	0.01
1055.993	0.01
1056.409	0.01
1056.825	0.01
1057.241	0.01
1057.657	0.01
1058.073	0.01
1058.488	0.01
1058.904	0.01
1059.32	0.01
1059.736	0.01
1060.151	0.01
1060.567	0
1060.982	0
1061.398	0
1061.813	0
1062.229	0
1062.644	0
1063.06	0
1063.475	0
1063.891	0
1064.306	0.01
1064.721	0.01
1065.137	0.01
1065.552	0.01
1065.967	0.01
1066.382	0.01
1066.798	0
1067.213	0.01
1067.628	0.01
1068.043	0.01
1068.458	0.01
1068.873	0.01
1069.288	0.01
1069.703	0.01
1070.118	0.01
1070.533	0.01
1070.948	0.01
1071.363	0.01
1071.778	0
1072.193	0
1072.607	0
1073.022	0
1073.437	0
1073.852	0
1074.266	0
1074.681	0
1075.096	0
1075.51	0
1075.925	-0
1076.339	-0
1076.754	-0
1077.168	-0
1077.583	-0
1077.997	-0
1078.412	-0
1078.826	-0
1079.24	-0
1079.655	-0
1080.069	-0
1080.483	-0
1080.897	-0
1081.312	-0
1081.726	-0
1082.14	-0
1082.554	-0
1082.968	-0
1083.382	-0.01
1083.796	-0.01
1084.21	-0.01
1084.624	-0.01
1085.038	-0.01
1085.452	-0.01
1085.866	-0.01
1086.28	-0.01
1086.694	-0.01
1087.108	-0.01
1087.521	-0.01
1087.935	-0.01
1088.349	-0.01
1088.763	-0.01
1089.176	-0.01
1089.59	-0.01
1090.004	-0.01
1090.417	-0.01
1090.831	-0.01
1091.244	-0.01
1091.658	-0.01
1092.071	-0.01
1092.485	-0.01
1092.898	-0.01
1093.312	-0.01
1093.725	-0.01
1094.138	-0.01
1094.552	-0.01
1094.965	-0.02
1095.378	-0.02
1095.791	-0.02
1096.205	-0.02
1096.618	-0.02
1097.031	-0.02
1097.444	-0.02
1097.857	-0.02
1098.27	-0.02
1098.683	-0.02
1099.096	-0.02
1099.509	-0.02
1099.922	-0.02
1100.335	-0.03
1100.748	-0.03
1101.161	-0.03
1101.574	-0.03
1101.986	-0.03
1102.399	-0.03
1102.812	-0.03
1103.225	-0.03
1103.637	-0.03
1104.05	-0.03
1104.463	-0.03
1104.875	-0.04
1105.288	-0.04
1105.7	-0.04
1106.113	-0.04
1106.525	-0.04
1106.938	-0.04
1107.35	-0.05
1107.763	-0.05
1108.175	-0.05
1108.588	-0.05
1109	-0.05
1109.412	-0.05
1109.824	-0.05
1110.237	-0.05
1110.649	-0.05
1111.061	-0.05
