Data from 2024-02-06-100ns-20nr-25nacl-100h2o-7bp2-1_8a808-40to10hyt-0_5cpm_Absorbance__121__00510.txt Node

Date: Tue Feb 06 16:24:49 CET 2024
User: Laser008
Spectrometer: MAYP115816
Trigger mode: 0
Integration Time (sec): 2.000000E-1
Scans to average: 10
Electric dark correction enabled: true
Nonlinearity correction enabled: true
Boxcar width: 5
XAxis mode: Wavelengths
Number of Pixels in Spectrum: 2068
>>>>>Begin Spectral Data<<<<<
198.914	-0.29
199.384	-0.24
199.855	-0.19
200.325	-0.16
200.796	-0.13
201.266	-0.12
201.737	-0.11
202.207	-0.1
202.677	-0.1
203.147	-0.09
203.618	-0.08
204.088	-0.07
204.558	-0.06
205.028	-0.06
205.498	-0.06
205.968	-0.06
206.439	-0.06
206.909	-0.06
207.379	-0.06
207.849	-0.06
208.319	-0.06
208.789	-0.05
209.258	-0.06
209.728	-0.06
210.198	-0.05
210.668	-0.06
211.138	-0.06
211.608	-0.06
212.077	-0.06
212.547	-0.06
213.017	-0.06
213.486	-0.06
213.956	-0.06
214.426	-0.06
214.895	-0.06
215.365	-0.06
215.834	-0.06
216.304	-0.06
216.773	-0.05
217.243	-0.05
217.712	-0.05
218.181	-0.05
218.651	-0.04
219.12	-0.04
219.589	-0.03
220.058	-0.04
220.528	-0.03
220.997	-0.03
221.466	-0.03
221.935	-0.03
222.404	-0.02
222.873	-0.02
223.342	-0.02
223.812	-0.01
224.281	-0.01
224.749	-0.01
225.218	-0
225.687	0
226.156	0.01
226.625	0.02
227.094	0.04
227.563	0.05
228.031	0.06
228.5	0.07
228.969	0.09
229.438	0.11
229.906	0.13
230.375	0.15
230.844	0.17
231.312	0.19
231.781	0.21
232.249	0.24
232.718	0.26
233.186	0.29
233.655	0.31
234.123	0.33
234.591	0.35
235.06	0.37
235.528	0.39
235.996	0.4
236.465	0.42
236.933	0.43
237.401	0.44
237.869	0.45
238.337	0.46
238.805	0.47
239.274	0.47
239.742	0.48
240.21	0.48
240.678	0.49
241.146	0.49
241.614	0.5
242.081	0.5
242.549	0.51
243.017	0.51
243.485	0.51
243.953	0.51
244.421	0.52
244.888	0.52
245.356	0.52
245.824	0.52
246.291	0.52
246.759	0.53
247.227	0.53
247.694	0.53
248.162	0.53
248.629	0.53
249.097	0.54
249.564	0.54
250.032	0.54
250.499	0.54
250.967	0.54
251.434	0.55
251.901	0.55
252.369	0.55
252.836	0.55
253.303	0.55
253.77	0.55
254.237	0.55
254.705	0.55
255.172	0.56
255.639	0.56
256.106	0.56
256.573	0.56
257.04	0.56
257.507	0.56
257.974	0.56
258.441	0.56
258.908	0.56
259.375	0.56
259.841	0.56
260.308	0.56
260.775	0.56
261.242	0.56
261.709	0.56
262.175	0.55
262.642	0.55
263.109	0.55
263.575	0.55
264.042	0.55
264.508	0.55
264.975	0.55
265.441	0.55
265.908	0.54
266.374	0.54
266.841	0.54
267.307	0.54
267.773	0.54
268.24	0.53
268.706	0.53
269.172	0.53
269.639	0.53
270.105	0.52
270.571	0.52
271.037	0.52
271.503	0.51
271.969	0.51
272.435	0.51
272.902	0.51
273.368	0.5
273.834	0.5
274.3	0.5
274.765	0.49
275.231	0.49
275.697	0.49
276.163	0.48
276.629	0.48
277.095	0.48
277.56	0.47
278.026	0.47
278.492	0.47
278.958	0.46
279.423	0.46
279.889	0.45
280.354	0.45
280.82	0.45
281.286	0.44
281.751	0.44
282.217	0.44
282.682	0.43
283.147	0.43
283.613	0.43
284.078	0.42
284.544	0.42
285.009	0.42
285.474	0.42
285.939	0.41
286.405	0.41
286.87	0.41
287.335	0.4
287.8	0.4
288.265	0.4
288.73	0.4
289.195	0.39
289.66	0.39
290.125	0.39
290.59	0.39
291.055	0.38
291.52	0.38
291.985	0.38
292.45	0.38
292.915	0.38
293.38	0.37
293.844	0.37
294.309	0.37
294.774	0.37
295.239	0.37
295.703	0.36
296.168	0.36
296.632	0.36
297.097	0.36
297.562	0.36
298.026	0.36
298.491	0.35
298.955	0.35
299.419	0.35
299.884	0.35
300.348	0.35
300.813	0.35
301.277	0.35
301.741	0.35
302.205	0.34
302.67	0.34
303.134	0.34
303.598	0.34
304.062	0.34
304.526	0.34
304.99	0.34
305.454	0.34
305.919	0.33
306.383	0.33
306.847	0.33
307.31	0.33
307.774	0.33
308.238	0.33
308.702	0.33
309.166	0.33
309.63	0.33
310.094	0.32
310.557	0.32
311.021	0.32
311.485	0.32
311.948	0.32
312.412	0.32
312.876	0.32
313.339	0.32
313.803	0.32
314.266	0.31
314.73	0.31
315.193	0.31
315.657	0.31
316.12	0.31
316.584	0.31
317.047	0.31
317.51	0.31
317.973	0.31
318.437	0.31
318.9	0.31
319.363	0.3
319.826	0.3
320.29	0.3
320.753	0.3
321.216	0.3
321.679	0.3
322.142	0.3
322.605	0.3
323.068	0.3
323.531	0.3
323.994	0.3
324.457	0.29
324.92	0.29
325.382	0.29
325.845	0.29
326.308	0.29
326.771	0.29
327.233	0.29
327.696	0.29
328.159	0.29
328.622	0.29
329.084	0.29
329.547	0.29
330.009	0.29
330.472	0.28
330.934	0.28
331.397	0.28
331.859	0.28
332.322	0.28
332.784	0.28
333.246	0.28
333.709	0.28
334.171	0.28
334.633	0.28
335.096	0.28
335.558	0.28
336.02	0.28
336.482	0.27
336.944	0.27
337.406	0.27
337.868	0.27
338.331	0.27
338.793	0.27
339.255	0.27
339.717	0.27
340.178	0.27
340.64	0.27
341.102	0.27
341.564	0.27
342.026	0.27
342.488	0.27
342.949	0.27
343.411	0.27
343.873	0.27
344.335	0.27
344.796	0.26
345.258	0.26
345.719	0.26
346.181	0.26
346.643	0.26
347.104	0.26
347.566	0.26
348.027	0.26
348.488	0.26
348.95	0.26
349.411	0.26
349.873	0.26
350.334	0.26
350.795	0.26
351.256	0.26
351.718	0.26
352.179	0.26
352.64	0.26
353.101	0.26
353.562	0.26
354.023	0.26
354.484	0.26
354.945	0.26
355.406	0.26
355.867	0.26
356.328	0.26
356.789	0.26
357.25	0.26
357.711	0.26
358.172	0.26
358.633	0.26
359.093	0.26
359.554	0.26
360.015	0.26
360.476	0.25
360.936	0.25
361.397	0.25
361.858	0.25
362.318	0.25
362.779	0.25
363.239	0.25
363.7	0.25
364.16	0.25
364.621	0.25
365.081	0.25
365.541	0.25
366.002	0.25
366.462	0.25
366.922	0.25
367.383	0.25
367.843	0.25
368.303	0.25
368.763	0.25
369.223	0.25
369.684	0.25
370.144	0.25
370.604	0.25
371.064	0.25
371.524	0.25
371.984	0.25
372.444	0.25
372.904	0.25
373.363	0.25
373.823	0.25
374.283	0.25
374.743	0.25
375.203	0.25
375.663	0.25
376.122	0.25
376.582	0.25
377.042	0.24
377.501	0.24
377.961	0.24
378.42	0.24
378.88	0.24
379.34	0.24
379.799	0.24
380.259	0.24
380.718	0.24
381.177	0.24
381.637	0.24
382.096	0.24
382.555	0.24
383.015	0.24
383.474	0.24
383.933	0.24
384.393	0.24
384.852	0.24
385.311	0.24
385.77	0.24
386.229	0.24
386.688	0.24
387.147	0.24
387.606	0.24
388.065	0.24
388.524	0.24
388.983	0.24
389.442	0.24
389.901	0.24
390.36	0.23
390.819	0.23
391.277	0.23
391.736	0.23
392.195	0.23
392.654	0.23
393.112	0.23
393.571	0.23
394.03	0.23
394.488	0.23
394.947	0.23
395.405	0.23
395.864	0.23
396.322	0.23
396.781	0.23
397.239	0.23
397.698	0.23
398.156	0.23
398.614	0.23
399.073	0.23
399.531	0.23
399.989	0.23
400.447	0.23
400.905	0.23
401.364	0.23
401.822	0.23
402.28	0.22
402.738	0.22
403.196	0.22
403.654	0.22
404.112	0.22
404.57	0.22
405.028	0.22
405.486	0.22
405.944	0.22
406.402	0.22
406.859	0.22
407.317	0.22
407.775	0.22
408.233	0.22
408.691	0.22
409.148	0.22
409.606	0.22
410.064	0.22
410.521	0.22
410.979	0.22
411.436	0.22
411.894	0.22
412.351	0.22
412.809	0.22
413.266	0.22
413.724	0.22
414.181	0.22
414.638	0.22
415.096	0.22
415.553	0.22
416.01	0.22
416.467	0.22
416.925	0.22
417.382	0.21
417.839	0.21
418.296	0.21
418.753	0.21
419.21	0.21
419.667	0.21
420.124	0.21
420.581	0.21
421.038	0.21
421.495	0.21
421.952	0.21
422.409	0.21
422.866	0.21
423.322	0.21
423.779	0.21
424.236	0.21
424.693	0.21
425.149	0.21
425.606	0.21
426.063	0.21
426.519	0.21
426.976	0.21
427.433	0.21
427.889	0.21
428.346	0.21
428.802	0.21
429.258	0.21
429.715	0.21
430.171	0.21
430.628	0.21
431.084	0.21
431.54	0.21
431.997	0.21
432.453	0.21
432.909	0.21
433.365	0.21
433.821	0.21
434.277	0.21
434.734	0.21
435.19	0.21
435.646	0.21
436.102	0.21
436.558	0.21
437.014	0.21
437.47	0.21
437.925	0.21
438.381	0.2
438.837	0.21
439.293	0.2
439.749	0.2
440.205	0.2
440.66	0.2
441.116	0.2
441.572	0.2
442.027	0.2
442.483	0.2
442.939	0.2
443.394	0.2
443.85	0.2
444.305	0.2
444.761	0.2
445.216	0.2
445.672	0.2
446.127	0.2
446.582	0.2
447.038	0.2
447.493	0.2
447.948	0.2
448.403	0.2
448.859	0.2
449.314	0.2
449.769	0.2
450.224	0.2
450.679	0.2
451.134	0.2
451.589	0.2
452.044	0.2
452.499	0.2
452.954	0.2
453.409	0.2
453.864	0.2
454.319	0.2
454.774	0.2
455.229	0.2
455.684	0.2
456.138	0.2
456.593	0.2
457.048	0.2
457.503	0.2
457.957	0.2
458.412	0.2
458.866	0.2
459.321	0.2
459.776	0.2
460.23	0.2
460.685	0.2
461.139	0.2
461.593	0.2
462.048	0.2
462.502	0.2
462.957	0.2
463.411	0.21
463.865	0.21
464.319	0.21
464.774	0.21
465.228	0.21
465.682	0.21
466.136	0.21
466.59	0.21
467.044	0.21
467.499	0.21
467.953	0.21
468.407	0.21
468.861	0.21
469.315	0.21
469.768	0.21
470.222	0.21
470.676	0.21
471.13	0.21
471.584	0.21
472.038	0.21
472.491	0.21
472.945	0.21
473.399	0.21
473.852	0.21
474.306	0.21
474.76	0.21
475.213	0.22
475.667	0.22
476.12	0.22
476.574	0.22
477.027	0.22
477.481	0.22
477.934	0.22
478.388	0.22
478.841	0.22
479.294	0.22
479.748	0.22
480.201	0.22
480.654	0.22
481.107	0.23
481.561	0.23
482.014	0.23
482.467	0.23
482.92	0.23
483.373	0.23
483.826	0.23
484.279	0.23
484.732	0.23
485.185	0.23
485.638	0.24
486.091	0.24
486.544	0.24
486.997	0.24
487.449	0.24
487.902	0.24
488.355	0.24
488.808	0.24
489.26	0.25
489.713	0.25
490.166	0.25
490.618	0.25
491.071	0.25
491.523	0.25
491.976	0.25
492.429	0.26
492.881	0.26
493.333	0.26
493.786	0.26
494.238	0.26
494.691	0.27
495.143	0.27
495.595	0.27
496.048	0.27
496.5	0.27
496.952	0.28
497.404	0.28
497.856	0.28
498.309	0.28
498.761	0.28
499.213	0.28
499.665	0.29
500.117	0.29
500.569	0.29
501.021	0.29
501.473	0.3
501.925	0.3
502.377	0.3
502.828	0.3
503.28	0.3
503.732	0.31
504.184	0.31
504.636	0.31
505.087	0.31
505.539	0.32
505.991	0.32
506.442	0.32
506.894	0.32
507.345	0.32
507.797	0.33
508.249	0.33
508.7	0.33
509.151	0.33
509.603	0.33
510.054	0.33
510.506	0.34
510.957	0.34
511.408	0.34
511.86	0.34
512.311	0.34
512.762	0.34
513.213	0.34
513.665	0.35
514.116	0.35
514.567	0.35
515.018	0.35
515.469	0.35
515.92	0.35
516.371	0.35
516.822	0.36
517.273	0.36
517.724	0.36
518.175	0.36
518.626	0.36
519.076	0.36
519.527	0.36
519.978	0.36
520.429	0.36
520.88	0.36
521.33	0.36
521.781	0.36
522.232	0.36
522.682	0.36
523.133	0.36
523.583	0.36
524.034	0.36
524.484	0.36
524.935	0.36
525.385	0.36
525.836	0.36
526.286	0.36
526.736	0.36
527.187	0.36
527.637	0.36
528.087	0.36
528.538	0.36
528.988	0.36
529.438	0.36
529.888	0.35
530.338	0.35
530.788	0.35
531.238	0.35
531.688	0.35
532.139	0.35
532.589	0.35
533.038	0.34
533.488	0.34
533.938	0.34
534.388	0.34
534.838	0.34
535.288	0.33
535.738	0.33
536.187	0.33
536.637	0.33
537.087	0.33
537.537	0.32
537.986	0.32
538.436	0.32
538.885	0.32
539.335	0.32
539.785	0.31
540.234	0.31
540.684	0.31
541.133	0.31
541.582	0.3
542.032	0.3
542.481	0.3
542.931	0.29
543.38	0.29
543.829	0.29
544.278	0.29
544.728	0.28
545.177	0.28
545.626	0.28
546.075	0.27
546.524	0.27
546.973	0.27
547.422	0.26
547.871	0.26
548.32	0.26
548.769	0.26
549.218	0.25
549.667	0.25
550.116	0.25
550.565	0.24
551.014	0.24
551.463	0.24
551.911	0.23
552.36	0.23
552.809	0.23
553.258	0.22
553.706	0.22
554.155	0.22
554.603	0.22
555.052	0.21
555.501	0.21
555.949	0.21
556.398	0.21
556.846	0.2
557.294	0.2
557.743	0.2
558.191	0.19
558.64	0.19
559.088	0.19
559.536	0.19
559.985	0.18
560.433	0.18
560.881	0.18
561.329	0.18
561.777	0.17
562.225	0.17
562.674	0.17
563.122	0.17
563.57	0.16
564.018	0.16
564.466	0.16
564.914	0.15
565.362	0.15
565.809	0.15
566.257	0.15
566.705	0.15
567.153	0.14
567.601	0.14
568.048	0.14
568.496	0.14
568.944	0.13
569.392	0.13
569.839	0.13
570.287	0.13
570.734	0.13
571.182	0.12
571.63	0.12
572.077	0.12
572.525	0.12
572.972	0.12
573.419	0.12
573.867	0.11
574.314	0.11
574.761	0.11
575.209	0.11
575.656	0.11
576.103	0.11
576.551	0.11
576.998	0.1
577.445	0.1
577.892	0.1
578.339	0.1
578.786	0.1
579.233	0.1
579.68	0.1
580.127	0.09
580.574	0.09
581.021	0.09
581.468	0.09
581.915	0.09
582.362	0.09
582.809	0.09
583.255	0.09
583.702	0.08
584.149	0.08
584.596	0.08
585.042	0.08
585.489	0.08
585.936	0.08
586.382	0.08
586.829	0.08
587.275	0.07
587.722	0.07
588.168	0.07
588.615	0.07
589.061	0.07
589.508	0.07
589.954	0.07
590.4	0.07
590.847	0.07
591.293	0.07
591.739	0.07
592.185	0.07
592.632	0.07
593.078	0.07
593.524	0.07
593.97	0.07
594.416	0.06
594.862	0.06
595.308	0.06
595.754	0.06
596.2	0.06
596.646	0.06
597.092	0.06
597.538	0.06
597.984	0.06
598.43	0.06
598.876	0.06
599.321	0.06
599.767	0.06
600.213	0.06
600.659	0.06
601.104	0.06
601.55	0.06
601.995	0.06
602.441	0.06
602.887	0.06
603.332	0.06
603.778	0.06
604.223	0.06
604.668	0.06
605.114	0.06
605.559	0.06
606.005	0.06
606.45	0.06
606.895	0.06
607.341	0.06
607.786	0.06
608.231	0.06
608.676	0.06
609.121	0.06
609.566	0.06
610.012	0.06
610.457	0.06
610.902	0.06
611.347	0.06
611.792	0.06
612.237	0.06
612.682	0.06
613.127	0.06
613.571	0.06
614.016	0.06
614.461	0.06
614.906	0.06
615.351	0.06
615.795	0.06
616.24	0.06
616.685	0.06
617.129	0.06
617.574	0.06
618.019	0.06
618.463	0.06
618.908	0.06
619.352	0.06
619.797	0.07
620.241	0.07
620.686	0.07
621.13	0.07
621.574	0.07
622.019	0.07
622.463	0.07
622.907	0.07
623.352	0.07
623.796	0.07
624.24	0.07
624.684	0.07
625.128	0.07
625.572	0.07
626.016	0.07
626.461	0.07
626.905	0.08
627.349	0.08
627.793	0.08
628.236	0.08
628.68	0.08
629.124	0.08
629.568	0.08
630.012	0.08
630.456	0.08
630.9	0.08
631.343	0.08
631.787	0.09
632.231	0.09
632.674	0.09
633.118	0.09
633.562	0.09
634.005	0.09
634.449	0.1
634.892	0.1
635.336	0.1
635.779	0.1
636.223	0.1
636.666	0.11
637.109	0.11
637.553	0.11
637.996	0.11
638.439	0.11
638.883	0.12
639.326	0.12
639.769	0.12
640.212	0.12
640.655	0.12
641.099	0.13
641.542	0.13
641.985	0.13
642.428	0.13
642.871	0.13
643.314	0.14
643.757	0.14
644.2	0.14
644.643	0.14
645.085	0.15
645.528	0.15
645.971	0.15
646.414	0.15
646.857	0.16
647.299	0.16
647.742	0.16
648.185	0.17
648.627	0.17
649.07	0.17
649.513	0.17
649.955	0.18
650.398	0.18
650.84	0.18
651.283	0.19
651.725	0.19
652.168	0.19
652.61	0.2
653.052	0.2
653.495	0.2
653.937	0.16
654.379	0.13
654.821	0.13
655.264	0.14
655.706	0.14
656.148	0.14
656.59	0.14
657.032	0.14
657.474	0.15
657.916	0.15
658.358	0.14
658.8	0.18
659.242	0.24
659.684	0.25
660.126	0.25
660.568	0.25
661.01	0.26
661.452	0.26
661.894	0.27
662.335	0.27
662.777	0.27
663.219	0.28
663.661	0.28
664.102	0.28
664.544	0.29
664.985	0.29
665.427	0.3
665.869	0.3
666.31	0.3
666.752	0.3
667.193	0.31
667.634	0.31
668.076	0.31
668.517	0.32
668.959	0.32
669.4	0.32
669.841	0.33
670.282	0.33
670.724	0.33
671.165	0.34
671.606	0.34
672.047	0.34
672.488	0.34
672.929	0.35
673.37	0.35
673.811	0.35
674.252	0.35
674.693	0.35
675.134	0.35
675.575	0.36
676.016	0.36
676.457	0.36
676.898	0.36
677.339	0.36
677.78	0.37
678.22	0.37
678.661	0.37
679.102	0.37
679.542	0.37
679.983	0.37
680.424	0.37
680.864	0.38
681.305	0.38
681.745	0.38
682.186	0.38
682.626	0.38
683.067	0.38
683.507	0.38
683.948	0.38
684.388	0.38
684.828	0.38
685.269	0.38
685.709	0.38
686.149	0.38
686.589	0.38
687.029	0.38
687.47	0.38
687.91	0.38
688.35	0.38
688.79	0.38
689.23	0.38
689.67	0.38
690.11	0.38
690.55	0.38
690.99	0.38
691.43	0.37
691.87	0.37
692.31	0.37
692.749	0.37
693.189	0.37
693.629	0.37
694.069	0.37
694.508	0.36
694.948	0.36
695.388	0.36
695.827	0.36
696.267	0.36
696.706	0.35
697.146	0.35
697.586	0.35
698.025	0.35
698.464	0.35
698.904	0.34
699.343	0.34
699.783	0.34
700.222	0.34
700.661	0.34
701.101	0.33
701.54	0.33
701.979	0.33
702.418	0.33
702.857	0.32
703.297	0.32
703.736	0.32
704.175	0.32
704.614	0.31
705.053	0.31
705.492	0.31
705.931	0.3
706.37	0.3
706.809	0.3
707.248	0.3
707.687	0.29
708.125	0.29
708.564	0.29
709.003	0.29
709.442	0.28
709.88	0.28
710.319	0.28
710.758	0.27
711.196	0.27
711.635	0.27
712.074	0.26
712.512	0.26
712.951	0.26
713.389	0.26
713.828	0.25
714.266	0.25
714.705	0.25
715.143	0.24
715.581	0.24
716.02	0.24
716.458	0.24
716.896	0.23
717.334	0.23
717.773	0.23
718.211	0.22
718.649	0.22
719.087	0.22
719.525	0.22
719.963	0.21
720.401	0.21
720.839	0.21
721.277	0.21
721.715	0.2
722.153	0.2
722.591	0.2
723.029	0.2
723.467	0.19
723.905	0.19
724.342	0.19
724.78	0.19
725.218	0.18
725.656	0.18
726.093	0.18
726.531	0.18
726.969	0.18
727.406	0.17
727.844	0.17
728.281	0.17
728.719	0.17
729.156	0.16
729.594	0.16
730.031	0.16
730.469	0.16
730.906	0.16
731.343	0.15
731.781	0.15
732.218	0.15
732.655	0.15
733.092	0.14
733.53	0.14
733.967	0.14
734.404	0.14
734.841	0.14
735.278	0.13
735.715	0.13
736.152	0.13
736.589	0.13
737.026	0.13
737.463	0.12
737.9	0.12
738.337	0.12
738.774	0.12
739.211	0.12
739.647	0.11
740.084	0.11
740.521	0.11
740.958	0.11
741.394	0.11
741.831	0.1
742.268	0.1
742.704	0.1
743.141	0.1
743.577	0.1
744.014	0.1
744.45	0.09
744.887	0.09
745.323	0.09
745.76	0.09
746.196	0.09
746.632	0.08
747.069	0.08
747.505	0.08
747.941	0.08
748.378	0.08
748.814	0.07
749.25	0.07
749.686	0.07
750.122	0.07
750.558	0.07
750.994	0.07
751.43	0.07
751.866	0.06
752.302	0.06
752.738	0.06
753.174	0.06
753.61	0.06
754.046	0.05
754.482	0.05
754.918	0.05
755.354	0.05
755.789	0.05
756.225	0.05
756.661	0.05
757.096	0.05
757.532	0.05
757.968	0.05
758.403	0.05
758.839	0.04
759.274	0.04
759.71	0.04
760.145	0.04
760.581	0.04
761.016	0.04
761.452	0.04
761.887	0.04
762.322	0.04
762.758	0.04
763.193	0.03
763.628	0.03
764.063	0.03
764.499	0.03
764.934	0.03
765.369	0.03
765.804	0.03
766.239	0.03
766.674	0.02
767.109	0.02
767.544	0.02
767.979	0.02
768.414	0.02
768.849	0.02
769.284	0.02
769.719	0.02
770.154	0.02
770.588	0.02
771.023	0.01
771.458	0.01
771.893	0.01
772.327	0.01
772.762	0.01
773.197	0.01
773.631	0
774.066	0
774.5	-0
774.935	-0
775.369	-0
775.804	-0.01
776.238	-0.01
776.673	-0.01
777.107	-0.01
777.541	-0.01
777.976	-0.02
778.41	-0.02
778.844	-0.02
779.279	-0.02
779.713	-0.02
780.147	-0.02
780.581	-0.03
781.015	-0.03
781.449	-0.03
781.883	-0.03
782.317	-0.04
782.751	-0.04
783.185	-0.04
783.619	-0.04
784.053	-0.04
784.487	-0.05
784.921	-0.05
785.355	-0.05
785.789	-0.05
786.223	-0.05
786.656	-0.06
787.09	-0.06
787.524	-0.06
787.957	-0.06
788.391	-0.07
788.825	-0.07
789.258	-0.07
789.692	-0.08
790.125	-0.08
790.559	-0.09
790.992	-0.09
791.426	-0.1
791.859	-0.1
792.293	-0.09
792.726	-0.09
793.159	-0.09
793.593	-0.09
794.026	-0.1
794.459	-0.1
794.892	-0.11
795.326	-0.11
795.759	-0.11
796.192	-0.11
796.625	-0.12
797.058	-0.13
797.491	-0.14
797.924	-0.15
798.357	-0.15
798.79	-0.15
799.223	-0.15
799.656	-0.15
800.089	-0.15
800.522	-0.15
800.955	-0.16
801.387	-0.15
801.82	-0.16
802.253	-0.16
802.686	-0.16
803.118	-0.16
803.551	-0.16
803.984	-0.15
804.416	-0.15
804.849	-0.14
805.281	-0.14
805.714	-0.14
806.146	-0.14
806.579	-0.13
807.011	-0.13
807.444	-0.13
807.876	-0.13
808.308	-0.13
808.741	-0.14
809.173	-0.14
809.605	-0.15
810.037	-0.15
810.47	-0.15
810.902	-0.15
811.334	-0.15
811.766	-0.15
812.198	-0.14
812.63	-0.14
813.062	-0.13
813.494	-0.12
813.926	-0.12
814.358	-0.11
814.79	-0.1
815.222	-0.1
815.654	-0.09
816.086	-0.08
816.518	-0.08
816.949	-0.08
817.381	-0.07
817.813	-0.07
818.245	-0.06
818.676	-0.06
819.108	-0.06
819.54	-0.06
819.971	-0.05
820.403	-0.05
820.834	-0.05
821.266	-0.04
821.697	-0.04
822.129	-0.04
822.56	-0.04
822.991	-0.04
823.423	-0.03
823.854	-0.03
824.286	-0.03
824.717	-0.03
825.148	-0.03
825.579	-0.03
826.01	-0.03
826.442	-0.03
826.873	-0.02
827.304	-0.02
827.735	-0.02
828.166	-0.02
828.597	-0.02
829.028	-0.02
829.459	-0.02
829.89	-0.02
830.321	-0.02
830.752	-0.02
831.183	-0.02
831.613	-0.02
832.044	-0.02
832.475	-0.02
832.906	-0.02
833.336	-0.02
833.767	-0.02
834.198	-0.02
834.628	-0.02
835.059	-0.02
835.49	-0.02
835.92	-0.02
836.351	-0.02
836.781	-0.02
837.212	-0.02
837.642	-0.02
838.072	-0.02
838.503	-0.02
838.933	-0.02
839.364	-0.02
839.794	-0.02
840.224	-0.02
840.654	-0.02
841.085	-0.02
841.515	-0.02
841.945	-0.02
842.375	-0.02
842.805	-0.02
843.235	-0.02
843.665	-0.02
844.095	-0.02
844.525	-0.02
844.955	-0.02
845.385	-0.02
845.815	-0.02
846.245	-0.02
846.675	-0.02
847.105	-0.02
847.534	-0.02
847.964	-0.02
848.394	-0.02
848.824	-0.02
849.253	-0.02
849.683	-0.02
850.112	-0.02
850.542	-0.02
850.972	-0.02
851.401	-0.02
851.831	-0.02
852.26	-0.02
852.69	-0.02
853.119	-0.02
853.548	-0.02
853.978	-0.02
854.407	-0.02
854.836	-0.02
855.266	-0.02
855.695	-0.02
856.124	-0.02
856.553	-0.02
856.983	-0.02
857.412	-0.02
857.841	-0.02
858.27	-0.02
858.699	-0.02
859.128	-0.02
859.557	-0.02
859.986	-0.02
860.415	-0.02
860.844	-0.02
861.273	-0.02
861.702	-0.02
862.13	-0.02
862.559	-0.02
862.988	-0.02
863.417	-0.02
863.845	-0.02
864.274	-0.02
864.703	-0.02
865.131	-0.02
865.56	-0.02
865.989	-0.02
866.417	-0.02
866.846	-0.02
867.274	-0.02
867.703	-0.02
868.131	-0.02
868.559	-0.02
868.988	-0.02
869.416	-0.02
869.844	-0.02
870.273	-0.02
870.701	-0.03
871.129	-0.03
871.557	-0.03
871.986	-0.03
872.414	-0.03
872.842	-0.03
873.27	-0.03
873.698	-0.03
874.126	-0.03
874.554	-0.03
874.982	-0.04
875.41	-0.04
875.838	-0.03
876.266	-0.03
876.694	-0.03
877.122	-0.03
877.549	-0.04
877.977	-0.04
878.405	-0.04
878.833	-0.04
879.26	-0.04
879.688	-0.04
880.116	-0.04
880.543	-0.04
880.971	-0.04
881.399	-0.04
881.826	-0.03
882.254	-0.03
882.681	-0.03
883.109	-0.03
883.536	-0.03
883.963	-0.03
884.391	-0.03
884.818	-0.03
885.245	-0.03
885.673	-0.03
886.1	-0.03
886.527	-0.03
886.954	-0.03
887.381	-0.03
887.809	-0.03
888.236	-0.03
888.663	-0.03
889.09	-0.03
889.517	-0.03
889.944	-0.03
890.371	-0.03
890.798	-0.03
891.225	-0.03
891.652	-0.03
892.078	-0.03
892.505	-0.03
892.932	-0.03
893.359	-0.02
893.786	-0.02
894.212	-0.02
894.639	-0.02
895.066	-0.02
895.492	-0.02
895.919	-0.02
896.346	-0.02
896.772	-0.02
897.199	-0.03
897.625	-0.03
898.052	-0.03
898.478	-0.03
898.904	-0.03
899.331	-0.03
899.757	-0.03
900.183	-0.03
900.61	-0.03
901.036	-0.03
901.462	-0.04
901.888	-0.03
902.315	-0.03
902.741	-0.03
903.167	-0.03
903.593	-0.03
904.019	-0.03
904.445	-0.03
904.871	-0.03
905.297	-0.03
905.723	-0.03
906.149	-0.03
906.575	-0.02
907.001	-0.02
907.427	-0.02
907.852	-0.02
908.278	-0.02
908.704	-0.02
909.13	-0.02
909.555	-0.02
909.981	-0.02
910.407	-0.02
910.832	-0.02
911.258	-0.02
911.684	-0.02
912.109	-0.02
912.535	-0.02
912.96	-0.02
913.386	-0.02
913.811	-0.02
914.236	-0.03
914.662	-0.03
915.087	-0.03
915.512	-0.03
915.938	-0.03
916.363	-0.03
916.788	-0.03
917.213	-0.03
917.639	-0.03
918.064	-0.03
918.489	-0.03
918.914	-0.03
919.339	-0.03
919.764	-0.03
920.189	-0.03
920.614	-0.03
921.039	-0.02
921.464	-0.02
921.889	-0.02
922.314	-0.02
922.738	-0.02
923.163	-0.02
923.588	-0.02
924.013	-0.02
924.437	-0.02
924.862	-0.02
925.287	-0.02
925.711	-0.02
926.136	-0.02
926.561	-0.02
926.985	-0.02
927.41	-0.02
927.834	-0.02
928.259	-0.02
928.683	-0.02
929.108	-0.02
929.532	-0.02
929.956	-0.02
930.381	-0.02
930.805	-0.03
931.229	-0.03
931.653	-0.03
932.078	-0.03
932.502	-0.03
932.926	-0.03
933.35	-0.03
933.774	-0.03
934.198	-0.03
934.622	-0.03
935.046	-0.03
935.47	-0.03
935.894	-0.03
936.318	-0.03
936.742	-0.03
937.166	-0.03
937.59	-0.03
938.014	-0.03
938.437	-0.03
938.861	-0.03
939.285	-0.03
939.709	-0.03
940.132	-0.03
940.556	-0.03
940.98	-0.03
941.403	-0.03
941.827	-0.03
942.25	-0.03
942.674	-0.03
943.097	-0.03
943.521	-0.03
943.944	-0.03
944.368	-0.03
944.791	-0.03
945.214	-0.03
945.638	-0.03
946.061	-0.03
946.484	-0.03
946.907	-0.03
947.331	-0.03
947.754	-0.03
948.177	-0.03
948.6	-0.03
949.023	-0.03
949.446	-0.03
949.869	-0.03
950.292	-0.03
950.715	-0.03
951.138	-0.03
951.561	-0.03
951.984	-0.03
952.407	-0.03
952.83	-0.03
953.252	-0.03
953.675	-0.03
954.098	-0.03
954.521	-0.03
954.943	-0.03
955.366	-0.03
955.789	-0.03
956.211	-0.03
956.634	-0.03
957.056	-0.03
957.479	-0.03
957.902	-0.03
958.324	-0.03
958.746	-0.03
959.169	-0.03
959.591	-0.03
960.014	-0.03
960.436	-0.03
960.858	-0.03
961.281	-0.03
961.703	-0.03
962.125	-0.02
962.547	-0.02
962.969	-0.02
963.391	-0.02
963.814	-0.02
964.236	-0.02
964.658	-0.02
965.08	-0.02
965.502	-0.02
965.924	-0.02
966.346	-0.02
966.768	-0.02
967.189	-0.02
967.611	-0.02
968.033	-0.02
968.455	-0.02
968.877	-0.02
969.298	-0.02
969.72	-0.02
970.142	-0.02
970.563	-0.02
970.985	-0.02
971.407	-0.02
971.828	-0.02
972.25	-0.02
972.671	-0.02
973.093	-0.02
973.514	-0.02
973.936	-0.02
974.357	-0.02
974.778	-0.02
975.2	-0.02
975.621	-0.02
976.042	-0.02
976.464	-0.02
976.885	-0.02
977.306	-0.02
977.727	-0.02
978.148	-0.02
978.57	-0.02
978.991	-0.02
979.412	-0.02
979.833	-0.02
980.254	-0.02
980.675	-0.02
981.096	-0.02
981.517	-0.02
981.937	-0.02
982.358	-0.02
982.779	-0.02
983.2	-0.02
983.621	-0.02
984.042	-0.03
984.462	-0.03
984.883	-0.03
985.304	-0.03
985.724	-0.03
986.145	-0.03
986.565	-0.03
986.986	-0.03
987.407	-0.03
987.827	-0.03
988.248	-0.03
988.668	-0.03
989.088	-0.03
989.509	-0.03
989.929	-0.03
990.35	-0.03
990.77	-0.03
991.19	-0.03
991.61	-0.03
992.031	-0.03
992.451	-0.02
992.871	-0.02
993.291	-0.02
993.711	-0.02
994.131	-0.02
994.551	-0.02
994.971	-0.02
995.391	-0.02
995.811	-0.02
996.231	-0.02
996.651	-0.02
997.071	-0.02
997.491	-0.02
997.911	-0.02
998.331	-0.02
998.75	-0.02
999.17	-0.02
999.59	-0.02
1000.009	-0.02
1000.429	-0.02
1000.849	-0.02
1001.268	-0.02
1001.688	-0.02
1002.107	-0.02
1002.527	-0.02
1002.946	-0.02
1003.366	-0.02
1003.785	-0.02
1004.205	-0.02
1004.624	-0.02
1005.044	-0.03
1005.463	-0.03
1005.882	-0.03
1006.301	-0.03
1006.721	-0.03
1007.14	-0.03
1007.559	-0.03
1007.978	-0.03
1008.397	-0.03
1008.816	-0.03
1009.235	-0.03
1009.655	-0.03
1010.074	-0.03
1010.492	-0.03
1010.911	-0.03
1011.33	-0.04
1011.749	-0.04
1012.168	-0.04
1012.587	-0.04
1013.006	-0.04
1013.425	-0.04
1013.843	-0.04
1014.262	-0.03
1014.681	-0.03
1015.099	-0.03
1015.518	-0.03
1015.937	-0.03
1016.355	-0.03
1016.774	-0.03
1017.192	-0.03
1017.611	-0.03
1018.029	-0.03
1018.448	-0.03
1018.866	-0.03
1019.285	-0.03
1019.703	-0.02
1020.121	-0.02
1020.54	-0.02
1020.958	-0.02
1021.376	-0.02
1021.794	-0.02
1022.213	-0.02
1022.631	-0.02
1023.049	-0.02
1023.467	-0.02
1023.885	-0.02
1024.303	-0.02
1024.721	-0.02
1025.139	-0.02
1025.557	-0.02
1025.975	-0.02
1026.393	-0.02
1026.811	-0.02
1027.229	-0.02
1027.647	-0.02
1028.065	-0.02
1028.482	-0.02
1028.9	-0.02
1029.318	-0.02
1029.735	-0.02
1030.153	-0.02
1030.571	-0.02
1030.988	-0.02
1031.406	-0.02
1031.823	-0.02
1032.241	-0.02
1032.659	-0.02
1033.076	-0.02
1033.493	-0.02
1033.911	-0.02
1034.328	-0.02
1034.746	-0.02
1035.163	-0.02
1035.58	-0.03
1035.997	-0.03
1036.415	-0.03
1036.832	-0.03
1037.249	-0.03
1037.666	-0.03
1038.083	-0.03
1038.501	-0.03
1038.918	-0.03
1039.335	-0.03
1039.752	-0.03
1040.169	-0.03
1040.586	-0.03
1041.003	-0.03
1041.419	-0.03
1041.836	-0.03
1042.253	-0.03
1042.67	-0.03
1043.087	-0.03
1043.504	-0.03
1043.92	-0.03
1044.337	-0.03
1044.754	-0.03
1045.17	-0.03
1045.587	-0.03
1046.004	-0.03
1046.42	-0.03
1046.837	-0.03
1047.253	-0.03
1047.67	-0.03
1048.086	-0.03
1048.503	-0.03
1048.919	-0.03
1049.335	-0.03
1049.752	-0.02
1050.168	-0.02
1050.584	-0.02
1051.001	-0.02
1051.417	-0.02
1051.833	-0.02
1052.249	-0.02
1052.665	-0.02
1053.081	-0.02
1053.497	-0.02
1053.914	-0.02
1054.33	-0.02
1054.746	-0.02
1055.162	-0.02
1055.578	-0.02
1055.993	-0.02
1056.409	-0.02
1056.825	-0.02
1057.241	-0.02
1057.657	-0.02
1058.073	-0.02
1058.488	-0.02
1058.904	-0.02
1059.32	-0.02
1059.736	-0.03
1060.151	-0.03
1060.567	-0.03
1060.982	-0.03
1061.398	-0.03
1061.813	-0.03
1062.229	-0.03
1062.644	-0.03
1063.06	-0.03
1063.475	-0.03
1063.891	-0.03
1064.306	-0.03
1064.721	-0.03
1065.137	-0.03
1065.552	-0.03
1065.967	-0.03
1066.382	-0.03
1066.798	-0.03
1067.213	-0.03
1067.628	-0.03
1068.043	-0.03
1068.458	-0.03
1068.873	-0.03
1069.288	-0.03
1069.703	-0.03
1070.118	-0.03
1070.533	-0.03
1070.948	-0.03
1071.363	-0.03
1071.778	-0.03
1072.193	-0.03
1072.607	-0.03
1073.022	-0.03
1073.437	-0.03
1073.852	-0.03
1074.266	-0.03
1074.681	-0.03
1075.096	-0.03
1075.51	-0.03
1075.925	-0.03
1076.339	-0.03
1076.754	-0.04
1077.168	-0.04
1077.583	-0.04
1077.997	-0.04
1078.412	-0.04
1078.826	-0.04
1079.24	-0.04
1079.655	-0.04
1080.069	-0.04
1080.483	-0.04
1080.897	-0.04
1081.312	-0.04
1081.726	-0.04
1082.14	-0.04
1082.554	-0.04
1082.968	-0.04
1083.382	-0.04
1083.796	-0.04
1084.21	-0.04
1084.624	-0.04
1085.038	-0.04
1085.452	-0.04
1085.866	-0.04
1086.28	-0.04
1086.694	-0.04
1087.108	-0.04
1087.521	-0.04
1087.935	-0.04
1088.349	-0.04
1088.763	-0.04
1089.176	-0.04
1089.59	-0.04
1090.004	-0.04
1090.417	-0.04
1090.831	-0.04
1091.244	-0.04
1091.658	-0.04
1092.071	-0.04
1092.485	-0.04
1092.898	-0.05
1093.312	-0.05
1093.725	-0.05
1094.138	-0.05
1094.552	-0.05
1094.965	-0.05
1095.378	-0.05
1095.791	-0.05
1096.205	-0.05
1096.618	-0.05
1097.031	-0.05
1097.444	-0.05
1097.857	-0.05
1098.27	-0.05
1098.683	-0.05
1099.096	-0.05
1099.509	-0.05
1099.922	-0.05
1100.335	-0.06
1100.748	-0.06
1101.161	-0.06
1101.574	-0.06
1101.986	-0.06
1102.399	-0.06
1102.812	-0.06
1103.225	-0.06
1103.637	-0.06
1104.05	-0.06
1104.463	-0.06
1104.875	-0.06
1105.288	-0.06
1105.7	-0.06
1106.113	-0.07
1106.525	-0.07
1106.938	-0.07
1107.35	-0.07
1107.763	-0.07
1108.175	-0.07
1108.588	-0.08
1109	-0.08
1109.412	-0.08
1109.824	-0.08
1110.237	-0.08
1110.649	-0.08
1111.061	-0.08
