Data from 2024-02-06-100ns-20nr-25nacl-100h2o-7bp2-1_8a808-40to10hyt-0_5cpm_Absorbance__53__00442.txt Node

Date: Tue Feb 06 15:50:50 CET 2024
User: Laser008
Spectrometer: MAYP115816
Trigger mode: 0
Integration Time (sec): 2.000000E-1
Scans to average: 10
Electric dark correction enabled: true
Nonlinearity correction enabled: true
Boxcar width: 5
XAxis mode: Wavelengths
Number of Pixels in Spectrum: 2068
>>>>>Begin Spectral Data<<<<<
198.914	-0.25
199.384	-0.23
199.855	-0.18
200.325	-0.15
200.796	-0.12
201.266	-0.11
201.737	-0.09
202.207	-0.09
202.677	-0.08
203.147	-0.08
203.618	-0.07
204.088	-0.06
204.558	-0.05
205.028	-0.05
205.498	-0.05
205.968	-0.04
206.439	-0.05
206.909	-0.05
207.379	-0.05
207.849	-0.05
208.319	-0.04
208.789	-0.04
209.258	-0.04
209.728	-0.04
210.198	-0.04
210.668	-0.04
211.138	-0.05
211.608	-0.04
212.077	-0.05
212.547	-0.05
213.017	-0.05
213.486	-0.05
213.956	-0.05
214.426	-0.05
214.895	-0.05
215.365	-0.05
215.834	-0.05
216.304	-0.05
216.773	-0.04
217.243	-0.04
217.712	-0.04
218.181	-0.04
218.651	-0.04
219.12	-0.03
219.589	-0.03
220.058	-0.03
220.528	-0.03
220.997	-0.02
221.466	-0.02
221.935	-0.02
222.404	-0.02
222.873	-0.01
223.342	-0.01
223.812	-0.01
224.281	-0
224.749	0
225.218	0.01
225.687	0.02
226.156	0.03
226.625	0.04
227.094	0.04
227.563	0.05
228.031	0.06
228.5	0.07
228.969	0.09
229.438	0.11
229.906	0.12
230.375	0.14
230.844	0.16
231.312	0.18
231.781	0.2
232.249	0.22
232.718	0.24
233.186	0.26
233.655	0.28
234.123	0.3
234.591	0.31
235.06	0.33
235.528	0.34
235.996	0.35
236.465	0.37
236.933	0.38
237.401	0.38
237.869	0.39
238.337	0.4
238.805	0.41
239.274	0.41
239.742	0.42
240.21	0.42
240.678	0.42
241.146	0.43
241.614	0.43
242.081	0.43
242.549	0.43
243.017	0.44
243.485	0.44
243.953	0.44
244.421	0.44
244.888	0.45
245.356	0.45
245.824	0.45
246.291	0.45
246.759	0.45
247.227	0.46
247.694	0.46
248.162	0.46
248.629	0.46
249.097	0.46
249.564	0.46
250.032	0.47
250.499	0.47
250.967	0.47
251.434	0.47
251.901	0.47
252.369	0.47
252.836	0.48
253.303	0.48
253.77	0.48
254.237	0.48
254.705	0.48
255.172	0.48
255.639	0.48
256.106	0.48
256.573	0.48
257.04	0.49
257.507	0.49
257.974	0.49
258.441	0.49
258.908	0.49
259.375	0.49
259.841	0.49
260.308	0.49
260.775	0.49
261.242	0.49
261.709	0.49
262.175	0.48
262.642	0.48
263.109	0.48
263.575	0.48
264.042	0.48
264.508	0.48
264.975	0.48
265.441	0.48
265.908	0.48
266.374	0.48
266.841	0.47
267.307	0.47
267.773	0.47
268.24	0.47
268.706	0.47
269.172	0.47
269.639	0.46
270.105	0.46
270.571	0.46
271.037	0.46
271.503	0.45
271.969	0.45
272.435	0.45
272.902	0.45
273.368	0.44
273.834	0.44
274.3	0.44
274.765	0.44
275.231	0.43
275.697	0.43
276.163	0.43
276.629	0.43
277.095	0.42
277.56	0.42
278.026	0.42
278.492	0.42
278.958	0.41
279.423	0.41
279.889	0.41
280.354	0.4
280.82	0.4
281.286	0.4
281.751	0.39
282.217	0.39
282.682	0.39
283.147	0.38
283.613	0.38
284.078	0.38
284.544	0.38
285.009	0.38
285.474	0.37
285.939	0.37
286.405	0.37
286.87	0.37
287.335	0.36
287.8	0.36
288.265	0.36
288.73	0.36
289.195	0.36
289.66	0.35
290.125	0.35
290.59	0.35
291.055	0.35
291.52	0.35
291.985	0.34
292.45	0.34
292.915	0.34
293.38	0.34
293.844	0.34
294.309	0.34
294.774	0.33
295.239	0.33
295.703	0.33
296.168	0.33
296.632	0.33
297.097	0.33
297.562	0.33
298.026	0.33
298.491	0.33
298.955	0.32
299.419	0.32
299.884	0.32
300.348	0.32
300.813	0.32
301.277	0.32
301.741	0.32
302.205	0.32
302.67	0.32
303.134	0.32
303.598	0.32
304.062	0.31
304.526	0.31
304.99	0.31
305.454	0.31
305.919	0.31
306.383	0.31
306.847	0.31
307.31	0.31
307.774	0.31
308.238	0.31
308.702	0.31
309.166	0.31
309.63	0.3
310.094	0.3
310.557	0.3
311.021	0.3
311.485	0.3
311.948	0.3
312.412	0.3
312.876	0.3
313.339	0.3
313.803	0.3
314.266	0.3
314.73	0.3
315.193	0.3
315.657	0.29
316.12	0.29
316.584	0.29
317.047	0.29
317.51	0.29
317.973	0.29
318.437	0.29
318.9	0.29
319.363	0.29
319.826	0.29
320.29	0.29
320.753	0.29
321.216	0.29
321.679	0.29
322.142	0.29
322.605	0.28
323.068	0.28
323.531	0.28
323.994	0.28
324.457	0.28
324.92	0.28
325.382	0.28
325.845	0.28
326.308	0.28
326.771	0.28
327.233	0.28
327.696	0.28
328.159	0.28
328.622	0.28
329.084	0.27
329.547	0.27
330.009	0.27
330.472	0.27
330.934	0.27
331.397	0.27
331.859	0.27
332.322	0.27
332.784	0.27
333.246	0.27
333.709	0.27
334.171	0.27
334.633	0.27
335.096	0.27
335.558	0.27
336.02	0.27
336.482	0.26
336.944	0.26
337.406	0.26
337.868	0.26
338.331	0.26
338.793	0.26
339.255	0.26
339.717	0.26
340.178	0.26
340.64	0.26
341.102	0.26
341.564	0.26
342.026	0.26
342.488	0.26
342.949	0.26
343.411	0.26
343.873	0.26
344.335	0.26
344.796	0.26
345.258	0.26
345.719	0.26
346.181	0.26
346.643	0.26
347.104	0.26
347.566	0.26
348.027	0.25
348.488	0.25
348.95	0.25
349.411	0.25
349.873	0.25
350.334	0.25
350.795	0.25
351.256	0.25
351.718	0.25
352.179	0.25
352.64	0.25
353.101	0.25
353.562	0.25
354.023	0.25
354.484	0.25
354.945	0.25
355.406	0.25
355.867	0.25
356.328	0.25
356.789	0.25
357.25	0.25
357.711	0.25
358.172	0.25
358.633	0.25
359.093	0.25
359.554	0.25
360.015	0.25
360.476	0.25
360.936	0.25
361.397	0.25
361.858	0.25
362.318	0.25
362.779	0.25
363.239	0.25
363.7	0.25
364.16	0.25
364.621	0.25
365.081	0.25
365.541	0.25
366.002	0.25
366.462	0.25
366.922	0.25
367.383	0.25
367.843	0.25
368.303	0.25
368.763	0.25
369.223	0.25
369.684	0.25
370.144	0.25
370.604	0.25
371.064	0.25
371.524	0.25
371.984	0.24
372.444	0.24
372.904	0.24
373.363	0.24
373.823	0.24
374.283	0.24
374.743	0.24
375.203	0.24
375.663	0.24
376.122	0.24
376.582	0.24
377.042	0.24
377.501	0.24
377.961	0.24
378.42	0.24
378.88	0.24
379.34	0.24
379.799	0.24
380.259	0.24
380.718	0.24
381.177	0.24
381.637	0.24
382.096	0.24
382.555	0.24
383.015	0.24
383.474	0.24
383.933	0.24
384.393	0.24
384.852	0.24
385.311	0.24
385.77	0.24
386.229	0.24
386.688	0.24
387.147	0.24
387.606	0.24
388.065	0.24
388.524	0.24
388.983	0.24
389.442	0.23
389.901	0.23
390.36	0.23
390.819	0.23
391.277	0.23
391.736	0.23
392.195	0.23
392.654	0.23
393.112	0.23
393.571	0.23
394.03	0.23
394.488	0.23
394.947	0.23
395.405	0.23
395.864	0.23
396.322	0.23
396.781	0.23
397.239	0.23
397.698	0.23
398.156	0.23
398.614	0.23
399.073	0.23
399.531	0.23
399.989	0.23
400.447	0.23
400.905	0.23
401.364	0.23
401.822	0.23
402.28	0.23
402.738	0.23
403.196	0.23
403.654	0.23
404.112	0.23
404.57	0.23
405.028	0.22
405.486	0.22
405.944	0.22
406.402	0.22
406.859	0.22
407.317	0.22
407.775	0.22
408.233	0.22
408.691	0.22
409.148	0.22
409.606	0.22
410.064	0.22
410.521	0.22
410.979	0.22
411.436	0.22
411.894	0.22
412.351	0.22
412.809	0.22
413.266	0.22
413.724	0.22
414.181	0.22
414.638	0.22
415.096	0.22
415.553	0.22
416.01	0.22
416.467	0.22
416.925	0.22
417.382	0.22
417.839	0.22
418.296	0.22
418.753	0.22
419.21	0.22
419.667	0.22
420.124	0.22
420.581	0.22
421.038	0.22
421.495	0.22
421.952	0.21
422.409	0.21
422.866	0.21
423.322	0.21
423.779	0.21
424.236	0.21
424.693	0.21
425.149	0.21
425.606	0.21
426.063	0.21
426.519	0.21
426.976	0.21
427.433	0.21
427.889	0.21
428.346	0.21
428.802	0.21
429.258	0.21
429.715	0.21
430.171	0.21
430.628	0.21
431.084	0.21
431.54	0.21
431.997	0.21
432.453	0.21
432.909	0.21
433.365	0.21
433.821	0.21
434.277	0.21
434.734	0.21
435.19	0.21
435.646	0.21
436.102	0.21
436.558	0.21
437.014	0.21
437.47	0.21
437.925	0.21
438.381	0.21
438.837	0.21
439.293	0.21
439.749	0.21
440.205	0.21
440.66	0.21
441.116	0.21
441.572	0.21
442.027	0.21
442.483	0.21
442.939	0.21
443.394	0.21
443.85	0.21
444.305	0.21
444.761	0.21
445.216	0.21
445.672	0.2
446.127	0.2
446.582	0.2
447.038	0.2
447.493	0.2
447.948	0.2
448.403	0.2
448.859	0.2
449.314	0.2
449.769	0.2
450.224	0.2
450.679	0.2
451.134	0.2
451.589	0.2
452.044	0.2
452.499	0.2
452.954	0.2
453.409	0.2
453.864	0.2
454.319	0.2
454.774	0.2
455.229	0.2
455.684	0.2
456.138	0.2
456.593	0.2
457.048	0.2
457.503	0.2
457.957	0.2
458.412	0.2
458.866	0.2
459.321	0.2
459.776	0.2
460.23	0.2
460.685	0.2
461.139	0.2
461.593	0.2
462.048	0.2
462.502	0.2
462.957	0.2
463.411	0.2
463.865	0.2
464.319	0.2
464.774	0.2
465.228	0.2
465.682	0.2
466.136	0.2
466.59	0.2
467.044	0.2
467.499	0.2
467.953	0.2
468.407	0.2
468.861	0.2
469.315	0.21
469.768	0.21
470.222	0.21
470.676	0.21
471.13	0.21
471.584	0.21
472.038	0.21
472.491	0.21
472.945	0.21
473.399	0.21
473.852	0.21
474.306	0.21
474.76	0.21
475.213	0.21
475.667	0.21
476.12	0.21
476.574	0.21
477.027	0.21
477.481	0.21
477.934	0.21
478.388	0.21
478.841	0.21
479.294	0.21
479.748	0.21
480.201	0.22
480.654	0.22
481.107	0.22
481.561	0.22
482.014	0.22
482.467	0.22
482.92	0.22
483.373	0.22
483.826	0.22
484.279	0.22
484.732	0.22
485.185	0.22
485.638	0.22
486.091	0.23
486.544	0.23
486.997	0.23
487.449	0.23
487.902	0.23
488.355	0.23
488.808	0.23
489.26	0.23
489.713	0.23
490.166	0.24
490.618	0.24
491.071	0.24
491.523	0.24
491.976	0.24
492.429	0.24
492.881	0.24
493.333	0.25
493.786	0.25
494.238	0.25
494.691	0.25
495.143	0.25
495.595	0.25
496.048	0.26
496.5	0.26
496.952	0.26
497.404	0.26
497.856	0.26
498.309	0.26
498.761	0.27
499.213	0.27
499.665	0.27
500.117	0.27
500.569	0.27
501.021	0.28
501.473	0.28
501.925	0.28
502.377	0.28
502.828	0.28
503.28	0.29
503.732	0.29
504.184	0.29
504.636	0.29
505.087	0.29
505.539	0.3
505.991	0.3
506.442	0.3
506.894	0.3
507.345	0.3
507.797	0.3
508.249	0.31
508.7	0.31
509.151	0.31
509.603	0.31
510.054	0.31
510.506	0.31
510.957	0.32
511.408	0.32
511.86	0.32
512.311	0.32
512.762	0.32
513.213	0.32
513.665	0.33
514.116	0.33
514.567	0.33
515.018	0.33
515.469	0.33
515.92	0.33
516.371	0.33
516.822	0.34
517.273	0.34
517.724	0.34
518.175	0.34
518.626	0.34
519.076	0.34
519.527	0.34
519.978	0.34
520.429	0.34
520.88	0.35
521.33	0.35
521.781	0.35
522.232	0.35
522.682	0.35
523.133	0.35
523.583	0.35
524.034	0.35
524.484	0.35
524.935	0.35
525.385	0.35
525.836	0.35
526.286	0.35
526.736	0.35
527.187	0.35
527.637	0.35
528.087	0.35
528.538	0.35
528.988	0.35
529.438	0.35
529.888	0.35
530.338	0.35
530.788	0.35
531.238	0.35
531.688	0.35
532.139	0.35
532.589	0.35
533.038	0.35
533.488	0.35
533.938	0.35
534.388	0.35
534.838	0.35
535.288	0.35
535.738	0.35
536.187	0.35
536.637	0.35
537.087	0.34
537.537	0.34
537.986	0.34
538.436	0.34
538.885	0.34
539.335	0.34
539.785	0.34
540.234	0.34
540.684	0.34
541.133	0.34
541.582	0.34
542.032	0.33
542.481	0.33
542.931	0.33
543.38	0.33
543.829	0.33
544.278	0.33
544.728	0.33
545.177	0.32
545.626	0.32
546.075	0.32
546.524	0.32
546.973	0.32
547.422	0.32
547.871	0.32
548.32	0.31
548.769	0.31
549.218	0.31
549.667	0.31
550.116	0.31
550.565	0.31
551.014	0.3
551.463	0.3
551.911	0.3
552.36	0.3
552.809	0.3
553.258	0.3
553.706	0.29
554.155	0.29
554.603	0.29
555.052	0.29
555.501	0.29
555.949	0.29
556.398	0.28
556.846	0.28
557.294	0.28
557.743	0.28
558.191	0.28
558.64	0.28
559.088	0.27
559.536	0.27
559.985	0.27
560.433	0.27
560.881	0.27
561.329	0.27
561.777	0.26
562.225	0.26
562.674	0.26
563.122	0.26
563.57	0.26
564.018	0.25
564.466	0.25
564.914	0.25
565.362	0.25
565.809	0.24
566.257	0.24
566.705	0.24
567.153	0.24
567.601	0.24
568.048	0.24
568.496	0.23
568.944	0.23
569.392	0.23
569.839	0.23
570.287	0.23
570.734	0.23
571.182	0.22
571.63	0.22
572.077	0.22
572.525	0.22
572.972	0.22
573.419	0.22
573.867	0.21
574.314	0.21
574.761	0.21
575.209	0.21
575.656	0.21
576.103	0.21
576.551	0.21
576.998	0.2
577.445	0.2
577.892	0.2
578.339	0.2
578.786	0.2
579.233	0.2
579.68	0.2
580.127	0.19
580.574	0.19
581.021	0.19
581.468	0.19
581.915	0.19
582.362	0.19
582.809	0.19
583.255	0.18
583.702	0.18
584.149	0.18
584.596	0.18
585.042	0.18
585.489	0.17
585.936	0.17
586.382	0.17
586.829	0.17
587.275	0.17
587.722	0.17
588.168	0.16
588.615	0.16
589.061	0.16
589.508	0.16
589.954	0.16
590.4	0.16
590.847	0.16
591.293	0.16
591.739	0.15
592.185	0.15
592.632	0.15
593.078	0.15
593.524	0.15
593.97	0.15
594.416	0.15
594.862	0.15
595.308	0.14
595.754	0.14
596.2	0.14
596.646	0.14
597.092	0.14
597.538	0.14
597.984	0.14
598.43	0.14
598.876	0.14
599.321	0.14
599.767	0.14
600.213	0.13
600.659	0.13
601.104	0.13
601.55	0.13
601.995	0.13
602.441	0.13
602.887	0.13
603.332	0.13
603.778	0.13
604.223	0.13
604.668	0.13
605.114	0.13
605.559	0.13
606.005	0.12
606.45	0.12
606.895	0.12
607.341	0.12
607.786	0.12
608.231	0.12
608.676	0.12
609.121	0.12
609.566	0.12
610.012	0.12
610.457	0.12
610.902	0.12
611.347	0.12
611.792	0.12
612.237	0.12
612.682	0.12
613.127	0.12
613.571	0.12
614.016	0.12
614.461	0.12
614.906	0.12
615.351	0.12
615.795	0.12
616.24	0.12
616.685	0.11
617.129	0.11
617.574	0.11
618.019	0.11
618.463	0.11
618.908	0.11
619.352	0.11
619.797	0.11
620.241	0.11
620.686	0.11
621.13	0.11
621.574	0.11
622.019	0.11
622.463	0.11
622.907	0.11
623.352	0.11
623.796	0.11
624.24	0.11
624.684	0.11
625.128	0.11
625.572	0.11
626.016	0.11
626.461	0.11
626.905	0.11
627.349	0.11
627.793	0.12
628.236	0.12
628.68	0.12
629.124	0.12
629.568	0.12
630.012	0.12
630.456	0.12
630.9	0.12
631.343	0.12
631.787	0.12
632.231	0.12
632.674	0.12
633.118	0.12
633.562	0.12
634.005	0.12
634.449	0.13
634.892	0.13
635.336	0.13
635.779	0.13
636.223	0.13
636.666	0.13
637.109	0.13
637.553	0.14
637.996	0.14
638.439	0.14
638.883	0.14
639.326	0.14
639.769	0.14
640.212	0.14
640.655	0.15
641.099	0.15
641.542	0.15
641.985	0.15
642.428	0.15
642.871	0.15
643.314	0.15
643.757	0.16
644.2	0.16
644.643	0.16
645.085	0.16
645.528	0.16
645.971	0.17
646.414	0.17
646.857	0.17
647.299	0.17
647.742	0.18
648.185	0.18
648.627	0.18
649.07	0.18
649.513	0.19
649.955	0.19
650.398	0.19
650.84	0.19
651.283	0.2
651.725	0.2
652.168	0.2
652.61	0.2
653.052	0.21
653.495	0.21
653.937	0.16
654.379	0.13
654.821	0.14
655.264	0.14
655.706	0.14
656.148	0.14
656.59	0.14
657.032	0.15
657.474	0.15
657.916	0.15
658.358	0.14
658.8	0.18
659.242	0.24
659.684	0.25
660.126	0.25
660.568	0.25
661.01	0.25
661.452	0.26
661.894	0.26
662.335	0.26
662.777	0.27
663.219	0.27
663.661	0.27
664.102	0.27
664.544	0.28
664.985	0.28
665.427	0.28
665.869	0.29
666.31	0.29
666.752	0.29
667.193	0.3
667.634	0.3
668.076	0.3
668.517	0.3
668.959	0.31
669.4	0.31
669.841	0.31
670.282	0.31
670.724	0.31
671.165	0.32
671.606	0.32
672.047	0.32
672.488	0.32
672.929	0.32
673.37	0.32
673.811	0.32
674.252	0.33
674.693	0.33
675.134	0.33
675.575	0.33
676.016	0.33
676.457	0.33
676.898	0.34
677.339	0.34
677.78	0.34
678.22	0.34
678.661	0.34
679.102	0.34
679.542	0.34
679.983	0.35
680.424	0.35
680.864	0.35
681.305	0.35
681.745	0.35
682.186	0.35
682.626	0.35
683.067	0.35
683.507	0.35
683.948	0.35
684.388	0.35
684.828	0.35
685.269	0.35
685.709	0.35
686.149	0.35
686.589	0.35
687.029	0.35
687.47	0.35
687.91	0.35
688.35	0.35
688.79	0.35
689.23	0.35
689.67	0.35
690.11	0.35
690.55	0.35
690.99	0.35
691.43	0.35
691.87	0.35
692.31	0.35
692.749	0.35
693.189	0.35
693.629	0.35
694.069	0.35
694.508	0.34
694.948	0.34
695.388	0.34
695.827	0.34
696.267	0.34
696.706	0.34
697.146	0.34
697.586	0.33
698.025	0.33
698.464	0.33
698.904	0.33
699.343	0.33
699.783	0.33
700.222	0.33
700.661	0.33
701.101	0.32
701.54	0.32
701.979	0.32
702.418	0.32
702.857	0.32
703.297	0.32
703.736	0.31
704.175	0.31
704.614	0.31
705.053	0.31
705.492	0.31
705.931	0.3
706.37	0.3
706.809	0.3
707.248	0.3
707.687	0.3
708.125	0.3
708.564	0.29
709.003	0.29
709.442	0.29
709.88	0.29
710.319	0.29
710.758	0.28
711.196	0.28
711.635	0.28
712.074	0.28
712.512	0.28
712.951	0.27
713.389	0.27
713.828	0.27
714.266	0.27
714.705	0.27
715.143	0.26
715.581	0.26
716.02	0.26
716.458	0.26
716.896	0.25
717.334	0.25
717.773	0.25
718.211	0.25
718.649	0.24
719.087	0.24
719.525	0.24
719.963	0.24
720.401	0.24
720.839	0.23
721.277	0.23
721.715	0.23
722.153	0.23
722.591	0.23
723.029	0.23
723.467	0.22
723.905	0.22
724.342	0.22
724.78	0.22
725.218	0.22
725.656	0.21
726.093	0.21
726.531	0.21
726.969	0.21
727.406	0.21
727.844	0.2
728.281	0.2
728.719	0.2
729.156	0.2
729.594	0.2
730.031	0.2
730.469	0.19
730.906	0.19
731.343	0.19
731.781	0.19
732.218	0.19
732.655	0.19
733.092	0.19
733.53	0.18
733.967	0.18
734.404	0.18
734.841	0.18
735.278	0.18
735.715	0.17
736.152	0.17
736.589	0.17
737.026	0.17
737.463	0.17
737.9	0.16
738.337	0.16
738.774	0.16
739.211	0.16
739.647	0.16
740.084	0.16
740.521	0.15
740.958	0.15
741.394	0.15
741.831	0.15
742.268	0.15
742.704	0.15
743.141	0.15
743.577	0.14
744.014	0.14
744.45	0.14
744.887	0.14
745.323	0.14
745.76	0.14
746.196	0.13
746.632	0.13
747.069	0.13
747.505	0.13
747.941	0.13
748.378	0.13
748.814	0.13
749.25	0.12
749.686	0.12
750.122	0.12
750.558	0.12
750.994	0.12
751.43	0.12
751.866	0.11
752.302	0.11
752.738	0.11
753.174	0.11
753.61	0.11
754.046	0.1
754.482	0.1
754.918	0.1
755.354	0.1
755.789	0.1
756.225	0.1
756.661	0.09
757.096	0.09
757.532	0.09
757.968	0.09
758.403	0.09
758.839	0.09
759.274	0.09
759.71	0.09
760.145	0.08
760.581	0.08
761.016	0.08
761.452	0.08
761.887	0.08
762.322	0.08
762.758	0.08
763.193	0.07
763.628	0.07
764.063	0.07
764.499	0.07
764.934	0.07
765.369	0.06
765.804	0.06
766.239	0.06
766.674	0.06
767.109	0.06
767.544	0.05
767.979	0.05
768.414	0.05
768.849	0.05
769.284	0.04
769.719	0.04
770.154	0.04
770.588	0.04
771.023	0.04
771.458	0.03
771.893	0.03
772.327	0.03
772.762	0.02
773.197	0.02
773.631	0.02
774.066	0.01
774.5	0.01
774.935	0
775.369	0
775.804	-0
776.238	-0.01
776.673	-0.01
777.107	-0.02
777.541	-0.02
777.976	-0.02
778.41	-0.03
778.844	-0.03
779.279	-0.03
779.713	-0.04
780.147	-0.04
780.581	-0.04
781.015	-0.05
781.449	-0.05
781.883	-0.06
782.317	-0.06
782.751	-0.07
783.185	-0.07
783.619	-0.08
784.053	-0.08
784.487	-0.09
784.921	-0.1
785.355	-0.1
785.789	-0.11
786.223	-0.11
786.656	-0.11
787.09	-0.11
787.524	-0.11
787.957	-0.12
788.391	-0.12
788.825	-0.13
789.258	-0.13
789.692	-0.13
790.125	-0.13
790.559	-0.13
790.992	-0.13
791.426	-0.13
791.859	-0.13
792.293	-0.12
792.726	-0.11
793.159	-0.1
793.593	-0.1
794.026	-0.1
794.459	-0.11
794.892	-0.11
795.326	-0.11
795.759	-0.11
796.192	-0.11
796.625	-0.12
797.058	-0.13
797.491	-0.14
797.924	-0.15
798.357	-0.15
798.79	-0.15
799.223	-0.15
799.656	-0.15
800.089	-0.15
800.522	-0.15
800.955	-0.16
801.387	-0.15
801.82	-0.16
802.253	-0.16
802.686	-0.16
803.118	-0.16
803.551	-0.16
803.984	-0.15
804.416	-0.15
804.849	-0.14
805.281	-0.14
805.714	-0.14
806.146	-0.14
806.579	-0.13
807.011	-0.13
807.444	-0.13
807.876	-0.13
808.308	-0.13
808.741	-0.14
809.173	-0.14
809.605	-0.15
810.037	-0.15
810.47	-0.15
810.902	-0.16
811.334	-0.16
811.766	-0.16
812.198	-0.15
812.63	-0.15
813.062	-0.16
813.494	-0.16
813.926	-0.16
814.358	-0.16
814.79	-0.16
815.222	-0.15
815.654	-0.15
816.086	-0.14
816.518	-0.14
816.949	-0.14
817.381	-0.14
817.813	-0.13
818.245	-0.12
818.676	-0.11
819.108	-0.1
819.54	-0.1
819.971	-0.09
820.403	-0.08
820.834	-0.08
821.266	-0.07
821.697	-0.06
822.129	-0.06
822.56	-0.06
822.991	-0.05
823.423	-0.05
823.854	-0.05
824.286	-0.04
824.717	-0.04
825.148	-0.04
825.579	-0.03
826.01	-0.03
826.442	-0.03
826.873	-0.02
827.304	-0.02
827.735	-0.02
828.166	-0.02
828.597	-0.02
829.028	-0.02
829.459	-0.01
829.89	-0.01
830.321	-0.01
830.752	-0.01
831.183	-0.01
831.613	-0.01
832.044	-0.01
832.475	-0.01
832.906	-0.01
833.336	-0.01
833.767	-0.01
834.198	-0
834.628	-0
835.059	-0
835.49	-0
835.92	-0
836.351	-0
836.781	-0
837.212	-0
837.642	-0
838.072	-0
838.503	-0
838.933	-0
839.364	-0
839.794	-0
840.224	-0
840.654	-0
841.085	-0
841.515	-0
841.945	-0
842.375	-0
842.805	-0
843.235	-0
843.665	-0
844.095	-0
844.525	-0
844.955	-0
845.385	-0
845.815	-0
846.245	-0.01
846.675	-0.01
847.105	-0.01
847.534	-0.01
847.964	-0.01
848.394	-0.01
848.824	-0.01
849.253	-0.01
849.683	-0.01
850.112	-0.01
850.542	-0.01
850.972	-0.01
851.401	-0.01
851.831	-0.01
852.26	-0.01
852.69	-0.01
853.119	-0.01
853.548	-0
853.978	-0
854.407	-0
854.836	-0
855.266	-0
855.695	-0
856.124	-0
856.553	-0
856.983	-0
857.412	-0
857.841	-0
858.27	-0
858.699	-0
859.128	-0
859.557	-0
859.986	-0
860.415	-0
860.844	-0
861.273	-0
861.702	-0
862.13	-0
862.559	-0
862.988	-0
863.417	-0
863.845	-0
864.274	-0
864.703	-0
865.131	-0
865.56	-0
865.989	-0
866.417	-0
866.846	-0
867.274	-0
867.703	-0
868.131	-0
868.559	-0
868.988	-0
869.416	-0
869.844	-0
870.273	-0
870.701	-0
871.129	-0
871.557	-0
871.986	-0
872.414	-0.01
872.842	-0.01
873.27	-0.01
873.698	-0.01
874.126	-0.01
874.554	-0.01
874.982	-0.01
875.41	-0.01
875.838	-0.01
876.266	-0.01
876.694	-0.01
877.122	-0.01
877.549	-0.02
877.977	-0.02
878.405	-0.02
878.833	-0.02
879.26	-0.02
879.688	-0.02
880.116	-0.02
880.543	-0.02
880.971	-0.02
881.399	-0.02
881.826	-0.02
882.254	-0.02
882.681	-0.02
883.109	-0.02
883.536	-0.02
883.963	-0.02
884.391	-0.01
884.818	-0.01
885.245	-0.01
885.673	-0.01
886.1	-0.01
886.527	-0.01
886.954	-0.02
887.381	-0.02
887.809	-0.02
888.236	-0.02
888.663	-0.02
889.09	-0.02
889.517	-0.02
889.944	-0.02
890.371	-0.01
890.798	-0.01
891.225	-0.01
891.652	-0.01
892.078	-0.01
892.505	-0.01
892.932	-0.01
893.359	-0.01
893.786	-0.01
894.212	-0.01
894.639	-0.01
895.066	-0.01
895.492	-0.01
895.919	-0.01
896.346	-0.01
896.772	-0.01
897.199	-0.01
897.625	-0.01
898.052	-0.02
898.478	-0.02
898.904	-0.02
899.331	-0.02
899.757	-0.02
900.183	-0.02
900.61	-0.02
901.036	-0.02
901.462	-0.02
901.888	-0.02
902.315	-0.02
902.741	-0.02
903.167	-0.02
903.593	-0.02
904.019	-0.02
904.445	-0.02
904.871	-0.02
905.297	-0.02
905.723	-0.02
906.149	-0.02
906.575	-0.02
907.001	-0.02
907.427	-0.02
907.852	-0.01
908.278	-0.01
908.704	-0.01
909.13	-0.01
909.555	-0.01
909.981	-0.01
910.407	-0.01
910.832	-0.01
911.258	-0.01
911.684	-0.01
912.109	-0.01
912.535	-0.01
912.96	-0.01
913.386	-0.01
913.811	-0.01
914.236	-0.01
914.662	-0.01
915.087	-0.01
915.512	-0.01
915.938	-0.01
916.363	-0.01
916.788	-0.01
917.213	-0.01
917.639	-0.01
918.064	-0.01
918.489	-0.01
918.914	-0.01
919.339	-0.01
919.764	-0.01
920.189	-0.01
920.614	-0.01
921.039	-0.01
921.464	-0.01
921.889	-0.01
922.314	-0.01
922.738	-0.01
923.163	-0.01
923.588	-0.01
924.013	-0.01
924.437	-0.01
924.862	-0.01
925.287	-0.01
925.711	-0.01
926.136	-0.01
926.561	-0.01
926.985	-0.01
927.41	-0.01
927.834	-0.01
928.259	-0.01
928.683	-0.01
929.108	-0.01
929.532	-0.01
929.956	-0.02
930.381	-0.02
930.805	-0.02
931.229	-0.02
931.653	-0.02
932.078	-0.02
932.502	-0.02
932.926	-0.02
933.35	-0.02
933.774	-0.02
934.198	-0.02
934.622	-0.02
935.046	-0.02
935.47	-0.02
935.894	-0.02
936.318	-0.02
936.742	-0.02
937.166	-0.02
937.59	-0.02
938.014	-0.02
938.437	-0.02
938.861	-0.02
939.285	-0.02
939.709	-0.02
940.132	-0.02
940.556	-0.02
940.98	-0.02
941.403	-0.02
941.827	-0.02
942.25	-0.02
942.674	-0.02
943.097	-0.02
943.521	-0.02
943.944	-0.02
944.368	-0.02
944.791	-0.02
945.214	-0.02
945.638	-0.02
946.061	-0.02
946.484	-0.02
946.907	-0.02
947.331	-0.02
947.754	-0.02
948.177	-0.02
948.6	-0.02
949.023	-0.02
949.446	-0.02
949.869	-0.02
950.292	-0.02
950.715	-0.02
951.138	-0.02
951.561	-0.02
951.984	-0.02
952.407	-0.02
952.83	-0.02
953.252	-0.02
953.675	-0.02
954.098	-0.02
954.521	-0.02
954.943	-0.02
955.366	-0.02
955.789	-0.02
956.211	-0.02
956.634	-0.02
957.056	-0.02
957.479	-0.02
957.902	-0.02
958.324	-0.02
958.746	-0.02
959.169	-0.02
959.591	-0.02
960.014	-0.02
960.436	-0.02
960.858	-0.02
961.281	-0.02
961.703	-0.02
962.125	-0.02
962.547	-0.02
962.969	-0.02
963.391	-0.02
963.814	-0.02
964.236	-0.02
964.658	-0.02
965.08	-0.02
965.502	-0.02
965.924	-0.02
966.346	-0.02
966.768	-0.02
967.189	-0.02
967.611	-0.02
968.033	-0.02
968.455	-0.02
968.877	-0.02
969.298	-0.02
969.72	-0.02
970.142	-0.02
970.563	-0.02
970.985	-0.02
971.407	-0.02
971.828	-0.02
972.25	-0.02
972.671	-0.02
973.093	-0.02
973.514	-0.02
973.936	-0.02
974.357	-0.02
974.778	-0.02
975.2	-0.02
975.621	-0.02
976.042	-0.02
976.464	-0.02
976.885	-0.02
977.306	-0.02
977.727	-0.02
978.148	-0.02
978.57	-0.02
978.991	-0.02
979.412	-0.01
979.833	-0.01
980.254	-0.01
980.675	-0.01
981.096	-0.01
981.517	-0.01
981.937	-0.01
982.358	-0.01
982.779	-0.01
983.2	-0.02
983.621	-0.02
984.042	-0.02
984.462	-0.02
984.883	-0.02
985.304	-0.02
985.724	-0.02
986.145	-0.02
986.565	-0.02
986.986	-0.02
987.407	-0.02
987.827	-0.02
988.248	-0.02
988.668	-0.02
989.088	-0.02
989.509	-0.01
989.929	-0.01
990.35	-0.01
990.77	-0.01
991.19	-0.01
991.61	-0.01
992.031	-0.01
992.451	-0.01
992.871	-0.01
993.291	-0.01
993.711	-0.01
994.131	-0.01
994.551	-0.01
994.971	-0.01
995.391	-0.01
995.811	-0.01
996.231	-0.01
996.651	-0.01
997.071	-0.01
997.491	-0.01
997.911	-0.01
998.331	-0.01
998.75	-0.01
999.17	-0.01
999.59	-0.01
1000.009	-0.01
1000.429	-0.01
1000.849	-0.02
1001.268	-0.02
1001.688	-0.02
1002.107	-0.02
1002.527	-0.02
1002.946	-0.02
1003.366	-0.02
1003.785	-0.02
1004.205	-0.02
1004.624	-0.02
1005.044	-0.02
1005.463	-0.02
1005.882	-0.02
1006.301	-0.02
1006.721	-0.02
1007.14	-0.02
1007.559	-0.02
1007.978	-0.03
1008.397	-0.03
1008.816	-0.03
1009.235	-0.03
1009.655	-0.03
1010.074	-0.03
1010.492	-0.03
1010.911	-0.03
1011.33	-0.03
1011.749	-0.03
1012.168	-0.03
1012.587	-0.03
1013.006	-0.03
1013.425	-0.03
1013.843	-0.03
1014.262	-0.03
1014.681	-0.03
1015.099	-0.03
1015.518	-0.03
1015.937	-0.03
1016.355	-0.03
1016.774	-0.03
1017.192	-0.03
1017.611	-0.02
1018.029	-0.02
1018.448	-0.02
1018.866	-0.02
1019.285	-0.02
1019.703	-0.02
1020.121	-0.02
1020.54	-0.02
1020.958	-0.02
1021.376	-0.02
1021.794	-0.02
1022.213	-0.02
1022.631	-0.02
1023.049	-0.02
1023.467	-0.02
1023.885	-0.02
1024.303	-0.02
1024.721	-0.02
1025.139	-0.02
1025.557	-0.02
1025.975	-0.02
1026.393	-0.02
1026.811	-0.02
1027.229	-0.02
1027.647	-0.02
1028.065	-0.02
1028.482	-0.02
1028.9	-0.02
1029.318	-0.02
1029.735	-0.02
1030.153	-0.02
1030.571	-0.02
1030.988	-0.02
1031.406	-0.02
1031.823	-0.02
1032.241	-0.02
1032.659	-0.02
1033.076	-0.02
1033.493	-0.02
1033.911	-0.02
1034.328	-0.02
1034.746	-0.02
1035.163	-0.02
1035.58	-0.02
1035.997	-0.02
1036.415	-0.02
1036.832	-0.02
1037.249	-0.02
1037.666	-0.02
1038.083	-0.02
1038.501	-0.02
1038.918	-0.02
1039.335	-0.02
1039.752	-0.02
1040.169	-0.02
1040.586	-0.02
1041.003	-0.02
1041.419	-0.02
1041.836	-0.02
1042.253	-0.02
1042.67	-0.02
1043.087	-0.02
1043.504	-0.02
1043.92	-0.02
1044.337	-0.02
1044.754	-0.02
1045.17	-0.02
1045.587	-0.02
1046.004	-0.02
1046.42	-0.02
1046.837	-0.02
1047.253	-0.02
1047.67	-0.02
1048.086	-0.02
1048.503	-0.02
1048.919	-0.02
1049.335	-0.02
1049.752	-0.02
1050.168	-0.02
1050.584	-0.02
1051.001	-0.02
1051.417	-0.02
1051.833	-0.02
1052.249	-0.02
1052.665	-0.02
1053.081	-0.02
1053.497	-0.02
1053.914	-0.02
1054.33	-0.02
1054.746	-0.02
1055.162	-0.02
1055.578	-0.02
1055.993	-0.02
1056.409	-0.02
1056.825	-0.02
1057.241	-0.02
1057.657	-0.02
1058.073	-0.02
1058.488	-0.02
1058.904	-0.02
1059.32	-0.02
1059.736	-0.02
1060.151	-0.03
1060.567	-0.03
1060.982	-0.03
1061.398	-0.03
1061.813	-0.03
1062.229	-0.03
1062.644	-0.03
1063.06	-0.03
1063.475	-0.03
1063.891	-0.03
1064.306	-0.03
1064.721	-0.03
1065.137	-0.03
1065.552	-0.03
1065.967	-0.03
1066.382	-0.03
1066.798	-0.03
1067.213	-0.03
1067.628	-0.03
1068.043	-0.03
1068.458	-0.03
1068.873	-0.03
1069.288	-0.03
1069.703	-0.03
1070.118	-0.03
1070.533	-0.03
1070.948	-0.03
1071.363	-0.03
1071.778	-0.03
1072.193	-0.03
1072.607	-0.03
1073.022	-0.03
1073.437	-0.03
1073.852	-0.03
1074.266	-0.03
1074.681	-0.03
1075.096	-0.03
1075.51	-0.03
1075.925	-0.03
1076.339	-0.03
1076.754	-0.03
1077.168	-0.03
1077.583	-0.03
1077.997	-0.04
1078.412	-0.04
1078.826	-0.04
1079.24	-0.04
1079.655	-0.04
1080.069	-0.03
1080.483	-0.03
1080.897	-0.03
1081.312	-0.03
1081.726	-0.03
1082.14	-0.03
1082.554	-0.03
1082.968	-0.03
1083.382	-0.03
1083.796	-0.03
1084.21	-0.03
1084.624	-0.03
1085.038	-0.03
1085.452	-0.03
1085.866	-0.03
1086.28	-0.03
1086.694	-0.03
1087.108	-0.03
1087.521	-0.04
1087.935	-0.04
1088.349	-0.04
1088.763	-0.04
1089.176	-0.04
1089.59	-0.04
1090.004	-0.04
1090.417	-0.04
1090.831	-0.04
1091.244	-0.04
1091.658	-0.04
1092.071	-0.04
1092.485	-0.04
1092.898	-0.04
1093.312	-0.04
1093.725	-0.04
1094.138	-0.04
1094.552	-0.04
1094.965	-0.04
1095.378	-0.04
1095.791	-0.04
1096.205	-0.04
1096.618	-0.04
1097.031	-0.05
1097.444	-0.05
1097.857	-0.05
1098.27	-0.05
1098.683	-0.05
1099.096	-0.05
1099.509	-0.05
1099.922	-0.05
1100.335	-0.05
1100.748	-0.05
1101.161	-0.05
1101.574	-0.05
1101.986	-0.05
1102.399	-0.05
1102.812	-0.05
1103.225	-0.06
1103.637	-0.06
1104.05	-0.06
1104.463	-0.06
1104.875	-0.06
1105.288	-0.06
1105.7	-0.06
1106.113	-0.06
1106.525	-0.06
1106.938	-0.07
1107.35	-0.07
1107.763	-0.07
1108.175	-0.07
1108.588	-0.07
1109	-0.07
1109.412	-0.07
1109.824	-0.07
1110.237	-0.07
1110.649	-0.07
1111.061	-0.07
