Data from 2024-02-06-100ns-20nr-25nacl-100h2o-7bp2-2_0a808-40to10hyt-0_5cpm_Absorbance__126__00386.txt Node

Date: Tue Feb 06 14:20:36 CET 2024
User: Laser008
Spectrometer: MAYP115816
Trigger mode: 0
Integration Time (sec): 2.000000E-1
Scans to average: 10
Electric dark correction enabled: true
Nonlinearity correction enabled: true
Boxcar width: 5
XAxis mode: Wavelengths
Number of Pixels in Spectrum: 2068
>>>>>Begin Spectral Data<<<<<
198.914	-1.52
199.384	-1.38
199.855	-1.25
200.325	-1.15
200.796	-1.08
201.266	-1.04
201.737	-0.97
202.207	-0.92
202.677	-0.87
203.147	-0.83
203.618	-0.81
204.088	-0.79
204.558	-0.77
205.028	-0.76
205.498	-0.76
205.968	-0.76
206.439	-0.76
206.909	-0.75
207.379	-0.75
207.849	-0.75
208.319	-0.75
208.789	-0.74
209.258	-0.75
209.728	-0.74
210.198	-0.74
210.668	-0.74
211.138	-0.74
211.608	-0.74
212.077	-0.74
212.547	-0.74
213.017	-0.74
213.486	-0.74
213.956	-0.74
214.426	-0.74
214.895	-0.74
215.365	-0.74
215.834	-0.74
216.304	-0.73
216.773	-0.73
217.243	-0.73
217.712	-0.72
218.181	-0.72
218.651	-0.72
219.12	-0.71
219.589	-0.71
220.058	-0.71
220.528	-0.7
220.997	-0.7
221.466	-0.7
221.935	-0.7
222.404	-0.69
222.873	-0.69
223.342	-0.69
223.812	-0.68
224.281	-0.68
224.749	-0.67
225.218	-0.66
225.687	-0.66
226.156	-0.64
226.625	-0.63
227.094	-0.62
227.563	-0.61
228.031	-0.59
228.5	-0.57
228.969	-0.55
229.438	-0.53
229.906	-0.5
230.375	-0.47
230.844	-0.44
231.312	-0.41
231.781	-0.38
232.249	-0.34
232.718	-0.3
233.186	-0.26
233.655	-0.22
234.123	-0.17
234.591	-0.13
235.06	-0.09
235.528	-0.05
235.996	-0.01
236.465	0.02
236.933	0.06
237.401	0.09
237.869	0.12
238.337	0.15
238.805	0.18
239.274	0.2
239.742	0.23
240.21	0.25
240.678	0.27
241.146	0.29
241.614	0.3
242.081	0.32
242.549	0.33
243.017	0.34
243.485	0.36
243.953	0.37
244.421	0.38
244.888	0.39
245.356	0.39
245.824	0.4
246.291	0.41
246.759	0.41
247.227	0.42
247.694	0.43
248.162	0.43
248.629	0.44
249.097	0.44
249.564	0.45
250.032	0.45
250.499	0.46
250.967	0.46
251.434	0.46
251.901	0.47
252.369	0.47
252.836	0.48
253.303	0.48
253.77	0.48
254.237	0.48
254.705	0.49
255.172	0.49
255.639	0.49
256.106	0.49
256.573	0.5
257.04	0.5
257.507	0.5
257.974	0.5
258.441	0.5
258.908	0.5
259.375	0.5
259.841	0.5
260.308	0.5
260.775	0.5
261.242	0.5
261.709	0.5
262.175	0.5
262.642	0.5
263.109	0.5
263.575	0.5
264.042	0.5
264.508	0.5
264.975	0.5
265.441	0.5
265.908	0.5
266.374	0.5
266.841	0.5
267.307	0.5
267.773	0.49
268.24	0.49
268.706	0.49
269.172	0.49
269.639	0.49
270.105	0.49
270.571	0.48
271.037	0.48
271.503	0.48
271.969	0.48
272.435	0.47
272.902	0.47
273.368	0.47
273.834	0.47
274.3	0.47
274.765	0.46
275.231	0.46
275.697	0.46
276.163	0.45
276.629	0.45
277.095	0.45
277.56	0.45
278.026	0.44
278.492	0.44
278.958	0.44
279.423	0.43
279.889	0.43
280.354	0.43
280.82	0.42
281.286	0.42
281.751	0.42
282.217	0.42
282.682	0.41
283.147	0.41
283.613	0.41
284.078	0.41
284.544	0.4
285.009	0.4
285.474	0.4
285.939	0.4
286.405	0.39
286.87	0.39
287.335	0.39
287.8	0.39
288.265	0.38
288.73	0.38
289.195	0.38
289.66	0.38
290.125	0.38
290.59	0.37
291.055	0.37
291.52	0.37
291.985	0.37
292.45	0.37
292.915	0.37
293.38	0.36
293.844	0.36
294.309	0.36
294.774	0.36
295.239	0.36
295.703	0.35
296.168	0.35
296.632	0.35
297.097	0.35
297.562	0.35
298.026	0.35
298.491	0.35
298.955	0.34
299.419	0.34
299.884	0.34
300.348	0.34
300.813	0.34
301.277	0.34
301.741	0.34
302.205	0.34
302.67	0.34
303.134	0.33
303.598	0.33
304.062	0.33
304.526	0.33
304.99	0.33
305.454	0.33
305.919	0.33
306.383	0.33
306.847	0.33
307.31	0.32
307.774	0.32
308.238	0.32
308.702	0.32
309.166	0.32
309.63	0.32
310.094	0.32
310.557	0.32
311.021	0.32
311.485	0.31
311.948	0.31
312.412	0.31
312.876	0.31
313.339	0.31
313.803	0.31
314.266	0.31
314.73	0.31
315.193	0.31
315.657	0.31
316.12	0.3
316.584	0.3
317.047	0.3
317.51	0.3
317.973	0.3
318.437	0.3
318.9	0.3
319.363	0.3
319.826	0.3
320.29	0.3
320.753	0.3
321.216	0.29
321.679	0.29
322.142	0.29
322.605	0.29
323.068	0.29
323.531	0.29
323.994	0.29
324.457	0.29
324.92	0.29
325.382	0.29
325.845	0.29
326.308	0.28
326.771	0.28
327.233	0.28
327.696	0.28
328.159	0.28
328.622	0.28
329.084	0.28
329.547	0.28
330.009	0.28
330.472	0.28
330.934	0.28
331.397	0.28
331.859	0.28
332.322	0.27
332.784	0.27
333.246	0.27
333.709	0.27
334.171	0.27
334.633	0.27
335.096	0.27
335.558	0.27
336.02	0.27
336.482	0.27
336.944	0.27
337.406	0.27
337.868	0.27
338.331	0.26
338.793	0.26
339.255	0.26
339.717	0.26
340.178	0.26
340.64	0.26
341.102	0.26
341.564	0.26
342.026	0.26
342.488	0.26
342.949	0.26
343.411	0.26
343.873	0.26
344.335	0.26
344.796	0.26
345.258	0.26
345.719	0.26
346.181	0.26
346.643	0.26
347.104	0.26
347.566	0.25
348.027	0.25
348.488	0.25
348.95	0.25
349.411	0.25
349.873	0.25
350.334	0.25
350.795	0.25
351.256	0.25
351.718	0.25
352.179	0.25
352.64	0.25
353.101	0.25
353.562	0.25
354.023	0.25
354.484	0.25
354.945	0.25
355.406	0.25
355.867	0.25
356.328	0.25
356.789	0.25
357.25	0.25
357.711	0.25
358.172	0.25
358.633	0.25
359.093	0.25
359.554	0.25
360.015	0.25
360.476	0.25
360.936	0.25
361.397	0.25
361.858	0.25
362.318	0.25
362.779	0.25
363.239	0.25
363.7	0.24
364.16	0.24
364.621	0.24
365.081	0.24
365.541	0.24
366.002	0.24
366.462	0.24
366.922	0.24
367.383	0.24
367.843	0.24
368.303	0.24
368.763	0.24
369.223	0.24
369.684	0.24
370.144	0.24
370.604	0.24
371.064	0.24
371.524	0.24
371.984	0.24
372.444	0.24
372.904	0.24
373.363	0.24
373.823	0.24
374.283	0.24
374.743	0.24
375.203	0.24
375.663	0.24
376.122	0.24
376.582	0.24
377.042	0.24
377.501	0.24
377.961	0.24
378.42	0.24
378.88	0.24
379.34	0.24
379.799	0.24
380.259	0.24
380.718	0.23
381.177	0.23
381.637	0.23
382.096	0.23
382.555	0.23
383.015	0.23
383.474	0.23
383.933	0.23
384.393	0.23
384.852	0.23
385.311	0.23
385.77	0.23
386.229	0.23
386.688	0.23
387.147	0.23
387.606	0.23
388.065	0.23
388.524	0.23
388.983	0.23
389.442	0.23
389.901	0.23
390.36	0.23
390.819	0.23
391.277	0.23
391.736	0.23
392.195	0.23
392.654	0.23
393.112	0.23
393.571	0.23
394.03	0.22
394.488	0.22
394.947	0.22
395.405	0.22
395.864	0.22
396.322	0.22
396.781	0.22
397.239	0.22
397.698	0.22
398.156	0.22
398.614	0.22
399.073	0.22
399.531	0.22
399.989	0.22
400.447	0.22
400.905	0.22
401.364	0.22
401.822	0.22
402.28	0.22
402.738	0.22
403.196	0.22
403.654	0.22
404.112	0.22
404.57	0.22
405.028	0.22
405.486	0.22
405.944	0.22
406.402	0.22
406.859	0.22
407.317	0.22
407.775	0.21
408.233	0.21
408.691	0.21
409.148	0.21
409.606	0.21
410.064	0.21
410.521	0.21
410.979	0.21
411.436	0.21
411.894	0.21
412.351	0.21
412.809	0.21
413.266	0.21
413.724	0.21
414.181	0.21
414.638	0.21
415.096	0.21
415.553	0.21
416.01	0.21
416.467	0.21
416.925	0.21
417.382	0.21
417.839	0.21
418.296	0.21
418.753	0.21
419.21	0.21
419.667	0.21
420.124	0.21
420.581	0.21
421.038	0.21
421.495	0.21
421.952	0.21
422.409	0.21
422.866	0.21
423.322	0.21
423.779	0.21
424.236	0.21
424.693	0.21
425.149	0.2
425.606	0.2
426.063	0.2
426.519	0.2
426.976	0.2
427.433	0.2
427.889	0.2
428.346	0.2
428.802	0.2
429.258	0.2
429.715	0.2
430.171	0.2
430.628	0.2
431.084	0.2
431.54	0.2
431.997	0.2
432.453	0.2
432.909	0.2
433.365	0.2
433.821	0.2
434.277	0.2
434.734	0.2
435.19	0.2
435.646	0.2
436.102	0.2
436.558	0.2
437.014	0.2
437.47	0.2
437.925	0.2
438.381	0.2
438.837	0.2
439.293	0.2
439.749	0.2
440.205	0.2
440.66	0.2
441.116	0.2
441.572	0.2
442.027	0.2
442.483	0.2
442.939	0.2
443.394	0.2
443.85	0.2
444.305	0.2
444.761	0.2
445.216	0.2
445.672	0.2
446.127	0.2
446.582	0.2
447.038	0.2
447.493	0.2
447.948	0.2
448.403	0.2
448.859	0.2
449.314	0.2
449.769	0.2
450.224	0.2
450.679	0.2
451.134	0.2
451.589	0.2
452.044	0.2
452.499	0.2
452.954	0.2
453.409	0.2
453.864	0.2
454.319	0.2
454.774	0.2
455.229	0.2
455.684	0.2
456.138	0.2
456.593	0.2
457.048	0.2
457.503	0.2
457.957	0.2
458.412	0.2
458.866	0.2
459.321	0.2
459.776	0.2
460.23	0.2
460.685	0.2
461.139	0.2
461.593	0.2
462.048	0.2
462.502	0.2
462.957	0.2
463.411	0.2
463.865	0.2
464.319	0.2
464.774	0.2
465.228	0.2
465.682	0.2
466.136	0.2
466.59	0.2
467.044	0.2
467.499	0.2
467.953	0.2
468.407	0.2
468.861	0.2
469.315	0.2
469.768	0.2
470.222	0.2
470.676	0.2
471.13	0.2
471.584	0.2
472.038	0.2
472.491	0.2
472.945	0.2
473.399	0.2
473.852	0.2
474.306	0.2
474.76	0.2
475.213	0.2
475.667	0.2
476.12	0.21
476.574	0.21
477.027	0.21
477.481	0.21
477.934	0.21
478.388	0.21
478.841	0.21
479.294	0.21
479.748	0.21
480.201	0.21
480.654	0.21
481.107	0.22
481.561	0.22
482.014	0.22
482.467	0.22
482.92	0.22
483.373	0.22
483.826	0.22
484.279	0.23
484.732	0.23
485.185	0.23
485.638	0.23
486.091	0.23
486.544	0.23
486.997	0.23
487.449	0.23
487.902	0.23
488.355	0.23
488.808	0.23
489.26	0.24
489.713	0.24
490.166	0.24
490.618	0.24
491.071	0.24
491.523	0.24
491.976	0.24
492.429	0.24
492.881	0.25
493.333	0.25
493.786	0.25
494.238	0.25
494.691	0.25
495.143	0.25
495.595	0.26
496.048	0.26
496.5	0.26
496.952	0.26
497.404	0.26
497.856	0.26
498.309	0.27
498.761	0.27
499.213	0.27
499.665	0.27
500.117	0.27
500.569	0.28
501.021	0.28
501.473	0.28
501.925	0.28
502.377	0.29
502.828	0.29
503.28	0.29
503.732	0.29
504.184	0.29
504.636	0.29
505.087	0.3
505.539	0.3
505.991	0.3
506.442	0.3
506.894	0.3
507.345	0.3
507.797	0.31
508.249	0.31
508.7	0.31
509.151	0.31
509.603	0.31
510.054	0.31
510.506	0.31
510.957	0.32
511.408	0.32
511.86	0.32
512.311	0.32
512.762	0.32
513.213	0.32
513.665	0.32
514.116	0.32
514.567	0.32
515.018	0.32
515.469	0.32
515.92	0.32
516.371	0.32
516.822	0.33
517.273	0.33
517.724	0.33
518.175	0.33
518.626	0.33
519.076	0.33
519.527	0.33
519.978	0.33
520.429	0.32
520.88	0.32
521.33	0.32
521.781	0.32
522.232	0.32
522.682	0.32
523.133	0.32
523.583	0.32
524.034	0.33
524.484	0.33
524.935	0.33
525.385	0.33
525.836	0.33
526.286	0.33
526.736	0.33
527.187	0.33
527.637	0.33
528.087	0.33
528.538	0.33
528.988	0.33
529.438	0.33
529.888	0.33
530.338	0.33
530.788	0.33
531.238	0.33
531.688	0.32
532.139	0.32
532.589	0.32
533.038	0.32
533.488	0.32
533.938	0.32
534.388	0.31
534.838	0.31
535.288	0.31
535.738	0.31
536.187	0.31
536.637	0.31
537.087	0.3
537.537	0.3
537.986	0.3
538.436	0.3
538.885	0.3
539.335	0.3
539.785	0.29
540.234	0.29
540.684	0.29
541.133	0.29
541.582	0.28
542.032	0.28
542.481	0.28
542.931	0.28
543.38	0.27
543.829	0.27
544.278	0.27
544.728	0.27
545.177	0.26
545.626	0.26
546.075	0.26
546.524	0.26
546.973	0.25
547.422	0.25
547.871	0.25
548.32	0.24
548.769	0.24
549.218	0.24
549.667	0.23
550.116	0.23
550.565	0.23
551.014	0.22
551.463	0.22
551.911	0.22
552.36	0.22
552.809	0.21
553.258	0.21
553.706	0.21
554.155	0.21
554.603	0.2
555.052	0.2
555.501	0.2
555.949	0.19
556.398	0.19
556.846	0.19
557.294	0.19
557.743	0.18
558.191	0.18
558.64	0.18
559.088	0.17
559.536	0.17
559.985	0.17
560.433	0.17
560.881	0.17
561.329	0.16
561.777	0.16
562.225	0.16
562.674	0.16
563.122	0.16
563.57	0.15
564.018	0.15
564.466	0.15
564.914	0.14
565.362	0.14
565.809	0.14
566.257	0.14
566.705	0.14
567.153	0.13
567.601	0.13
568.048	0.13
568.496	0.13
568.944	0.13
569.392	0.13
569.839	0.13
570.287	0.13
570.734	0.13
571.182	0.12
571.63	0.12
572.077	0.12
572.525	0.12
572.972	0.12
573.419	0.12
573.867	0.12
574.314	0.11
574.761	0.11
575.209	0.11
575.656	0.11
576.103	0.11
576.551	0.11
576.998	0.11
577.445	0.1
577.892	0.1
578.339	0.1
578.786	0.1
579.233	0.1
579.68	0.1
580.127	0.1
580.574	0.1
581.021	0.09
581.468	0.09
581.915	0.09
582.362	0.09
582.809	0.09
583.255	0.09
583.702	0.09
584.149	0.08
584.596	0.08
585.042	0.08
585.489	0.08
585.936	0.08
586.382	0.08
586.829	0.08
587.275	0.08
587.722	0.07
588.168	0.07
588.615	0.07
589.061	0.07
589.508	0.07
589.954	0.07
590.4	0.07
590.847	0.07
591.293	0.07
591.739	0.07
592.185	0.07
592.632	0.07
593.078	0.07
593.524	0.07
593.97	0.07
594.416	0.07
594.862	0.06
595.308	0.06
595.754	0.06
596.2	0.06
596.646	0.06
597.092	0.06
597.538	0.06
597.984	0.06
598.43	0.06
598.876	0.06
599.321	0.06
599.767	0.06
600.213	0.06
600.659	0.06
601.104	0.06
601.55	0.06
601.995	0.06
602.441	0.06
602.887	0.06
603.332	0.06
603.778	0.06
604.223	0.06
604.668	0.06
605.114	0.06
605.559	0.06
606.005	0.06
606.45	0.06
606.895	0.06
607.341	0.06
607.786	0.06
608.231	0.06
608.676	0.06
609.121	0.06
609.566	0.06
610.012	0.06
610.457	0.06
610.902	0.06
611.347	0.06
611.792	0.06
612.237	0.06
612.682	0.06
613.127	0.06
613.571	0.06
614.016	0.06
614.461	0.06
614.906	0.06
615.351	0.06
615.795	0.06
616.24	0.06
616.685	0.06
617.129	0.06
617.574	0.06
618.019	0.06
618.463	0.06
618.908	0.06
619.352	0.06
619.797	0.06
620.241	0.06
620.686	0.06
621.13	0.06
621.574	0.06
622.019	0.06
622.463	0.07
622.907	0.07
623.352	0.07
623.796	0.07
624.24	0.07
624.684	0.07
625.128	0.07
625.572	0.07
626.016	0.07
626.461	0.07
626.905	0.07
627.349	0.07
627.793	0.07
628.236	0.08
628.68	0.08
629.124	0.08
629.568	0.08
630.012	0.08
630.456	0.08
630.9	0.08
631.343	0.08
631.787	0.08
632.231	0.08
632.674	0.08
633.118	0.08
633.562	0.09
634.005	0.09
634.449	0.09
634.892	0.09
635.336	0.09
635.779	0.1
636.223	0.1
636.666	0.1
637.109	0.1
637.553	0.1
637.996	0.1
638.439	0.11
638.883	0.11
639.326	0.11
639.769	0.11
640.212	0.11
640.655	0.12
641.099	0.12
641.542	0.12
641.985	0.12
642.428	0.12
642.871	0.13
643.314	0.13
643.757	0.13
644.2	0.13
644.643	0.14
645.085	0.14
645.528	0.14
645.971	0.14
646.414	0.15
646.857	0.15
647.299	0.16
647.742	0.16
648.185	0.16
648.627	0.17
649.07	0.17
649.513	0.17
649.955	0.18
650.398	0.18
650.84	0.18
651.283	0.19
651.725	0.19
652.168	0.19
652.61	0.2
653.052	0.2
653.495	0.21
653.937	0.16
654.379	0.13
654.821	0.14
655.264	0.14
655.706	0.14
656.148	0.15
656.59	0.15
657.032	0.15
657.474	0.15
657.916	0.15
658.358	0.14
658.8	0.18
659.242	0.24
659.684	0.25
660.126	0.25
660.568	0.25
661.01	0.26
661.452	0.26
661.894	0.26
662.335	0.27
662.777	0.27
663.219	0.27
663.661	0.28
664.102	0.28
664.544	0.28
664.985	0.29
665.427	0.29
665.869	0.29
666.31	0.3
666.752	0.3
667.193	0.3
667.634	0.31
668.076	0.31
668.517	0.31
668.959	0.32
669.4	0.32
669.841	0.32
670.282	0.33
670.724	0.33
671.165	0.33
671.606	0.34
672.047	0.34
672.488	0.34
672.929	0.34
673.37	0.35
673.811	0.35
674.252	0.35
674.693	0.35
675.134	0.35
675.575	0.35
676.016	0.36
676.457	0.36
676.898	0.36
677.339	0.36
677.78	0.36
678.22	0.37
678.661	0.37
679.102	0.37
679.542	0.37
679.983	0.37
680.424	0.37
680.864	0.37
681.305	0.37
681.745	0.37
682.186	0.38
682.626	0.38
683.067	0.38
683.507	0.38
683.948	0.38
684.388	0.38
684.828	0.38
685.269	0.38
685.709	0.38
686.149	0.38
686.589	0.38
687.029	0.38
687.47	0.38
687.91	0.38
688.35	0.38
688.79	0.38
689.23	0.38
689.67	0.37
690.11	0.37
690.55	0.37
690.99	0.37
691.43	0.37
691.87	0.37
692.31	0.37
692.749	0.37
693.189	0.37
693.629	0.36
694.069	0.36
694.508	0.36
694.948	0.36
695.388	0.36
695.827	0.36
696.267	0.35
696.706	0.35
697.146	0.35
697.586	0.35
698.025	0.35
698.464	0.35
698.904	0.34
699.343	0.34
699.783	0.34
700.222	0.34
700.661	0.33
701.101	0.33
701.54	0.33
701.979	0.33
702.418	0.33
702.857	0.32
703.297	0.32
703.736	0.32
704.175	0.32
704.614	0.31
705.053	0.31
705.492	0.31
705.931	0.31
706.37	0.3
706.809	0.3
707.248	0.3
707.687	0.3
708.125	0.29
708.564	0.29
709.003	0.29
709.442	0.29
709.88	0.28
710.319	0.28
710.758	0.28
711.196	0.27
711.635	0.27
712.074	0.27
712.512	0.26
712.951	0.26
713.389	0.26
713.828	0.25
714.266	0.25
714.705	0.25
715.143	0.24
715.581	0.24
716.02	0.24
716.458	0.23
716.896	0.23
717.334	0.23
717.773	0.23
718.211	0.22
718.649	0.22
719.087	0.22
719.525	0.21
719.963	0.21
720.401	0.21
720.839	0.2
721.277	0.2
721.715	0.2
722.153	0.2
722.591	0.19
723.029	0.19
723.467	0.19
723.905	0.19
724.342	0.19
724.78	0.18
725.218	0.18
725.656	0.18
726.093	0.18
726.531	0.18
726.969	0.17
727.406	0.17
727.844	0.17
728.281	0.17
728.719	0.16
729.156	0.16
729.594	0.16
730.031	0.16
730.469	0.16
730.906	0.15
731.343	0.15
731.781	0.15
732.218	0.15
732.655	0.14
733.092	0.14
733.53	0.14
733.967	0.14
734.404	0.13
734.841	0.13
735.278	0.13
735.715	0.13
736.152	0.12
736.589	0.12
737.026	0.12
737.463	0.12
737.9	0.11
738.337	0.11
738.774	0.11
739.211	0.11
739.647	0.1
740.084	0.1
740.521	0.1
740.958	0.1
741.394	0.1
741.831	0.09
742.268	0.09
742.704	0.09
743.141	0.09
743.577	0.08
744.014	0.08
744.45	0.08
744.887	0.08
745.323	0.07
745.76	0.07
746.196	0.07
746.632	0.07
747.069	0.07
747.505	0.07
747.941	0.07
748.378	0.06
748.814	0.06
749.25	0.06
749.686	0.06
750.122	0.06
750.558	0.06
750.994	0.06
751.43	0.06
751.866	0.06
752.302	0.05
752.738	0.05
753.174	0.05
753.61	0.05
754.046	0.05
754.482	0.05
754.918	0.05
755.354	0.05
755.789	0.04
756.225	0.04
756.661	0.04
757.096	0.04
757.532	0.04
757.968	0.04
758.403	0.04
758.839	0.04
759.274	0.04
759.71	0.03
760.145	0.03
760.581	0.03
761.016	0.03
761.452	0.03
761.887	0.03
762.322	0.03
762.758	0.03
763.193	0.02
763.628	0.02
764.063	0.02
764.499	0.02
764.934	0.02
765.369	0.02
765.804	0.02
766.239	0.01
766.674	0.01
767.109	0.01
767.544	0.01
767.979	0.01
768.414	0
768.849	0
769.284	0
769.719	0
770.154	-0
770.588	-0
771.023	-0.01
771.458	-0.01
771.893	-0.01
772.327	-0.01
772.762	-0.02
773.197	-0.02
773.631	-0.02
774.066	-0.02
774.5	-0.03
774.935	-0.03
775.369	-0.03
775.804	-0.03
776.238	-0.03
776.673	-0.04
777.107	-0.04
777.541	-0.04
777.976	-0.04
778.41	-0.05
778.844	-0.05
779.279	-0.05
779.713	-0.05
780.147	-0.06
780.581	-0.06
781.015	-0.06
781.449	-0.07
781.883	-0.07
782.317	-0.07
782.751	-0.08
783.185	-0.08
783.619	-0.09
784.053	-0.09
784.487	-0.1
784.921	-0.11
785.355	-0.11
785.789	-0.12
786.223	-0.12
786.656	-0.12
787.09	-0.12
787.524	-0.12
787.957	-0.12
788.391	-0.12
788.825	-0.13
789.258	-0.13
789.692	-0.12
790.125	-0.12
790.559	-0.12
790.992	-0.13
791.426	-0.13
791.859	-0.13
792.293	-0.11
792.726	-0.11
793.159	-0.1
793.593	-0.1
794.026	-0.1
794.459	-0.11
794.892	-0.11
795.326	-0.11
795.759	-0.11
796.192	-0.11
796.625	-0.12
797.058	-0.13
797.491	-0.14
797.924	-0.15
798.357	-0.15
798.79	-0.15
799.223	-0.15
799.656	-0.15
800.089	-0.15
800.522	-0.15
800.955	-0.15
801.387	-0.15
801.82	-0.15
802.253	-0.16
802.686	-0.16
803.118	-0.16
803.551	-0.16
803.984	-0.15
804.416	-0.14
804.849	-0.14
805.281	-0.14
805.714	-0.13
806.146	-0.13
806.579	-0.13
807.011	-0.13
807.444	-0.13
807.876	-0.13
808.308	-0.13
808.741	-0.14
809.173	-0.14
809.605	-0.15
810.037	-0.15
810.47	-0.15
810.902	-0.16
811.334	-0.16
811.766	-0.15
812.198	-0.15
812.63	-0.15
813.062	-0.15
813.494	-0.15
813.926	-0.16
814.358	-0.16
814.79	-0.15
815.222	-0.15
815.654	-0.15
816.086	-0.15
816.518	-0.15
816.949	-0.15
817.381	-0.15
817.813	-0.15
818.245	-0.14
818.676	-0.14
819.108	-0.13
819.54	-0.13
819.971	-0.13
820.403	-0.12
820.834	-0.11
821.266	-0.11
821.697	-0.1
822.129	-0.09
822.56	-0.09
822.991	-0.08
823.423	-0.08
823.854	-0.07
824.286	-0.07
824.717	-0.07
825.148	-0.06
825.579	-0.06
826.01	-0.06
826.442	-0.05
826.873	-0.05
827.304	-0.05
827.735	-0.05
828.166	-0.04
828.597	-0.04
829.028	-0.04
829.459	-0.04
829.89	-0.04
830.321	-0.04
830.752	-0.03
831.183	-0.03
831.613	-0.03
832.044	-0.03
832.475	-0.03
832.906	-0.03
833.336	-0.03
833.767	-0.03
834.198	-0.03
834.628	-0.03
835.059	-0.03
835.49	-0.03
835.92	-0.03
836.351	-0.03
836.781	-0.03
837.212	-0.03
837.642	-0.03
838.072	-0.03
838.503	-0.03
838.933	-0.03
839.364	-0.03
839.794	-0.03
840.224	-0.03
840.654	-0.03
841.085	-0.03
841.515	-0.03
841.945	-0.03
842.375	-0.03
842.805	-0.03
843.235	-0.03
843.665	-0.03
844.095	-0.03
844.525	-0.03
844.955	-0.03
845.385	-0.03
845.815	-0.03
846.245	-0.03
846.675	-0.03
847.105	-0.03
847.534	-0.03
847.964	-0.03
848.394	-0.03
848.824	-0.03
849.253	-0.03
849.683	-0.03
850.112	-0.03
850.542	-0.03
850.972	-0.03
851.401	-0.03
851.831	-0.03
852.26	-0.03
852.69	-0.03
853.119	-0.03
853.548	-0.02
853.978	-0.02
854.407	-0.02
854.836	-0.02
855.266	-0.02
855.695	-0.02
856.124	-0.02
856.553	-0.02
856.983	-0.02
857.412	-0.02
857.841	-0.02
858.27	-0.02
858.699	-0.02
859.128	-0.02
859.557	-0.02
859.986	-0.02
860.415	-0.02
860.844	-0.02
861.273	-0.02
861.702	-0.02
862.13	-0.02
862.559	-0.02
862.988	-0.02
863.417	-0.02
863.845	-0.02
864.274	-0.02
864.703	-0.02
865.131	-0.02
865.56	-0.02
865.989	-0.02
866.417	-0.02
866.846	-0.02
867.274	-0.02
867.703	-0.02
868.131	-0.02
868.559	-0.02
868.988	-0.02
869.416	-0.02
869.844	-0.02
870.273	-0.02
870.701	-0.02
871.129	-0.02
871.557	-0.02
871.986	-0.02
872.414	-0.02
872.842	-0.02
873.27	-0.02
873.698	-0.02
874.126	-0.02
874.554	-0.02
874.982	-0.02
875.41	-0.02
875.838	-0.02
876.266	-0.02
876.694	-0.02
877.122	-0.03
877.549	-0.03
877.977	-0.03
878.405	-0.03
878.833	-0.03
879.26	-0.03
879.688	-0.03
880.116	-0.03
880.543	-0.03
880.971	-0.03
881.399	-0.03
881.826	-0.03
882.254	-0.03
882.681	-0.03
883.109	-0.03
883.536	-0.03
883.963	-0.02
884.391	-0.02
884.818	-0.02
885.245	-0.02
885.673	-0.02
886.1	-0.02
886.527	-0.02
886.954	-0.02
887.381	-0.02
887.809	-0.02
888.236	-0.02
888.663	-0.02
889.09	-0.02
889.517	-0.02
889.944	-0.02
890.371	-0.02
890.798	-0.02
891.225	-0.02
891.652	-0.02
892.078	-0.02
892.505	-0.02
892.932	-0.02
893.359	-0.02
893.786	-0.02
894.212	-0.02
894.639	-0.02
895.066	-0.02
895.492	-0.02
895.919	-0.02
896.346	-0.03
896.772	-0.03
897.199	-0.03
897.625	-0.03
898.052	-0.03
898.478	-0.03
898.904	-0.03
899.331	-0.03
899.757	-0.03
900.183	-0.04
900.61	-0.04
901.036	-0.04
901.462	-0.04
901.888	-0.04
902.315	-0.04
902.741	-0.04
903.167	-0.03
903.593	-0.03
904.019	-0.03
904.445	-0.03
904.871	-0.03
905.297	-0.03
905.723	-0.03
906.149	-0.03
906.575	-0.03
907.001	-0.03
907.427	-0.03
907.852	-0.03
908.278	-0.03
908.704	-0.03
909.13	-0.03
909.555	-0.03
909.981	-0.03
910.407	-0.03
910.832	-0.03
911.258	-0.03
911.684	-0.03
912.109	-0.03
912.535	-0.03
912.96	-0.03
913.386	-0.03
913.811	-0.02
914.236	-0.03
914.662	-0.03
915.087	-0.03
915.512	-0.03
915.938	-0.03
916.363	-0.03
916.788	-0.03
917.213	-0.03
917.639	-0.03
918.064	-0.03
918.489	-0.03
918.914	-0.03
919.339	-0.03
919.764	-0.03
920.189	-0.03
920.614	-0.03
921.039	-0.02
921.464	-0.02
921.889	-0.02
922.314	-0.02
922.738	-0.02
923.163	-0.02
923.588	-0.02
924.013	-0.02
924.437	-0.02
924.862	-0.02
925.287	-0.02
925.711	-0.02
926.136	-0.02
926.561	-0.02
926.985	-0.02
927.41	-0.02
927.834	-0.02
928.259	-0.02
928.683	-0.02
929.108	-0.02
929.532	-0.02
929.956	-0.02
930.381	-0.02
930.805	-0.02
931.229	-0.03
931.653	-0.03
932.078	-0.03
932.502	-0.03
932.926	-0.03
933.35	-0.03
933.774	-0.03
934.198	-0.03
934.622	-0.03
935.046	-0.03
935.47	-0.03
935.894	-0.03
936.318	-0.03
936.742	-0.03
937.166	-0.03
937.59	-0.03
938.014	-0.03
938.437	-0.03
938.861	-0.03
939.285	-0.03
939.709	-0.03
940.132	-0.03
940.556	-0.03
940.98	-0.03
941.403	-0.03
941.827	-0.03
942.25	-0.03
942.674	-0.03
943.097	-0.03
943.521	-0.03
943.944	-0.03
944.368	-0.03
944.791	-0.03
945.214	-0.03
945.638	-0.03
946.061	-0.03
946.484	-0.03
946.907	-0.03
947.331	-0.03
947.754	-0.03
948.177	-0.03
948.6	-0.03
949.023	-0.03
949.446	-0.03
949.869	-0.03
950.292	-0.03
950.715	-0.03
951.138	-0.03
951.561	-0.03
951.984	-0.03
952.407	-0.03
952.83	-0.03
953.252	-0.03
953.675	-0.03
954.098	-0.03
954.521	-0.03
954.943	-0.03
955.366	-0.03
955.789	-0.03
956.211	-0.03
956.634	-0.03
957.056	-0.03
957.479	-0.03
957.902	-0.03
958.324	-0.02
958.746	-0.02
959.169	-0.02
959.591	-0.02
960.014	-0.02
960.436	-0.02
960.858	-0.02
961.281	-0.02
961.703	-0.02
962.125	-0.02
962.547	-0.02
962.969	-0.02
963.391	-0.02
963.814	-0.02
964.236	-0.02
964.658	-0.02
965.08	-0.02
965.502	-0.02
965.924	-0.02
966.346	-0.02
966.768	-0.02
967.189	-0.02
967.611	-0.02
968.033	-0.02
968.455	-0.02
968.877	-0.02
969.298	-0.02
969.72	-0.02
970.142	-0.03
970.563	-0.03
970.985	-0.03
971.407	-0.03
971.828	-0.03
972.25	-0.03
972.671	-0.03
973.093	-0.03
973.514	-0.03
973.936	-0.03
974.357	-0.03
974.778	-0.03
975.2	-0.03
975.621	-0.03
976.042	-0.02
976.464	-0.02
976.885	-0.02
977.306	-0.02
977.727	-0.02
978.148	-0.02
978.57	-0.02
978.991	-0.02
979.412	-0.02
979.833	-0.02
980.254	-0.02
980.675	-0.02
981.096	-0.02
981.517	-0.02
981.937	-0.02
982.358	-0.02
982.779	-0.02
983.2	-0.02
983.621	-0.02
984.042	-0.02
984.462	-0.02
984.883	-0.02
985.304	-0.02
985.724	-0.02
986.145	-0.02
986.565	-0.02
986.986	-0.02
987.407	-0.02
987.827	-0.02
988.248	-0.02
988.668	-0.02
989.088	-0.03
989.509	-0.03
989.929	-0.03
990.35	-0.03
990.77	-0.03
991.19	-0.03
991.61	-0.03
992.031	-0.03
992.451	-0.03
992.871	-0.03
993.291	-0.03
993.711	-0.03
994.131	-0.03
994.551	-0.03
994.971	-0.03
995.391	-0.03
995.811	-0.03
996.231	-0.03
996.651	-0.03
997.071	-0.03
997.491	-0.03
997.911	-0.03
998.331	-0.03
998.75	-0.03
999.17	-0.03
999.59	-0.03
1000.009	-0.03
1000.429	-0.03
1000.849	-0.03
1001.268	-0.03
1001.688	-0.03
1002.107	-0.03
1002.527	-0.03
1002.946	-0.03
1003.366	-0.03
1003.785	-0.03
1004.205	-0.03
1004.624	-0.03
1005.044	-0.03
1005.463	-0.03
1005.882	-0.03
1006.301	-0.03
1006.721	-0.03
1007.14	-0.03
1007.559	-0.03
1007.978	-0.03
1008.397	-0.03
1008.816	-0.03
1009.235	-0.03
1009.655	-0.03
1010.074	-0.03
1010.492	-0.03
1010.911	-0.03
1011.33	-0.03
1011.749	-0.03
1012.168	-0.03
1012.587	-0.03
1013.006	-0.03
1013.425	-0.03
1013.843	-0.03
1014.262	-0.03
1014.681	-0.03
1015.099	-0.04
1015.518	-0.04
1015.937	-0.04
1016.355	-0.04
1016.774	-0.04
1017.192	-0.04
1017.611	-0.04
1018.029	-0.04
1018.448	-0.04
1018.866	-0.04
1019.285	-0.04
1019.703	-0.04
1020.121	-0.04
1020.54	-0.04
1020.958	-0.04
1021.376	-0.04
1021.794	-0.04
1022.213	-0.04
1022.631	-0.04
1023.049	-0.04
1023.467	-0.04
1023.885	-0.04
1024.303	-0.04
1024.721	-0.04
1025.139	-0.04
1025.557	-0.04
1025.975	-0.04
1026.393	-0.04
1026.811	-0.04
1027.229	-0.03
1027.647	-0.03
1028.065	-0.03
1028.482	-0.03
1028.9	-0.03
1029.318	-0.03
1029.735	-0.03
1030.153	-0.03
1030.571	-0.03
1030.988	-0.03
1031.406	-0.03
1031.823	-0.03
1032.241	-0.03
1032.659	-0.03
1033.076	-0.03
1033.493	-0.03
1033.911	-0.03
1034.328	-0.03
1034.746	-0.03
1035.163	-0.03
1035.58	-0.03
1035.997	-0.03
1036.415	-0.03
1036.832	-0.03
1037.249	-0.03
1037.666	-0.03
1038.083	-0.03
1038.501	-0.03
1038.918	-0.03
1039.335	-0.03
1039.752	-0.03
1040.169	-0.03
1040.586	-0.03
1041.003	-0.03
1041.419	-0.03
1041.836	-0.03
1042.253	-0.03
1042.67	-0.03
1043.087	-0.03
1043.504	-0.03
1043.92	-0.03
1044.337	-0.03
1044.754	-0.03
1045.17	-0.03
1045.587	-0.03
1046.004	-0.03
1046.42	-0.03
1046.837	-0.03
1047.253	-0.03
1047.67	-0.03
1048.086	-0.03
1048.503	-0.03
1048.919	-0.03
1049.335	-0.03
1049.752	-0.03
1050.168	-0.02
1050.584	-0.02
1051.001	-0.02
1051.417	-0.02
1051.833	-0.02
1052.249	-0.02
1052.665	-0.02
1053.081	-0.02
1053.497	-0.02
1053.914	-0.02
1054.33	-0.03
1054.746	-0.03
1055.162	-0.03
1055.578	-0.03
1055.993	-0.03
1056.409	-0.03
1056.825	-0.03
1057.241	-0.03
1057.657	-0.03
1058.073	-0.03
1058.488	-0.03
1058.904	-0.03
1059.32	-0.03
1059.736	-0.03
1060.151	-0.03
1060.567	-0.04
1060.982	-0.03
1061.398	-0.03
1061.813	-0.03
1062.229	-0.03
1062.644	-0.03
1063.06	-0.03
1063.475	-0.03
1063.891	-0.03
1064.306	-0.03
1064.721	-0.03
1065.137	-0.03
1065.552	-0.03
1065.967	-0.03
1066.382	-0.03
1066.798	-0.03
1067.213	-0.03
1067.628	-0.03
1068.043	-0.03
1068.458	-0.03
1068.873	-0.03
1069.288	-0.03
1069.703	-0.03
1070.118	-0.03
1070.533	-0.03
1070.948	-0.03
1071.363	-0.03
1071.778	-0.03
1072.193	-0.03
1072.607	-0.03
1073.022	-0.03
1073.437	-0.03
1073.852	-0.03
1074.266	-0.03
1074.681	-0.03
1075.096	-0.03
1075.51	-0.03
1075.925	-0.03
1076.339	-0.03
1076.754	-0.03
1077.168	-0.03
1077.583	-0.03
1077.997	-0.03
1078.412	-0.03
1078.826	-0.03
1079.24	-0.03
1079.655	-0.03
1080.069	-0.02
1080.483	-0.02
1080.897	-0.02
1081.312	-0.02
1081.726	-0.02
1082.14	-0.02
1082.554	-0.02
1082.968	-0.02
1083.382	-0.02
1083.796	-0.02
1084.21	-0.02
1084.624	-0.02
1085.038	-0.02
1085.452	-0.01
1085.866	-0.01
1086.28	-0.01
1086.694	-0.01
1087.108	-0.01
1087.521	-0.01
1087.935	-0.01
1088.349	-0.01
1088.763	-0.01
1089.176	-0.01
1089.59	-0.01
1090.004	-0.01
1090.417	-0.01
1090.831	-0.01
1091.244	-0.01
1091.658	-0.01
1092.071	-0.01
1092.485	-0
1092.898	-0
1093.312	-0
1093.725	-0
1094.138	0
1094.552	0
1094.965	0
1095.378	0
1095.791	0.01
1096.205	0.01
1096.618	0.01
1097.031	0.01
1097.444	0.01
1097.857	0.02
1098.27	0.02
1098.683	0.02
1099.096	0.02
1099.509	0.03
1099.922	0.03
1100.335	0.03
1100.748	0.03
1101.161	0.04
1101.574	0.04
1101.986	0.05
1102.399	0.05
1102.812	0.06
1103.225	0.06
1103.637	0.07
1104.05	0.07
1104.463	0.08
1104.875	0.09
1105.288	0.09
1105.7	0.1
1106.113	0.11
1106.525	0.12
1106.938	0.13
1107.35	0.14
1107.763	0.18
1108.175	0.24
1108.588	0.32
1109	0.47
1109.412	0.59
1109.824	0.87
1110.237	-0
1110.649	-0
1111.061	-0
