Data from 2024-02-06-100ns-20nr-25nacl-100h2o-7bp2-2_0a808-40to10hyt-0_5cpm_Absorbance__82__00342.txt Node

Date: Tue Feb 06 13:58:37 CET 2024
User: Laser008
Spectrometer: MAYP115816
Trigger mode: 0
Integration Time (sec): 2.000000E-1
Scans to average: 10
Electric dark correction enabled: true
Nonlinearity correction enabled: true
Boxcar width: 5
XAxis mode: Wavelengths
Number of Pixels in Spectrum: 2068
>>>>>Begin Spectral Data<<<<<
198.914	-1.53
199.384	-1.39
199.855	-1.25
200.325	-1.16
200.796	-1.09
201.266	-1.04
201.737	-0.98
202.207	-0.92
202.677	-0.88
203.147	-0.84
203.618	-0.81
204.088	-0.79
204.558	-0.78
205.028	-0.77
205.498	-0.76
205.968	-0.76
206.439	-0.76
206.909	-0.75
207.379	-0.75
207.849	-0.75
208.319	-0.75
208.789	-0.75
209.258	-0.75
209.728	-0.74
210.198	-0.74
210.668	-0.74
211.138	-0.74
211.608	-0.74
212.077	-0.74
212.547	-0.74
213.017	-0.74
213.486	-0.74
213.956	-0.74
214.426	-0.74
214.895	-0.74
215.365	-0.74
215.834	-0.74
216.304	-0.73
216.773	-0.73
217.243	-0.73
217.712	-0.73
218.181	-0.72
218.651	-0.72
219.12	-0.72
219.589	-0.71
220.058	-0.71
220.528	-0.71
220.997	-0.7
221.466	-0.7
221.935	-0.7
222.404	-0.7
222.873	-0.69
223.342	-0.69
223.812	-0.68
224.281	-0.68
224.749	-0.67
225.218	-0.67
225.687	-0.66
226.156	-0.65
226.625	-0.64
227.094	-0.63
227.563	-0.61
228.031	-0.6
228.5	-0.58
228.969	-0.56
229.438	-0.53
229.906	-0.51
230.375	-0.48
230.844	-0.45
231.312	-0.41
231.781	-0.38
232.249	-0.34
232.718	-0.3
233.186	-0.26
233.655	-0.22
234.123	-0.18
234.591	-0.14
235.06	-0.1
235.528	-0.06
235.996	-0.02
236.465	0.02
236.933	0.05
237.401	0.08
237.869	0.11
238.337	0.14
238.805	0.17
239.274	0.19
239.742	0.22
240.21	0.24
240.678	0.26
241.146	0.28
241.614	0.29
242.081	0.31
242.549	0.32
243.017	0.33
243.485	0.34
243.953	0.36
244.421	0.36
244.888	0.37
245.356	0.38
245.824	0.39
246.291	0.4
246.759	0.4
247.227	0.41
247.694	0.42
248.162	0.42
248.629	0.43
249.097	0.43
249.564	0.44
250.032	0.44
250.499	0.44
250.967	0.45
251.434	0.45
251.901	0.46
252.369	0.46
252.836	0.46
253.303	0.47
253.77	0.47
254.237	0.47
254.705	0.47
255.172	0.48
255.639	0.48
256.106	0.48
256.573	0.48
257.04	0.48
257.507	0.48
257.974	0.49
258.441	0.49
258.908	0.49
259.375	0.49
259.841	0.49
260.308	0.49
260.775	0.49
261.242	0.49
261.709	0.49
262.175	0.49
262.642	0.49
263.109	0.49
263.575	0.49
264.042	0.49
264.508	0.49
264.975	0.49
265.441	0.48
265.908	0.48
266.374	0.48
266.841	0.48
267.307	0.48
267.773	0.48
268.24	0.48
268.706	0.47
269.172	0.47
269.639	0.47
270.105	0.47
270.571	0.47
271.037	0.46
271.503	0.46
271.969	0.46
272.435	0.46
272.902	0.46
273.368	0.45
273.834	0.45
274.3	0.45
274.765	0.45
275.231	0.44
275.697	0.44
276.163	0.44
276.629	0.44
277.095	0.43
277.56	0.43
278.026	0.43
278.492	0.43
278.958	0.42
279.423	0.42
279.889	0.42
280.354	0.41
280.82	0.41
281.286	0.41
281.751	0.4
282.217	0.4
282.682	0.4
283.147	0.4
283.613	0.4
284.078	0.39
284.544	0.39
285.009	0.39
285.474	0.39
285.939	0.38
286.405	0.38
286.87	0.38
287.335	0.38
287.8	0.38
288.265	0.37
288.73	0.37
289.195	0.37
289.66	0.37
290.125	0.37
290.59	0.36
291.055	0.36
291.52	0.36
291.985	0.36
292.45	0.36
292.915	0.35
293.38	0.35
293.844	0.35
294.309	0.35
294.774	0.35
295.239	0.35
295.703	0.34
296.168	0.34
296.632	0.34
297.097	0.34
297.562	0.34
298.026	0.34
298.491	0.34
298.955	0.33
299.419	0.33
299.884	0.33
300.348	0.33
300.813	0.33
301.277	0.33
301.741	0.33
302.205	0.33
302.67	0.33
303.134	0.33
303.598	0.32
304.062	0.32
304.526	0.32
304.99	0.32
305.454	0.32
305.919	0.32
306.383	0.32
306.847	0.32
307.31	0.32
307.774	0.31
308.238	0.31
308.702	0.31
309.166	0.31
309.63	0.31
310.094	0.31
310.557	0.31
311.021	0.31
311.485	0.31
311.948	0.31
312.412	0.3
312.876	0.3
313.339	0.3
313.803	0.3
314.266	0.3
314.73	0.3
315.193	0.3
315.657	0.3
316.12	0.3
316.584	0.3
317.047	0.29
317.51	0.29
317.973	0.29
318.437	0.29
318.9	0.29
319.363	0.29
319.826	0.29
320.29	0.29
320.753	0.29
321.216	0.29
321.679	0.29
322.142	0.28
322.605	0.28
323.068	0.28
323.531	0.28
323.994	0.28
324.457	0.28
324.92	0.28
325.382	0.28
325.845	0.28
326.308	0.28
326.771	0.28
327.233	0.28
327.696	0.27
328.159	0.27
328.622	0.27
329.084	0.27
329.547	0.27
330.009	0.27
330.472	0.27
330.934	0.27
331.397	0.27
331.859	0.27
332.322	0.27
332.784	0.27
333.246	0.27
333.709	0.26
334.171	0.26
334.633	0.26
335.096	0.26
335.558	0.26
336.02	0.26
336.482	0.26
336.944	0.26
337.406	0.26
337.868	0.26
338.331	0.26
338.793	0.26
339.255	0.26
339.717	0.26
340.178	0.26
340.64	0.25
341.102	0.25
341.564	0.25
342.026	0.25
342.488	0.25
342.949	0.25
343.411	0.25
343.873	0.25
344.335	0.25
344.796	0.25
345.258	0.25
345.719	0.25
346.181	0.25
346.643	0.25
347.104	0.25
347.566	0.25
348.027	0.25
348.488	0.25
348.95	0.25
349.411	0.25
349.873	0.25
350.334	0.24
350.795	0.24
351.256	0.24
351.718	0.24
352.179	0.24
352.64	0.24
353.101	0.24
353.562	0.24
354.023	0.24
354.484	0.24
354.945	0.24
355.406	0.24
355.867	0.24
356.328	0.24
356.789	0.24
357.25	0.24
357.711	0.24
358.172	0.24
358.633	0.24
359.093	0.24
359.554	0.24
360.015	0.24
360.476	0.24
360.936	0.24
361.397	0.24
361.858	0.24
362.318	0.24
362.779	0.24
363.239	0.24
363.7	0.24
364.16	0.24
364.621	0.24
365.081	0.24
365.541	0.24
366.002	0.24
366.462	0.24
366.922	0.24
367.383	0.24
367.843	0.24
368.303	0.24
368.763	0.23
369.223	0.23
369.684	0.23
370.144	0.23
370.604	0.23
371.064	0.23
371.524	0.23
371.984	0.23
372.444	0.23
372.904	0.23
373.363	0.23
373.823	0.23
374.283	0.23
374.743	0.23
375.203	0.23
375.663	0.23
376.122	0.23
376.582	0.23
377.042	0.23
377.501	0.23
377.961	0.23
378.42	0.23
378.88	0.23
379.34	0.23
379.799	0.23
380.259	0.23
380.718	0.23
381.177	0.23
381.637	0.23
382.096	0.23
382.555	0.23
383.015	0.23
383.474	0.23
383.933	0.23
384.393	0.22
384.852	0.22
385.311	0.22
385.77	0.22
386.229	0.22
386.688	0.22
387.147	0.22
387.606	0.22
388.065	0.22
388.524	0.22
388.983	0.22
389.442	0.22
389.901	0.22
390.36	0.22
390.819	0.22
391.277	0.22
391.736	0.22
392.195	0.22
392.654	0.22
393.112	0.22
393.571	0.22
394.03	0.22
394.488	0.22
394.947	0.22
395.405	0.22
395.864	0.22
396.322	0.22
396.781	0.22
397.239	0.22
397.698	0.22
398.156	0.22
398.614	0.22
399.073	0.22
399.531	0.21
399.989	0.21
400.447	0.21
400.905	0.21
401.364	0.21
401.822	0.21
402.28	0.21
402.738	0.21
403.196	0.21
403.654	0.21
404.112	0.21
404.57	0.21
405.028	0.21
405.486	0.21
405.944	0.21
406.402	0.21
406.859	0.21
407.317	0.21
407.775	0.21
408.233	0.21
408.691	0.21
409.148	0.21
409.606	0.21
410.064	0.21
410.521	0.21
410.979	0.21
411.436	0.21
411.894	0.21
412.351	0.21
412.809	0.2
413.266	0.2
413.724	0.2
414.181	0.2
414.638	0.2
415.096	0.2
415.553	0.2
416.01	0.2
416.467	0.2
416.925	0.2
417.382	0.2
417.839	0.2
418.296	0.2
418.753	0.2
419.21	0.2
419.667	0.2
420.124	0.2
420.581	0.2
421.038	0.2
421.495	0.2
421.952	0.2
422.409	0.2
422.866	0.2
423.322	0.2
423.779	0.2
424.236	0.2
424.693	0.2
425.149	0.2
425.606	0.2
426.063	0.2
426.519	0.2
426.976	0.2
427.433	0.2
427.889	0.2
428.346	0.2
428.802	0.2
429.258	0.2
429.715	0.2
430.171	0.2
430.628	0.2
431.084	0.2
431.54	0.2
431.997	0.2
432.453	0.2
432.909	0.2
433.365	0.19
433.821	0.19
434.277	0.19
434.734	0.19
435.19	0.19
435.646	0.19
436.102	0.19
436.558	0.19
437.014	0.19
437.47	0.19
437.925	0.19
438.381	0.19
438.837	0.19
439.293	0.19
439.749	0.19
440.205	0.19
440.66	0.19
441.116	0.19
441.572	0.19
442.027	0.19
442.483	0.19
442.939	0.19
443.394	0.19
443.85	0.19
444.305	0.19
444.761	0.19
445.216	0.19
445.672	0.19
446.127	0.19
446.582	0.19
447.038	0.19
447.493	0.19
447.948	0.19
448.403	0.19
448.859	0.19
449.314	0.19
449.769	0.19
450.224	0.19
450.679	0.19
451.134	0.19
451.589	0.19
452.044	0.19
452.499	0.19
452.954	0.19
453.409	0.19
453.864	0.19
454.319	0.19
454.774	0.19
455.229	0.19
455.684	0.19
456.138	0.19
456.593	0.19
457.048	0.19
457.503	0.19
457.957	0.19
458.412	0.19
458.866	0.19
459.321	0.19
459.776	0.19
460.23	0.19
460.685	0.19
461.139	0.19
461.593	0.19
462.048	0.19
462.502	0.19
462.957	0.19
463.411	0.19
463.865	0.19
464.319	0.19
464.774	0.19
465.228	0.19
465.682	0.19
466.136	0.19
466.59	0.19
467.044	0.19
467.499	0.19
467.953	0.19
468.407	0.19
468.861	0.19
469.315	0.19
469.768	0.19
470.222	0.19
470.676	0.19
471.13	0.19
471.584	0.19
472.038	0.19
472.491	0.19
472.945	0.19
473.399	0.19
473.852	0.2
474.306	0.2
474.76	0.2
475.213	0.2
475.667	0.2
476.12	0.2
476.574	0.2
477.027	0.2
477.481	0.2
477.934	0.2
478.388	0.2
478.841	0.2
479.294	0.2
479.748	0.21
480.201	0.21
480.654	0.21
481.107	0.21
481.561	0.21
482.014	0.21
482.467	0.21
482.92	0.21
483.373	0.22
483.826	0.22
484.279	0.22
484.732	0.22
485.185	0.22
485.638	0.22
486.091	0.22
486.544	0.22
486.997	0.23
487.449	0.23
487.902	0.23
488.355	0.23
488.808	0.23
489.26	0.23
489.713	0.23
490.166	0.23
490.618	0.23
491.071	0.23
491.523	0.23
491.976	0.24
492.429	0.24
492.881	0.24
493.333	0.24
493.786	0.24
494.238	0.24
494.691	0.25
495.143	0.25
495.595	0.25
496.048	0.25
496.5	0.25
496.952	0.26
497.404	0.26
497.856	0.26
498.309	0.26
498.761	0.26
499.213	0.26
499.665	0.27
500.117	0.27
500.569	0.27
501.021	0.27
501.473	0.28
501.925	0.28
502.377	0.28
502.828	0.28
503.28	0.29
503.732	0.29
504.184	0.29
504.636	0.29
505.087	0.29
505.539	0.29
505.991	0.3
506.442	0.3
506.894	0.3
507.345	0.3
507.797	0.3
508.249	0.3
508.7	0.3
509.151	0.31
509.603	0.31
510.054	0.31
510.506	0.31
510.957	0.31
511.408	0.31
511.86	0.31
512.311	0.32
512.762	0.32
513.213	0.32
513.665	0.32
514.116	0.32
514.567	0.32
515.018	0.32
515.469	0.32
515.92	0.32
516.371	0.32
516.822	0.32
517.273	0.32
517.724	0.32
518.175	0.33
518.626	0.33
519.076	0.32
519.527	0.32
519.978	0.32
520.429	0.32
520.88	0.32
521.33	0.32
521.781	0.32
522.232	0.32
522.682	0.32
523.133	0.32
523.583	0.32
524.034	0.32
524.484	0.32
524.935	0.32
525.385	0.33
525.836	0.33
526.286	0.33
526.736	0.33
527.187	0.33
527.637	0.33
528.087	0.33
528.538	0.33
528.988	0.33
529.438	0.33
529.888	0.33
530.338	0.33
530.788	0.32
531.238	0.32
531.688	0.32
532.139	0.32
532.589	0.32
533.038	0.32
533.488	0.32
533.938	0.32
534.388	0.31
534.838	0.31
535.288	0.31
535.738	0.31
536.187	0.31
536.637	0.31
537.087	0.3
537.537	0.3
537.986	0.3
538.436	0.3
538.885	0.3
539.335	0.3
539.785	0.29
540.234	0.29
540.684	0.29
541.133	0.29
541.582	0.28
542.032	0.28
542.481	0.28
542.931	0.28
543.38	0.27
543.829	0.27
544.278	0.27
544.728	0.26
545.177	0.26
545.626	0.26
546.075	0.26
546.524	0.26
546.973	0.25
547.422	0.25
547.871	0.25
548.32	0.24
548.769	0.24
549.218	0.24
549.667	0.23
550.116	0.23
550.565	0.23
551.014	0.22
551.463	0.22
551.911	0.22
552.36	0.22
552.809	0.21
553.258	0.21
553.706	0.21
554.155	0.21
554.603	0.2
555.052	0.2
555.501	0.2
555.949	0.19
556.398	0.19
556.846	0.19
557.294	0.18
557.743	0.18
558.191	0.18
558.64	0.18
559.088	0.17
559.536	0.17
559.985	0.17
560.433	0.17
560.881	0.17
561.329	0.16
561.777	0.16
562.225	0.16
562.674	0.16
563.122	0.15
563.57	0.15
564.018	0.15
564.466	0.15
564.914	0.14
565.362	0.14
565.809	0.14
566.257	0.14
566.705	0.14
567.153	0.13
567.601	0.13
568.048	0.13
568.496	0.13
568.944	0.13
569.392	0.13
569.839	0.13
570.287	0.13
570.734	0.13
571.182	0.12
571.63	0.12
572.077	0.12
572.525	0.12
572.972	0.12
573.419	0.12
573.867	0.12
574.314	0.11
574.761	0.11
575.209	0.11
575.656	0.11
576.103	0.11
576.551	0.11
576.998	0.11
577.445	0.1
577.892	0.1
578.339	0.1
578.786	0.1
579.233	0.1
579.68	0.1
580.127	0.1
580.574	0.09
581.021	0.09
581.468	0.09
581.915	0.09
582.362	0.09
582.809	0.09
583.255	0.09
583.702	0.08
584.149	0.08
584.596	0.08
585.042	0.08
585.489	0.08
585.936	0.08
586.382	0.08
586.829	0.08
587.275	0.08
587.722	0.07
588.168	0.07
588.615	0.07
589.061	0.07
589.508	0.07
589.954	0.07
590.4	0.07
590.847	0.07
591.293	0.07
591.739	0.07
592.185	0.07
592.632	0.07
593.078	0.07
593.524	0.07
593.97	0.06
594.416	0.06
594.862	0.06
595.308	0.06
595.754	0.06
596.2	0.06
596.646	0.06
597.092	0.06
597.538	0.06
597.984	0.06
598.43	0.06
598.876	0.06
599.321	0.06
599.767	0.06
600.213	0.06
600.659	0.06
601.104	0.06
601.55	0.06
601.995	0.06
602.441	0.06
602.887	0.06
603.332	0.06
603.778	0.06
604.223	0.06
604.668	0.06
605.114	0.06
605.559	0.06
606.005	0.06
606.45	0.06
606.895	0.06
607.341	0.06
607.786	0.06
608.231	0.06
608.676	0.06
609.121	0.06
609.566	0.06
610.012	0.06
610.457	0.06
610.902	0.06
611.347	0.06
611.792	0.06
612.237	0.06
612.682	0.06
613.127	0.06
613.571	0.06
614.016	0.06
614.461	0.06
614.906	0.06
615.351	0.06
615.795	0.06
616.24	0.06
616.685	0.06
617.129	0.06
617.574	0.06
618.019	0.06
618.463	0.06
618.908	0.06
619.352	0.06
619.797	0.06
620.241	0.06
620.686	0.06
621.13	0.06
621.574	0.06
622.019	0.06
622.463	0.06
622.907	0.06
623.352	0.07
623.796	0.07
624.24	0.07
624.684	0.07
625.128	0.07
625.572	0.07
626.016	0.07
626.461	0.07
626.905	0.07
627.349	0.07
627.793	0.07
628.236	0.07
628.68	0.07
629.124	0.07
629.568	0.07
630.012	0.08
630.456	0.08
630.9	0.08
631.343	0.08
631.787	0.08
632.231	0.08
632.674	0.08
633.118	0.08
633.562	0.08
634.005	0.09
634.449	0.09
634.892	0.09
635.336	0.09
635.779	0.09
636.223	0.09
636.666	0.1
637.109	0.1
637.553	0.1
637.996	0.1
638.439	0.1
638.883	0.11
639.326	0.11
639.769	0.11
640.212	0.11
640.655	0.11
641.099	0.11
641.542	0.11
641.985	0.12
642.428	0.12
642.871	0.12
643.314	0.12
643.757	0.13
644.2	0.13
644.643	0.13
645.085	0.13
645.528	0.14
645.971	0.14
646.414	0.14
646.857	0.15
647.299	0.15
647.742	0.15
648.185	0.15
648.627	0.16
649.07	0.16
649.513	0.16
649.955	0.17
650.398	0.17
650.84	0.17
651.283	0.18
651.725	0.18
652.168	0.18
652.61	0.19
653.052	0.19
653.495	0.2
653.937	0.16
654.379	0.13
654.821	0.13
655.264	0.14
655.706	0.14
656.148	0.14
656.59	0.14
657.032	0.14
657.474	0.15
657.916	0.15
658.358	0.14
658.8	0.18
659.242	0.23
659.684	0.24
660.126	0.24
660.568	0.25
661.01	0.25
661.452	0.25
661.894	0.26
662.335	0.26
662.777	0.26
663.219	0.27
663.661	0.27
664.102	0.28
664.544	0.28
664.985	0.28
665.427	0.29
665.869	0.29
666.31	0.29
666.752	0.3
667.193	0.3
667.634	0.3
668.076	0.31
668.517	0.31
668.959	0.31
669.4	0.32
669.841	0.32
670.282	0.32
670.724	0.33
671.165	0.33
671.606	0.33
672.047	0.33
672.488	0.34
672.929	0.34
673.37	0.34
673.811	0.34
674.252	0.35
674.693	0.35
675.134	0.35
675.575	0.35
676.016	0.36
676.457	0.36
676.898	0.36
677.339	0.36
677.78	0.36
678.22	0.37
678.661	0.37
679.102	0.37
679.542	0.37
679.983	0.37
680.424	0.37
680.864	0.37
681.305	0.37
681.745	0.37
682.186	0.37
682.626	0.38
683.067	0.38
683.507	0.38
683.948	0.38
684.388	0.38
684.828	0.38
685.269	0.38
685.709	0.38
686.149	0.38
686.589	0.38
687.029	0.38
687.47	0.38
687.91	0.38
688.35	0.38
688.79	0.38
689.23	0.38
689.67	0.38
690.11	0.38
690.55	0.38
690.99	0.38
691.43	0.38
691.87	0.38
692.31	0.37
692.749	0.37
693.189	0.37
693.629	0.37
694.069	0.37
694.508	0.37
694.948	0.37
695.388	0.37
695.827	0.36
696.267	0.36
696.706	0.36
697.146	0.36
697.586	0.36
698.025	0.36
698.464	0.36
698.904	0.35
699.343	0.35
699.783	0.35
700.222	0.35
700.661	0.34
701.101	0.34
701.54	0.34
701.979	0.34
702.418	0.33
702.857	0.33
703.297	0.33
703.736	0.33
704.175	0.32
704.614	0.32
705.053	0.32
705.492	0.32
705.931	0.31
706.37	0.31
706.809	0.31
707.248	0.31
707.687	0.3
708.125	0.3
708.564	0.3
709.003	0.3
709.442	0.29
709.88	0.29
710.319	0.29
710.758	0.28
711.196	0.28
711.635	0.28
712.074	0.27
712.512	0.27
712.951	0.27
713.389	0.27
713.828	0.26
714.266	0.26
714.705	0.26
715.143	0.26
715.581	0.25
716.02	0.25
716.458	0.25
716.896	0.25
717.334	0.24
717.773	0.24
718.211	0.24
718.649	0.23
719.087	0.23
719.525	0.23
719.963	0.23
720.401	0.22
720.839	0.22
721.277	0.22
721.715	0.21
722.153	0.21
722.591	0.21
723.029	0.21
723.467	0.2
723.905	0.2
724.342	0.2
724.78	0.2
725.218	0.2
725.656	0.19
726.093	0.19
726.531	0.19
726.969	0.19
727.406	0.18
727.844	0.18
728.281	0.18
728.719	0.18
729.156	0.17
729.594	0.17
730.031	0.17
730.469	0.17
730.906	0.16
731.343	0.16
731.781	0.16
732.218	0.16
732.655	0.16
733.092	0.15
733.53	0.15
733.967	0.15
734.404	0.14
734.841	0.14
735.278	0.14
735.715	0.14
736.152	0.13
736.589	0.13
737.026	0.13
737.463	0.13
737.9	0.12
738.337	0.12
738.774	0.12
739.211	0.12
739.647	0.11
740.084	0.11
740.521	0.11
740.958	0.11
741.394	0.11
741.831	0.1
742.268	0.1
742.704	0.1
743.141	0.1
743.577	0.09
744.014	0.09
744.45	0.09
744.887	0.09
745.323	0.08
745.76	0.08
746.196	0.08
746.632	0.08
747.069	0.08
747.505	0.08
747.941	0.08
748.378	0.08
748.814	0.07
749.25	0.07
749.686	0.07
750.122	0.07
750.558	0.07
750.994	0.07
751.43	0.07
751.866	0.07
752.302	0.06
752.738	0.06
753.174	0.06
753.61	0.06
754.046	0.06
754.482	0.05
754.918	0.05
755.354	0.05
755.789	0.05
756.225	0.05
756.661	0.05
757.096	0.05
757.532	0.05
757.968	0.05
758.403	0.05
758.839	0.05
759.274	0.04
759.71	0.04
760.145	0.04
760.581	0.04
761.016	0.04
761.452	0.04
761.887	0.04
762.322	0.04
762.758	0.04
763.193	0.03
763.628	0.03
764.063	0.03
764.499	0.03
764.934	0.03
765.369	0.02
765.804	0.02
766.239	0.02
766.674	0.02
767.109	0.02
767.544	0.02
767.979	0.02
768.414	0.01
768.849	0.01
769.284	0.01
769.719	0.01
770.154	0.01
770.588	0.01
771.023	0.01
771.458	0
771.893	0
772.327	-0
772.762	-0
773.197	-0
773.631	-0.01
774.066	-0.01
774.5	-0.01
774.935	-0.02
775.369	-0.02
775.804	-0.02
776.238	-0.02
776.673	-0.03
777.107	-0.03
777.541	-0.03
777.976	-0.03
778.41	-0.04
778.844	-0.04
779.279	-0.04
779.713	-0.05
780.147	-0.05
780.581	-0.05
781.015	-0.06
781.449	-0.06
781.883	-0.07
782.317	-0.07
782.751	-0.08
783.185	-0.08
783.619	-0.09
784.053	-0.09
784.487	-0.1
784.921	-0.11
785.355	-0.11
785.789	-0.12
786.223	-0.12
786.656	-0.12
787.09	-0.12
787.524	-0.12
787.957	-0.12
788.391	-0.12
788.825	-0.13
789.258	-0.13
789.692	-0.12
790.125	-0.12
790.559	-0.12
790.992	-0.13
791.426	-0.13
791.859	-0.13
792.293	-0.11
792.726	-0.11
793.159	-0.1
793.593	-0.1
794.026	-0.1
794.459	-0.11
794.892	-0.11
795.326	-0.11
795.759	-0.11
796.192	-0.11
796.625	-0.12
797.058	-0.13
797.491	-0.14
797.924	-0.15
798.357	-0.15
798.79	-0.15
799.223	-0.15
799.656	-0.15
800.089	-0.15
800.522	-0.15
800.955	-0.15
801.387	-0.15
801.82	-0.15
802.253	-0.16
802.686	-0.16
803.118	-0.16
803.551	-0.16
803.984	-0.15
804.416	-0.14
804.849	-0.14
805.281	-0.14
805.714	-0.13
806.146	-0.13
806.579	-0.13
807.011	-0.13
807.444	-0.13
807.876	-0.13
808.308	-0.13
808.741	-0.13
809.173	-0.14
809.605	-0.15
810.037	-0.15
810.47	-0.15
810.902	-0.16
811.334	-0.16
811.766	-0.15
812.198	-0.15
812.63	-0.15
813.062	-0.15
813.494	-0.15
813.926	-0.16
814.358	-0.16
814.79	-0.15
815.222	-0.15
815.654	-0.15
816.086	-0.15
816.518	-0.15
816.949	-0.15
817.381	-0.15
817.813	-0.15
818.245	-0.14
818.676	-0.13
819.108	-0.13
819.54	-0.12
819.971	-0.12
820.403	-0.11
820.834	-0.1
821.266	-0.1
821.697	-0.09
822.129	-0.08
822.56	-0.08
822.991	-0.07
823.423	-0.07
823.854	-0.07
824.286	-0.06
824.717	-0.06
825.148	-0.06
825.579	-0.05
826.01	-0.05
826.442	-0.05
826.873	-0.04
827.304	-0.04
827.735	-0.04
828.166	-0.04
828.597	-0.04
829.028	-0.03
829.459	-0.03
829.89	-0.03
830.321	-0.03
830.752	-0.03
831.183	-0.03
831.613	-0.02
832.044	-0.02
832.475	-0.02
832.906	-0.02
833.336	-0.02
833.767	-0.02
834.198	-0.02
834.628	-0.02
835.059	-0.02
835.49	-0.02
835.92	-0.02
836.351	-0.02
836.781	-0.02
837.212	-0.02
837.642	-0.02
838.072	-0.02
838.503	-0.02
838.933	-0.02
839.364	-0.02
839.794	-0.02
840.224	-0.02
840.654	-0.02
841.085	-0.02
841.515	-0.02
841.945	-0.02
842.375	-0.02
842.805	-0.02
843.235	-0.02
843.665	-0.02
844.095	-0.02
844.525	-0.02
844.955	-0.02
845.385	-0.02
845.815	-0.02
846.245	-0.02
846.675	-0.02
847.105	-0.02
847.534	-0.02
847.964	-0.02
848.394	-0.02
848.824	-0.02
849.253	-0.02
849.683	-0.02
850.112	-0.02
850.542	-0.02
850.972	-0.02
851.401	-0.02
851.831	-0.02
852.26	-0.02
852.69	-0.02
853.119	-0.02
853.548	-0.02
853.978	-0.02
854.407	-0.02
854.836	-0.01
855.266	-0.01
855.695	-0.01
856.124	-0.01
856.553	-0.01
856.983	-0.01
857.412	-0.01
857.841	-0.01
858.27	-0.01
858.699	-0.01
859.128	-0.01
859.557	-0.01
859.986	-0.01
860.415	-0.01
860.844	-0.01
861.273	-0.01
861.702	-0.01
862.13	-0.01
862.559	-0.01
862.988	-0.01
863.417	-0.01
863.845	-0.01
864.274	-0.01
864.703	-0.01
865.131	-0.01
865.56	-0.01
865.989	-0.01
866.417	-0.01
866.846	-0.01
867.274	-0.01
867.703	-0.01
868.131	-0.02
868.559	-0.02
868.988	-0.02
869.416	-0.02
869.844	-0.02
870.273	-0.02
870.701	-0.02
871.129	-0.02
871.557	-0.02
871.986	-0.02
872.414	-0.02
872.842	-0.02
873.27	-0.02
873.698	-0.02
874.126	-0.02
874.554	-0.02
874.982	-0.02
875.41	-0.02
875.838	-0.02
876.266	-0.02
876.694	-0.02
877.122	-0.02
877.549	-0.02
877.977	-0.02
878.405	-0.02
878.833	-0.02
879.26	-0.02
879.688	-0.02
880.116	-0.02
880.543	-0.02
880.971	-0.02
881.399	-0.02
881.826	-0.02
882.254	-0.01
882.681	-0.01
883.109	-0.01
883.536	-0.01
883.963	-0.01
884.391	-0.01
884.818	-0.01
885.245	-0.01
885.673	-0.01
886.1	-0.01
886.527	-0.01
886.954	-0.01
887.381	-0.01
887.809	-0.01
888.236	-0.01
888.663	-0.01
889.09	-0.01
889.517	-0.01
889.944	-0.01
890.371	-0.01
890.798	-0.01
891.225	-0.01
891.652	-0.01
892.078	-0.01
892.505	-0.02
892.932	-0.02
893.359	-0.02
893.786	-0.02
894.212	-0.02
894.639	-0.02
895.066	-0.02
895.492	-0.02
895.919	-0.02
896.346	-0.02
896.772	-0.02
897.199	-0.02
897.625	-0.02
898.052	-0.02
898.478	-0.03
898.904	-0.03
899.331	-0.03
899.757	-0.03
900.183	-0.03
900.61	-0.03
901.036	-0.03
901.462	-0.03
901.888	-0.03
902.315	-0.03
902.741	-0.03
903.167	-0.03
903.593	-0.03
904.019	-0.03
904.445	-0.03
904.871	-0.03
905.297	-0.03
905.723	-0.03
906.149	-0.03
906.575	-0.03
907.001	-0.02
907.427	-0.02
907.852	-0.02
908.278	-0.02
908.704	-0.02
909.13	-0.02
909.555	-0.02
909.981	-0.02
910.407	-0.02
910.832	-0.02
911.258	-0.02
911.684	-0.02
912.109	-0.02
912.535	-0.02
912.96	-0.01
913.386	-0.01
913.811	-0.01
914.236	-0.01
914.662	-0.01
915.087	-0.01
915.512	-0.01
915.938	-0.01
916.363	-0.01
916.788	-0.01
917.213	-0.01
917.639	-0.01
918.064	-0.02
918.489	-0.02
918.914	-0.02
919.339	-0.02
919.764	-0.02
920.189	-0.02
920.614	-0.02
921.039	-0.02
921.464	-0.02
921.889	-0.02
922.314	-0.01
922.738	-0.01
923.163	-0.01
923.588	-0.01
924.013	-0.01
924.437	-0.01
924.862	-0.01
925.287	-0.01
925.711	-0.01
926.136	-0.01
926.561	-0.01
926.985	-0.01
927.41	-0.01
927.834	-0.01
928.259	-0.01
928.683	-0.01
929.108	-0.01
929.532	-0.01
929.956	-0.01
930.381	-0.01
930.805	-0.01
931.229	-0.01
931.653	-0.01
932.078	-0.01
932.502	-0.01
932.926	-0.01
933.35	-0.01
933.774	-0.01
934.198	-0.01
934.622	-0.01
935.046	-0.01
935.47	-0.01
935.894	-0.01
936.318	-0.01
936.742	-0.01
937.166	-0.01
937.59	-0.01
938.014	-0.01
938.437	-0.01
938.861	-0.01
939.285	-0.01
939.709	-0.01
940.132	-0.02
940.556	-0.02
940.98	-0.02
941.403	-0.02
941.827	-0.02
942.25	-0.02
942.674	-0.02
943.097	-0.02
943.521	-0.02
943.944	-0.02
944.368	-0.02
944.791	-0.02
945.214	-0.02
945.638	-0.02
946.061	-0.02
946.484	-0.02
946.907	-0.02
947.331	-0.02
947.754	-0.02
948.177	-0.02
948.6	-0.02
949.023	-0.02
949.446	-0.02
949.869	-0.02
950.292	-0.02
950.715	-0.02
951.138	-0.02
951.561	-0.02
951.984	-0.02
952.407	-0.03
952.83	-0.03
953.252	-0.03
953.675	-0.03
954.098	-0.03
954.521	-0.03
954.943	-0.03
955.366	-0.03
955.789	-0.03
956.211	-0.02
956.634	-0.02
957.056	-0.02
957.479	-0.02
957.902	-0.02
958.324	-0.02
958.746	-0.02
959.169	-0.02
959.591	-0.01
960.014	-0.01
960.436	-0.01
960.858	-0.01
961.281	-0.01
961.703	-0.01
962.125	-0.01
962.547	-0.01
962.969	-0.01
963.391	-0.01
963.814	-0.01
964.236	-0.01
964.658	-0.01
965.08	-0.01
965.502	-0.01
965.924	-0.01
966.346	-0.01
966.768	-0.01
967.189	-0.01
967.611	-0.01
968.033	-0.01
968.455	-0.01
968.877	-0.01
969.298	-0.02
969.72	-0.02
970.142	-0.02
970.563	-0.02
970.985	-0.02
971.407	-0.02
971.828	-0.02
972.25	-0.02
972.671	-0.02
973.093	-0.02
973.514	-0.02
973.936	-0.02
974.357	-0.02
974.778	-0.02
975.2	-0.02
975.621	-0.02
976.042	-0.01
976.464	-0.01
976.885	-0.01
977.306	-0.01
977.727	-0.02
978.148	-0.01
978.57	-0.02
978.991	-0.01
979.412	-0.01
979.833	-0.01
980.254	-0.01
980.675	-0.01
981.096	-0.01
981.517	-0.01
981.937	-0.01
982.358	-0.01
982.779	-0.01
983.2	-0.01
983.621	-0.01
984.042	-0.02
984.462	-0.02
984.883	-0.02
985.304	-0.02
985.724	-0.02
986.145	-0.02
986.565	-0.02
986.986	-0.02
987.407	-0.02
987.827	-0.02
988.248	-0.02
988.668	-0.02
989.088	-0.02
989.509	-0.02
989.929	-0.02
990.35	-0.02
990.77	-0.02
991.19	-0.02
991.61	-0.02
992.031	-0.02
992.451	-0.02
992.871	-0.02
993.291	-0.02
993.711	-0.02
994.131	-0.02
994.551	-0.02
994.971	-0.02
995.391	-0.02
995.811	-0.02
996.231	-0.02
996.651	-0.02
997.071	-0.02
997.491	-0.02
997.911	-0.02
998.331	-0.02
998.75	-0.02
999.17	-0.02
999.59	-0.02
1000.009	-0.02
1000.429	-0.02
1000.849	-0.02
1001.268	-0.02
1001.688	-0.02
1002.107	-0.02
1002.527	-0.02
1002.946	-0.02
1003.366	-0.02
1003.785	-0.02
1004.205	-0.02
1004.624	-0.02
1005.044	-0.02
1005.463	-0.02
1005.882	-0.02
1006.301	-0.02
1006.721	-0.02
1007.14	-0.02
1007.559	-0.02
1007.978	-0.02
1008.397	-0.02
1008.816	-0.02
1009.235	-0.02
1009.655	-0.02
1010.074	-0.02
1010.492	-0.02
1010.911	-0.02
1011.33	-0.02
1011.749	-0.02
1012.168	-0.03
1012.587	-0.03
1013.006	-0.03
1013.425	-0.03
1013.843	-0.03
1014.262	-0.03
1014.681	-0.03
1015.099	-0.03
1015.518	-0.02
1015.937	-0.02
1016.355	-0.02
1016.774	-0.02
1017.192	-0.02
1017.611	-0.02
1018.029	-0.02
1018.448	-0.02
1018.866	-0.02
1019.285	-0.02
1019.703	-0.02
1020.121	-0.02
1020.54	-0.02
1020.958	-0.02
1021.376	-0.02
1021.794	-0.02
1022.213	-0.02
1022.631	-0.02
1023.049	-0.02
1023.467	-0.02
1023.885	-0.02
1024.303	-0.02
1024.721	-0.02
1025.139	-0.02
1025.557	-0.02
1025.975	-0.02
1026.393	-0.02
1026.811	-0.02
1027.229	-0.02
1027.647	-0.02
1028.065	-0.01
1028.482	-0.01
1028.9	-0.01
1029.318	-0.01
1029.735	-0.01
1030.153	-0.01
1030.571	-0.01
1030.988	-0.01
1031.406	-0.01
1031.823	-0.01
1032.241	-0.01
1032.659	-0.01
1033.076	-0.01
1033.493	-0.01
1033.911	-0.01
1034.328	-0.01
1034.746	-0.01
1035.163	-0.01
1035.58	-0.01
1035.997	-0.01
1036.415	-0.01
1036.832	-0.01
1037.249	-0.01
1037.666	-0.01
1038.083	-0.01
1038.501	-0.01
1038.918	-0.01
1039.335	-0.01
1039.752	-0.01
1040.169	-0.01
1040.586	-0.01
1041.003	-0.01
1041.419	-0.01
1041.836	-0.01
1042.253	-0.01
1042.67	-0.01
1043.087	-0.01
1043.504	-0.01
1043.92	-0.01
1044.337	-0.01
1044.754	-0.01
1045.17	-0.01
1045.587	-0.01
1046.004	-0.01
1046.42	-0.01
1046.837	-0.01
1047.253	-0.01
1047.67	-0.01
1048.086	-0.01
1048.503	-0.01
1048.919	-0.01
1049.335	-0.01
1049.752	-0.01
1050.168	-0.01
1050.584	-0.01
1051.001	-0.01
1051.417	-0.01
1051.833	-0.01
1052.249	-0.01
1052.665	-0.01
1053.081	-0.01
1053.497	-0.01
1053.914	-0.01
1054.33	-0.01
1054.746	-0.01
1055.162	-0.02
1055.578	-0.02
1055.993	-0.02
1056.409	-0.02
1056.825	-0.02
1057.241	-0.02
1057.657	-0.02
1058.073	-0.02
1058.488	-0.02
1058.904	-0.02
1059.32	-0.02
1059.736	-0.02
1060.151	-0.02
1060.567	-0.02
1060.982	-0.02
1061.398	-0.02
1061.813	-0.02
1062.229	-0.02
1062.644	-0.02
1063.06	-0.02
1063.475	-0.02
1063.891	-0.02
1064.306	-0.02
1064.721	-0.02
1065.137	-0.02
1065.552	-0.02
1065.967	-0.02
1066.382	-0.02
1066.798	-0.02
1067.213	-0.02
1067.628	-0.02
1068.043	-0.02
1068.458	-0.02
1068.873	-0.02
1069.288	-0.01
1069.703	-0.01
1070.118	-0.01
1070.533	-0.01
1070.948	-0.01
1071.363	-0.01
1071.778	-0.01
1072.193	-0.01
1072.607	-0.01
1073.022	-0.01
1073.437	-0.01
1073.852	-0.01
1074.266	-0.01
1074.681	-0.01
1075.096	-0.01
1075.51	-0.01
1075.925	-0.01
1076.339	-0.01
1076.754	-0.02
1077.168	-0.02
1077.583	-0.02
1077.997	-0.02
1078.412	-0.02
1078.826	-0.02
1079.24	-0.02
1079.655	-0.02
1080.069	-0.01
1080.483	-0.01
1080.897	-0.01
1081.312	-0.01
1081.726	-0.01
1082.14	-0.01
1082.554	-0.01
1082.968	-0.01
1083.382	-0.01
1083.796	-0.01
1084.21	-0.01
1084.624	-0.01
1085.038	-0
1085.452	-0
1085.866	-0
1086.28	-0
1086.694	-0
1087.108	-0
1087.521	-0
1087.935	-0
1088.349	-0
1088.763	-0
1089.176	-0
1089.59	0
1090.004	0
1090.417	0
1090.831	0
1091.244	0
1091.658	0
1092.071	0
1092.485	0.01
1092.898	0.01
1093.312	0.01
1093.725	0.01
1094.138	0.01
1094.552	0.01
1094.965	0.01
1095.378	0.02
1095.791	0.02
1096.205	0.02
1096.618	0.02
1097.031	0.02
1097.444	0.03
1097.857	0.03
1098.27	0.03
1098.683	0.04
1099.096	0.04
1099.509	0.04
1099.922	0.05
1100.335	0.05
1100.748	0.05
1101.161	0.06
1101.574	0.06
1101.986	0.06
1102.399	0.07
1102.812	0.08
1103.225	0.08
1103.637	0.09
1104.05	0.09
1104.463	0.1
1104.875	0.11
1105.288	0.11
1105.7	0.12
1106.113	0.13
1106.525	0.13
1106.938	0.14
1107.35	0.16
1107.763	0.2
1108.175	0.26
1108.588	0.35
1109	0.51
1109.412	0.65
1109.824	1
1110.237	-0
1110.649	-0
1111.061	-0
