Data from 2024-02-06-100ns-20nr-25nacl-100h2o-7bp2-2_0a808-40to10hyt-0_5cpm_Absorbance__17__00277.txt Node

Date: Tue Feb 06 13:26:07 CET 2024
User: Laser008
Spectrometer: MAYP115816
Trigger mode: 0
Integration Time (sec): 2.000000E-1
Scans to average: 10
Electric dark correction enabled: true
Nonlinearity correction enabled: true
Boxcar width: 5
XAxis mode: Wavelengths
Number of Pixels in Spectrum: 2068
>>>>>Begin Spectral Data<<<<<
198.914	-1.54
199.384	-1.4
199.855	-1.27
200.325	-1.17
200.796	-1.1
201.266	-1.06
201.737	-0.99
202.207	-0.93
202.677	-0.89
203.147	-0.85
203.618	-0.83
204.088	-0.81
204.558	-0.79
205.028	-0.78
205.498	-0.78
205.968	-0.77
206.439	-0.77
206.909	-0.77
207.379	-0.77
207.849	-0.77
208.319	-0.76
208.789	-0.76
209.258	-0.76
209.728	-0.76
210.198	-0.76
210.668	-0.76
211.138	-0.76
211.608	-0.76
212.077	-0.76
212.547	-0.76
213.017	-0.76
213.486	-0.76
213.956	-0.76
214.426	-0.75
214.895	-0.75
215.365	-0.75
215.834	-0.75
216.304	-0.75
216.773	-0.74
217.243	-0.74
217.712	-0.74
218.181	-0.74
218.651	-0.73
219.12	-0.73
219.589	-0.72
220.058	-0.72
220.528	-0.72
220.997	-0.72
221.466	-0.71
221.935	-0.71
222.404	-0.71
222.873	-0.71
223.342	-0.7
223.812	-0.7
224.281	-0.69
224.749	-0.69
225.218	-0.68
225.687	-0.67
226.156	-0.66
226.625	-0.65
227.094	-0.64
227.563	-0.63
228.031	-0.61
228.5	-0.59
228.969	-0.57
229.438	-0.55
229.906	-0.52
230.375	-0.49
230.844	-0.46
231.312	-0.43
231.781	-0.39
232.249	-0.36
232.718	-0.32
233.186	-0.28
233.655	-0.24
234.123	-0.19
234.591	-0.15
235.06	-0.11
235.528	-0.07
235.996	-0.04
236.465	0
236.933	0.04
237.401	0.07
237.869	0.1
238.337	0.13
238.805	0.16
239.274	0.18
239.742	0.2
240.21	0.22
240.678	0.24
241.146	0.26
241.614	0.28
242.081	0.29
242.549	0.3
243.017	0.32
243.485	0.33
243.953	0.34
244.421	0.35
244.888	0.36
245.356	0.37
245.824	0.37
246.291	0.38
246.759	0.39
247.227	0.39
247.694	0.4
248.162	0.4
248.629	0.41
249.097	0.41
249.564	0.42
250.032	0.42
250.499	0.43
250.967	0.43
251.434	0.44
251.901	0.44
252.369	0.44
252.836	0.45
253.303	0.45
253.77	0.45
254.237	0.46
254.705	0.46
255.172	0.46
255.639	0.46
256.106	0.46
256.573	0.47
257.04	0.47
257.507	0.47
257.974	0.47
258.441	0.47
258.908	0.47
259.375	0.47
259.841	0.47
260.308	0.47
260.775	0.47
261.242	0.47
261.709	0.47
262.175	0.47
262.642	0.47
263.109	0.47
263.575	0.47
264.042	0.47
264.508	0.47
264.975	0.47
265.441	0.47
265.908	0.47
266.374	0.47
266.841	0.47
267.307	0.47
267.773	0.46
268.24	0.46
268.706	0.46
269.172	0.46
269.639	0.46
270.105	0.46
270.571	0.45
271.037	0.45
271.503	0.45
271.969	0.45
272.435	0.44
272.902	0.44
273.368	0.44
273.834	0.44
274.3	0.44
274.765	0.43
275.231	0.43
275.697	0.43
276.163	0.43
276.629	0.42
277.095	0.42
277.56	0.42
278.026	0.41
278.492	0.41
278.958	0.41
279.423	0.41
279.889	0.4
280.354	0.4
280.82	0.4
281.286	0.39
281.751	0.39
282.217	0.39
282.682	0.39
283.147	0.38
283.613	0.38
284.078	0.38
284.544	0.38
285.009	0.38
285.474	0.37
285.939	0.37
286.405	0.37
286.87	0.37
287.335	0.36
287.8	0.36
288.265	0.36
288.73	0.36
289.195	0.36
289.66	0.35
290.125	0.35
290.59	0.35
291.055	0.35
291.52	0.35
291.985	0.34
292.45	0.34
292.915	0.34
293.38	0.34
293.844	0.34
294.309	0.34
294.774	0.33
295.239	0.33
295.703	0.33
296.168	0.33
296.632	0.33
297.097	0.33
297.562	0.33
298.026	0.32
298.491	0.32
298.955	0.32
299.419	0.32
299.884	0.32
300.348	0.32
300.813	0.32
301.277	0.32
301.741	0.32
302.205	0.31
302.67	0.31
303.134	0.31
303.598	0.31
304.062	0.31
304.526	0.31
304.99	0.31
305.454	0.31
305.919	0.31
306.383	0.3
306.847	0.3
307.31	0.3
307.774	0.3
308.238	0.3
308.702	0.3
309.166	0.3
309.63	0.3
310.094	0.3
310.557	0.3
311.021	0.29
311.485	0.29
311.948	0.29
312.412	0.29
312.876	0.29
313.339	0.29
313.803	0.29
314.266	0.29
314.73	0.29
315.193	0.29
315.657	0.28
316.12	0.28
316.584	0.28
317.047	0.28
317.51	0.28
317.973	0.28
318.437	0.28
318.9	0.28
319.363	0.28
319.826	0.28
320.29	0.28
320.753	0.27
321.216	0.27
321.679	0.27
322.142	0.27
322.605	0.27
323.068	0.27
323.531	0.27
323.994	0.27
324.457	0.27
324.92	0.27
325.382	0.27
325.845	0.26
326.308	0.26
326.771	0.26
327.233	0.26
327.696	0.26
328.159	0.26
328.622	0.26
329.084	0.26
329.547	0.26
330.009	0.26
330.472	0.26
330.934	0.26
331.397	0.26
331.859	0.25
332.322	0.25
332.784	0.25
333.246	0.25
333.709	0.25
334.171	0.25
334.633	0.25
335.096	0.25
335.558	0.25
336.02	0.25
336.482	0.25
336.944	0.25
337.406	0.25
337.868	0.25
338.331	0.25
338.793	0.24
339.255	0.24
339.717	0.24
340.178	0.24
340.64	0.24
341.102	0.24
341.564	0.24
342.026	0.24
342.488	0.24
342.949	0.24
343.411	0.24
343.873	0.24
344.335	0.24
344.796	0.24
345.258	0.24
345.719	0.24
346.181	0.24
346.643	0.24
347.104	0.24
347.566	0.23
348.027	0.23
348.488	0.23
348.95	0.23
349.411	0.23
349.873	0.23
350.334	0.23
350.795	0.23
351.256	0.23
351.718	0.23
352.179	0.23
352.64	0.23
353.101	0.23
353.562	0.23
354.023	0.23
354.484	0.23
354.945	0.23
355.406	0.23
355.867	0.23
356.328	0.23
356.789	0.23
357.25	0.23
357.711	0.23
358.172	0.23
358.633	0.23
359.093	0.23
359.554	0.23
360.015	0.23
360.476	0.23
360.936	0.23
361.397	0.23
361.858	0.23
362.318	0.23
362.779	0.23
363.239	0.23
363.7	0.23
364.16	0.23
364.621	0.23
365.081	0.22
365.541	0.22
366.002	0.22
366.462	0.22
366.922	0.22
367.383	0.22
367.843	0.22
368.303	0.22
368.763	0.22
369.223	0.22
369.684	0.22
370.144	0.22
370.604	0.22
371.064	0.22
371.524	0.22
371.984	0.22
372.444	0.22
372.904	0.22
373.363	0.22
373.823	0.22
374.283	0.22
374.743	0.22
375.203	0.22
375.663	0.22
376.122	0.22
376.582	0.22
377.042	0.22
377.501	0.22
377.961	0.22
378.42	0.22
378.88	0.22
379.34	0.22
379.799	0.22
380.259	0.22
380.718	0.22
381.177	0.21
381.637	0.21
382.096	0.21
382.555	0.21
383.015	0.21
383.474	0.21
383.933	0.21
384.393	0.21
384.852	0.21
385.311	0.21
385.77	0.21
386.229	0.21
386.688	0.21
387.147	0.21
387.606	0.21
388.065	0.21
388.524	0.21
388.983	0.21
389.442	0.21
389.901	0.21
390.36	0.21
390.819	0.21
391.277	0.21
391.736	0.21
392.195	0.21
392.654	0.21
393.112	0.21
393.571	0.21
394.03	0.21
394.488	0.21
394.947	0.21
395.405	0.21
395.864	0.21
396.322	0.21
396.781	0.2
397.239	0.2
397.698	0.2
398.156	0.2
398.614	0.2
399.073	0.2
399.531	0.2
399.989	0.2
400.447	0.2
400.905	0.2
401.364	0.2
401.822	0.2
402.28	0.2
402.738	0.2
403.196	0.2
403.654	0.2
404.112	0.2
404.57	0.2
405.028	0.2
405.486	0.2
405.944	0.2
406.402	0.2
406.859	0.2
407.317	0.2
407.775	0.2
408.233	0.2
408.691	0.2
409.148	0.2
409.606	0.19
410.064	0.19
410.521	0.19
410.979	0.19
411.436	0.19
411.894	0.19
412.351	0.19
412.809	0.19
413.266	0.19
413.724	0.19
414.181	0.19
414.638	0.19
415.096	0.19
415.553	0.19
416.01	0.19
416.467	0.19
416.925	0.19
417.382	0.19
417.839	0.19
418.296	0.19
418.753	0.19
419.21	0.19
419.667	0.19
420.124	0.19
420.581	0.19
421.038	0.19
421.495	0.19
421.952	0.19
422.409	0.19
422.866	0.19
423.322	0.19
423.779	0.19
424.236	0.19
424.693	0.19
425.149	0.19
425.606	0.19
426.063	0.19
426.519	0.19
426.976	0.19
427.433	0.19
427.889	0.19
428.346	0.19
428.802	0.19
429.258	0.19
429.715	0.19
430.171	0.19
430.628	0.19
431.084	0.19
431.54	0.19
431.997	0.18
432.453	0.18
432.909	0.18
433.365	0.18
433.821	0.18
434.277	0.18
434.734	0.18
435.19	0.18
435.646	0.18
436.102	0.18
436.558	0.18
437.014	0.18
437.47	0.18
437.925	0.18
438.381	0.18
438.837	0.18
439.293	0.18
439.749	0.18
440.205	0.18
440.66	0.18
441.116	0.18
441.572	0.18
442.027	0.18
442.483	0.18
442.939	0.18
443.394	0.18
443.85	0.18
444.305	0.18
444.761	0.18
445.216	0.18
445.672	0.18
446.127	0.18
446.582	0.18
447.038	0.18
447.493	0.18
447.948	0.18
448.403	0.18
448.859	0.18
449.314	0.18
449.769	0.18
450.224	0.18
450.679	0.18
451.134	0.18
451.589	0.18
452.044	0.18
452.499	0.18
452.954	0.18
453.409	0.18
453.864	0.18
454.319	0.18
454.774	0.18
455.229	0.18
455.684	0.18
456.138	0.18
456.593	0.18
457.048	0.18
457.503	0.18
457.957	0.18
458.412	0.18
458.866	0.18
459.321	0.18
459.776	0.18
460.23	0.18
460.685	0.18
461.139	0.18
461.593	0.18
462.048	0.18
462.502	0.18
462.957	0.18
463.411	0.18
463.865	0.18
464.319	0.18
464.774	0.18
465.228	0.18
465.682	0.18
466.136	0.18
466.59	0.18
467.044	0.18
467.499	0.18
467.953	0.18
468.407	0.18
468.861	0.18
469.315	0.18
469.768	0.18
470.222	0.18
470.676	0.18
471.13	0.18
471.584	0.18
472.038	0.18
472.491	0.18
472.945	0.18
473.399	0.18
473.852	0.18
474.306	0.18
474.76	0.19
475.213	0.19
475.667	0.19
476.12	0.19
476.574	0.19
477.027	0.19
477.481	0.19
477.934	0.19
478.388	0.19
478.841	0.19
479.294	0.19
479.748	0.19
480.201	0.19
480.654	0.2
481.107	0.2
481.561	0.2
482.014	0.2
482.467	0.2
482.92	0.2
483.373	0.2
483.826	0.21
484.279	0.21
484.732	0.21
485.185	0.21
485.638	0.21
486.091	0.21
486.544	0.21
486.997	0.21
487.449	0.21
487.902	0.21
488.355	0.22
488.808	0.22
489.26	0.22
489.713	0.22
490.166	0.22
490.618	0.22
491.071	0.22
491.523	0.22
491.976	0.22
492.429	0.22
492.881	0.23
493.333	0.23
493.786	0.23
494.238	0.23
494.691	0.23
495.143	0.23
495.595	0.24
496.048	0.24
496.5	0.24
496.952	0.24
497.404	0.24
497.856	0.24
498.309	0.25
498.761	0.25
499.213	0.25
499.665	0.25
500.117	0.25
500.569	0.26
501.021	0.26
501.473	0.26
501.925	0.26
502.377	0.26
502.828	0.27
503.28	0.27
503.732	0.27
504.184	0.27
504.636	0.27
505.087	0.27
505.539	0.28
505.991	0.28
506.442	0.28
506.894	0.28
507.345	0.28
507.797	0.28
508.249	0.28
508.7	0.29
509.151	0.29
509.603	0.29
510.054	0.29
510.506	0.29
510.957	0.29
511.408	0.29
511.86	0.29
512.311	0.3
512.762	0.3
513.213	0.3
513.665	0.3
514.116	0.3
514.567	0.3
515.018	0.3
515.469	0.3
515.92	0.3
516.371	0.3
516.822	0.3
517.273	0.3
517.724	0.3
518.175	0.3
518.626	0.3
519.076	0.3
519.527	0.3
519.978	0.3
520.429	0.3
520.88	0.3
521.33	0.3
521.781	0.3
522.232	0.3
522.682	0.3
523.133	0.3
523.583	0.3
524.034	0.3
524.484	0.3
524.935	0.3
525.385	0.3
525.836	0.31
526.286	0.31
526.736	0.31
527.187	0.31
527.637	0.31
528.087	0.31
528.538	0.31
528.988	0.31
529.438	0.31
529.888	0.31
530.338	0.3
530.788	0.3
531.238	0.3
531.688	0.3
532.139	0.3
532.589	0.3
533.038	0.3
533.488	0.3
533.938	0.3
534.388	0.29
534.838	0.29
535.288	0.29
535.738	0.29
536.187	0.29
536.637	0.29
537.087	0.28
537.537	0.28
537.986	0.28
538.436	0.28
538.885	0.28
539.335	0.28
539.785	0.27
540.234	0.27
540.684	0.27
541.133	0.27
541.582	0.26
542.032	0.26
542.481	0.26
542.931	0.26
543.38	0.25
543.829	0.25
544.278	0.25
544.728	0.25
545.177	0.24
545.626	0.24
546.075	0.24
546.524	0.24
546.973	0.23
547.422	0.23
547.871	0.23
548.32	0.23
548.769	0.22
549.218	0.22
549.667	0.22
550.116	0.21
550.565	0.21
551.014	0.21
551.463	0.21
551.911	0.2
552.36	0.2
552.809	0.2
553.258	0.2
553.706	0.19
554.155	0.19
554.603	0.19
555.052	0.18
555.501	0.18
555.949	0.18
556.398	0.18
556.846	0.17
557.294	0.17
557.743	0.17
558.191	0.17
558.64	0.16
559.088	0.16
559.536	0.16
559.985	0.16
560.433	0.15
560.881	0.15
561.329	0.15
561.777	0.15
562.225	0.15
562.674	0.14
563.122	0.14
563.57	0.14
564.018	0.14
564.466	0.13
564.914	0.13
565.362	0.13
565.809	0.13
566.257	0.13
566.705	0.12
567.153	0.12
567.601	0.12
568.048	0.12
568.496	0.12
568.944	0.12
569.392	0.12
569.839	0.12
570.287	0.12
570.734	0.11
571.182	0.11
571.63	0.11
572.077	0.11
572.525	0.11
572.972	0.11
573.419	0.11
573.867	0.11
574.314	0.1
574.761	0.1
575.209	0.1
575.656	0.1
576.103	0.1
576.551	0.1
576.998	0.1
577.445	0.09
577.892	0.09
578.339	0.09
578.786	0.09
579.233	0.09
579.68	0.09
580.127	0.09
580.574	0.09
581.021	0.08
581.468	0.08
581.915	0.08
582.362	0.08
582.809	0.08
583.255	0.08
583.702	0.08
584.149	0.07
584.596	0.07
585.042	0.07
585.489	0.07
585.936	0.07
586.382	0.07
586.829	0.07
587.275	0.07
587.722	0.07
588.168	0.06
588.615	0.06
589.061	0.06
589.508	0.06
589.954	0.06
590.4	0.06
590.847	0.06
591.293	0.06
591.739	0.06
592.185	0.06
592.632	0.06
593.078	0.06
593.524	0.06
593.97	0.06
594.416	0.06
594.862	0.06
595.308	0.05
595.754	0.05
596.2	0.05
596.646	0.05
597.092	0.05
597.538	0.05
597.984	0.05
598.43	0.05
598.876	0.05
599.321	0.05
599.767	0.05
600.213	0.05
600.659	0.05
601.104	0.05
601.55	0.05
601.995	0.05
602.441	0.05
602.887	0.05
603.332	0.05
603.778	0.05
604.223	0.05
604.668	0.05
605.114	0.05
605.559	0.05
606.005	0.05
606.45	0.05
606.895	0.05
607.341	0.05
607.786	0.05
608.231	0.05
608.676	0.05
609.121	0.05
609.566	0.05
610.012	0.05
610.457	0.05
610.902	0.05
611.347	0.05
611.792	0.05
612.237	0.05
612.682	0.05
613.127	0.05
613.571	0.05
614.016	0.05
614.461	0.05
614.906	0.05
615.351	0.05
615.795	0.05
616.24	0.05
616.685	0.05
617.129	0.05
617.574	0.05
618.019	0.05
618.463	0.05
618.908	0.05
619.352	0.05
619.797	0.05
620.241	0.05
620.686	0.05
621.13	0.05
621.574	0.06
622.019	0.06
622.463	0.06
622.907	0.06
623.352	0.06
623.796	0.06
624.24	0.06
624.684	0.06
625.128	0.06
625.572	0.06
626.016	0.06
626.461	0.06
626.905	0.06
627.349	0.06
627.793	0.06
628.236	0.07
628.68	0.07
629.124	0.07
629.568	0.07
630.012	0.07
630.456	0.07
630.9	0.07
631.343	0.07
631.787	0.07
632.231	0.07
632.674	0.07
633.118	0.07
633.562	0.08
634.005	0.08
634.449	0.08
634.892	0.08
635.336	0.08
635.779	0.09
636.223	0.09
636.666	0.09
637.109	0.09
637.553	0.09
637.996	0.09
638.439	0.1
638.883	0.1
639.326	0.1
639.769	0.1
640.212	0.1
640.655	0.1
641.099	0.11
641.542	0.11
641.985	0.11
642.428	0.11
642.871	0.12
643.314	0.12
643.757	0.12
644.2	0.12
644.643	0.13
645.085	0.13
645.528	0.13
645.971	0.13
646.414	0.14
646.857	0.14
647.299	0.14
647.742	0.14
648.185	0.15
648.627	0.15
649.07	0.15
649.513	0.16
649.955	0.16
650.398	0.16
650.84	0.17
651.283	0.17
651.725	0.17
652.168	0.18
652.61	0.18
653.052	0.19
653.495	0.19
653.937	0.15
654.379	0.12
654.821	0.13
655.264	0.13
655.706	0.13
656.148	0.14
656.59	0.14
657.032	0.14
657.474	0.14
657.916	0.14
658.358	0.13
658.8	0.17
659.242	0.22
659.684	0.23
660.126	0.23
660.568	0.23
661.01	0.24
661.452	0.24
661.894	0.24
662.335	0.25
662.777	0.25
663.219	0.26
663.661	0.26
664.102	0.26
664.544	0.27
664.985	0.27
665.427	0.28
665.869	0.28
666.31	0.28
666.752	0.28
667.193	0.29
667.634	0.29
668.076	0.29
668.517	0.3
668.959	0.3
669.4	0.3
669.841	0.3
670.282	0.31
670.724	0.31
671.165	0.31
671.606	0.32
672.047	0.32
672.488	0.32
672.929	0.32
673.37	0.32
673.811	0.33
674.252	0.33
674.693	0.33
675.134	0.33
675.575	0.34
676.016	0.34
676.457	0.34
676.898	0.34
677.339	0.35
677.78	0.35
678.22	0.35
678.661	0.35
679.102	0.35
679.542	0.35
679.983	0.35
680.424	0.35
680.864	0.35
681.305	0.35
681.745	0.35
682.186	0.36
682.626	0.36
683.067	0.36
683.507	0.36
683.948	0.36
684.388	0.36
684.828	0.36
685.269	0.36
685.709	0.36
686.149	0.36
686.589	0.36
687.029	0.36
687.47	0.36
687.91	0.36
688.35	0.36
688.79	0.36
689.23	0.36
689.67	0.36
690.11	0.36
690.55	0.36
690.99	0.35
691.43	0.35
691.87	0.35
692.31	0.35
692.749	0.35
693.189	0.35
693.629	0.35
694.069	0.35
694.508	0.34
694.948	0.34
695.388	0.34
695.827	0.34
696.267	0.34
696.706	0.34
697.146	0.34
697.586	0.33
698.025	0.33
698.464	0.33
698.904	0.33
699.343	0.33
699.783	0.32
700.222	0.32
700.661	0.32
701.101	0.32
701.54	0.32
701.979	0.31
702.418	0.31
702.857	0.31
703.297	0.31
703.736	0.3
704.175	0.3
704.614	0.3
705.053	0.3
705.492	0.29
705.931	0.29
706.37	0.29
706.809	0.29
707.248	0.28
707.687	0.28
708.125	0.28
708.564	0.28
709.003	0.28
709.442	0.27
709.88	0.27
710.319	0.27
710.758	0.26
711.196	0.26
711.635	0.26
712.074	0.25
712.512	0.25
712.951	0.25
713.389	0.25
713.828	0.24
714.266	0.24
714.705	0.24
715.143	0.24
715.581	0.23
716.02	0.23
716.458	0.23
716.896	0.22
717.334	0.22
717.773	0.22
718.211	0.21
718.649	0.21
719.087	0.21
719.525	0.21
719.963	0.2
720.401	0.2
720.839	0.2
721.277	0.19
721.715	0.19
722.153	0.19
722.591	0.19
723.029	0.18
723.467	0.18
723.905	0.18
724.342	0.18
724.78	0.18
725.218	0.17
725.656	0.17
726.093	0.17
726.531	0.17
726.969	0.17
727.406	0.16
727.844	0.16
728.281	0.16
728.719	0.16
729.156	0.15
729.594	0.15
730.031	0.15
730.469	0.15
730.906	0.15
731.343	0.14
731.781	0.14
732.218	0.14
732.655	0.14
733.092	0.14
733.53	0.13
733.967	0.13
734.404	0.13
734.841	0.13
735.278	0.12
735.715	0.12
736.152	0.12
736.589	0.12
737.026	0.11
737.463	0.11
737.9	0.11
738.337	0.11
738.774	0.1
739.211	0.1
739.647	0.1
740.084	0.1
740.521	0.1
740.958	0.1
741.394	0.09
741.831	0.09
742.268	0.09
742.704	0.09
743.141	0.08
743.577	0.08
744.014	0.08
744.45	0.08
744.887	0.07
745.323	0.07
745.76	0.07
746.196	0.07
746.632	0.07
747.069	0.06
747.505	0.06
747.941	0.06
748.378	0.06
748.814	0.06
749.25	0.06
749.686	0.06
750.122	0.06
750.558	0.06
750.994	0.06
751.43	0.05
751.866	0.05
752.302	0.05
752.738	0.05
753.174	0.05
753.61	0.05
754.046	0.04
754.482	0.04
754.918	0.04
755.354	0.04
755.789	0.04
756.225	0.04
756.661	0.04
757.096	0.03
757.532	0.03
757.968	0.03
758.403	0.03
758.839	0.03
759.274	0.03
759.71	0.03
760.145	0.03
760.581	0.03
761.016	0.03
761.452	0.03
761.887	0.03
762.322	0.02
762.758	0.02
763.193	0.02
763.628	0.02
764.063	0.02
764.499	0.02
764.934	0.01
765.369	0.01
765.804	0.01
766.239	0.01
766.674	0.01
767.109	0.01
767.544	0
767.979	0
768.414	0
768.849	0
769.284	0
769.719	-0
770.154	-0
770.588	-0
771.023	-0.01
771.458	-0.01
771.893	-0.01
772.327	-0.01
772.762	-0.01
773.197	-0.02
773.631	-0.02
774.066	-0.02
774.5	-0.03
774.935	-0.03
775.369	-0.03
775.804	-0.03
776.238	-0.03
776.673	-0.04
777.107	-0.04
777.541	-0.04
777.976	-0.05
778.41	-0.05
778.844	-0.05
779.279	-0.05
779.713	-0.05
780.147	-0.06
780.581	-0.06
781.015	-0.06
781.449	-0.07
781.883	-0.07
782.317	-0.08
782.751	-0.09
783.185	-0.09
783.619	-0.1
784.053	-0.1
784.487	-0.11
784.921	-0.11
785.355	-0.12
785.789	-0.12
786.223	-0.12
786.656	-0.12
787.09	-0.12
787.524	-0.12
787.957	-0.12
788.391	-0.13
788.825	-0.13
789.258	-0.13
789.692	-0.12
790.125	-0.12
790.559	-0.12
790.992	-0.13
791.426	-0.13
791.859	-0.13
792.293	-0.11
792.726	-0.11
793.159	-0.1
793.593	-0.1
794.026	-0.1
794.459	-0.11
794.892	-0.11
795.326	-0.11
795.759	-0.11
796.192	-0.11
796.625	-0.12
797.058	-0.13
797.491	-0.14
797.924	-0.14
798.357	-0.15
798.79	-0.15
799.223	-0.15
799.656	-0.15
800.089	-0.15
800.522	-0.15
800.955	-0.15
801.387	-0.15
801.82	-0.15
802.253	-0.16
802.686	-0.16
803.118	-0.16
803.551	-0.16
803.984	-0.15
804.416	-0.14
804.849	-0.14
805.281	-0.14
805.714	-0.13
806.146	-0.13
806.579	-0.13
807.011	-0.13
807.444	-0.13
807.876	-0.13
808.308	-0.13
808.741	-0.13
809.173	-0.14
809.605	-0.15
810.037	-0.15
810.47	-0.15
810.902	-0.16
811.334	-0.16
811.766	-0.15
812.198	-0.15
812.63	-0.15
813.062	-0.15
813.494	-0.15
813.926	-0.16
814.358	-0.16
814.79	-0.15
815.222	-0.15
815.654	-0.15
816.086	-0.15
816.518	-0.15
816.949	-0.15
817.381	-0.15
817.813	-0.15
818.245	-0.14
818.676	-0.14
819.108	-0.13
819.54	-0.13
819.971	-0.12
820.403	-0.12
820.834	-0.11
821.266	-0.1
821.697	-0.1
822.129	-0.09
822.56	-0.08
822.991	-0.08
823.423	-0.08
823.854	-0.07
824.286	-0.07
824.717	-0.06
825.148	-0.06
825.579	-0.06
826.01	-0.05
826.442	-0.05
826.873	-0.05
827.304	-0.05
827.735	-0.04
828.166	-0.04
828.597	-0.04
829.028	-0.04
829.459	-0.04
829.89	-0.04
830.321	-0.04
830.752	-0.03
831.183	-0.03
831.613	-0.03
832.044	-0.03
832.475	-0.03
832.906	-0.03
833.336	-0.03
833.767	-0.03
834.198	-0.03
834.628	-0.03
835.059	-0.03
835.49	-0.03
835.92	-0.03
836.351	-0.03
836.781	-0.03
837.212	-0.02
837.642	-0.02
838.072	-0.02
838.503	-0.02
838.933	-0.02
839.364	-0.02
839.794	-0.02
840.224	-0.02
840.654	-0.02
841.085	-0.02
841.515	-0.02
841.945	-0.02
842.375	-0.02
842.805	-0.02
843.235	-0.03
843.665	-0.03
844.095	-0.03
844.525	-0.03
844.955	-0.03
845.385	-0.03
845.815	-0.03
846.245	-0.03
846.675	-0.03
847.105	-0.03
847.534	-0.03
847.964	-0.03
848.394	-0.03
848.824	-0.03
849.253	-0.03
849.683	-0.03
850.112	-0.03
850.542	-0.03
850.972	-0.03
851.401	-0.03
851.831	-0.02
852.26	-0.02
852.69	-0.02
853.119	-0.02
853.548	-0.02
853.978	-0.02
854.407	-0.02
854.836	-0.02
855.266	-0.02
855.695	-0.02
856.124	-0.02
856.553	-0.02
856.983	-0.02
857.412	-0.02
857.841	-0.02
858.27	-0.02
858.699	-0.02
859.128	-0.02
859.557	-0.02
859.986	-0.02
860.415	-0.02
860.844	-0.02
861.273	-0.02
861.702	-0.02
862.13	-0.02
862.559	-0.02
862.988	-0.02
863.417	-0.02
863.845	-0.02
864.274	-0.02
864.703	-0.02
865.131	-0.02
865.56	-0.02
865.989	-0.02
866.417	-0.02
866.846	-0.02
867.274	-0.02
867.703	-0.02
868.131	-0.02
868.559	-0.02
868.988	-0.02
869.416	-0.02
869.844	-0.02
870.273	-0.02
870.701	-0.02
871.129	-0.02
871.557	-0.02
871.986	-0.02
872.414	-0.02
872.842	-0.02
873.27	-0.02
873.698	-0.02
874.126	-0.02
874.554	-0.02
874.982	-0.02
875.41	-0.02
875.838	-0.02
876.266	-0.02
876.694	-0.02
877.122	-0.02
877.549	-0.03
877.977	-0.03
878.405	-0.03
878.833	-0.03
879.26	-0.03
879.688	-0.03
880.116	-0.03
880.543	-0.03
880.971	-0.03
881.399	-0.02
881.826	-0.02
882.254	-0.02
882.681	-0.02
883.109	-0.02
883.536	-0.02
883.963	-0.02
884.391	-0.02
884.818	-0.02
885.245	-0.02
885.673	-0.02
886.1	-0.02
886.527	-0.02
886.954	-0.02
887.381	-0.02
887.809	-0.02
888.236	-0.02
888.663	-0.02
889.09	-0.02
889.517	-0.02
889.944	-0.02
890.371	-0.02
890.798	-0.02
891.225	-0.02
891.652	-0.02
892.078	-0.02
892.505	-0.02
892.932	-0.02
893.359	-0.02
893.786	-0.02
894.212	-0.02
894.639	-0.02
895.066	-0.03
895.492	-0.03
895.919	-0.03
896.346	-0.03
896.772	-0.03
897.199	-0.03
897.625	-0.03
898.052	-0.03
898.478	-0.03
898.904	-0.03
899.331	-0.04
899.757	-0.04
900.183	-0.04
900.61	-0.04
901.036	-0.04
901.462	-0.04
901.888	-0.04
902.315	-0.04
902.741	-0.04
903.167	-0.04
903.593	-0.04
904.019	-0.04
904.445	-0.04
904.871	-0.03
905.297	-0.03
905.723	-0.03
906.149	-0.03
906.575	-0.03
907.001	-0.03
907.427	-0.03
907.852	-0.03
908.278	-0.03
908.704	-0.03
909.13	-0.03
909.555	-0.03
909.981	-0.03
910.407	-0.03
910.832	-0.02
911.258	-0.02
911.684	-0.02
912.109	-0.02
912.535	-0.02
912.96	-0.02
913.386	-0.02
913.811	-0.02
914.236	-0.02
914.662	-0.02
915.087	-0.02
915.512	-0.02
915.938	-0.02
916.363	-0.02
916.788	-0.02
917.213	-0.02
917.639	-0.02
918.064	-0.02
918.489	-0.02
918.914	-0.02
919.339	-0.02
919.764	-0.02
920.189	-0.02
920.614	-0.02
921.039	-0.02
921.464	-0.02
921.889	-0.02
922.314	-0.02
922.738	-0.02
923.163	-0.02
923.588	-0.02
924.013	-0.02
924.437	-0.02
924.862	-0.02
925.287	-0.02
925.711	-0.02
926.136	-0.02
926.561	-0.02
926.985	-0.02
927.41	-0.02
927.834	-0.02
928.259	-0.02
928.683	-0.02
929.108	-0.02
929.532	-0.02
929.956	-0.02
930.381	-0.02
930.805	-0.02
931.229	-0.02
931.653	-0.02
932.078	-0.02
932.502	-0.02
932.926	-0.01
933.35	-0.01
933.774	-0.01
934.198	-0.01
934.622	-0.01
935.046	-0.01
935.47	-0.02
935.894	-0.02
936.318	-0.02
936.742	-0.02
937.166	-0.02
937.59	-0.02
938.014	-0.02
938.437	-0.02
938.861	-0.02
939.285	-0.02
939.709	-0.02
940.132	-0.02
940.556	-0.02
940.98	-0.02
941.403	-0.02
941.827	-0.02
942.25	-0.02
942.674	-0.02
943.097	-0.02
943.521	-0.02
943.944	-0.02
944.368	-0.02
944.791	-0.02
945.214	-0.02
945.638	-0.02
946.061	-0.02
946.484	-0.02
946.907	-0.02
947.331	-0.02
947.754	-0.02
948.177	-0.02
948.6	-0.02
949.023	-0.02
949.446	-0.02
949.869	-0.02
950.292	-0.02
950.715	-0.02
951.138	-0.02
951.561	-0.03
951.984	-0.03
952.407	-0.03
952.83	-0.03
953.252	-0.03
953.675	-0.03
954.098	-0.03
954.521	-0.03
954.943	-0.03
955.366	-0.03
955.789	-0.03
956.211	-0.03
956.634	-0.03
957.056	-0.02
957.479	-0.02
957.902	-0.02
958.324	-0.02
958.746	-0.02
959.169	-0.02
959.591	-0.01
960.014	-0.01
960.436	-0.01
960.858	-0.01
961.281	-0.01
961.703	-0.01
962.125	-0.01
962.547	-0.01
962.969	-0.01
963.391	-0.01
963.814	-0.01
964.236	-0.01
964.658	-0.01
965.08	-0.01
965.502	-0.01
965.924	-0.01
966.346	-0.02
966.768	-0.02
967.189	-0.02
967.611	-0.02
968.033	-0.02
968.455	-0.02
968.877	-0.02
969.298	-0.02
969.72	-0.02
970.142	-0.02
970.563	-0.02
970.985	-0.02
971.407	-0.02
971.828	-0.02
972.25	-0.02
972.671	-0.02
973.093	-0.02
973.514	-0.02
973.936	-0.02
974.357	-0.02
974.778	-0.02
975.2	-0.02
975.621	-0.02
976.042	-0.02
976.464	-0.02
976.885	-0.02
977.306	-0.02
977.727	-0.02
978.148	-0.02
978.57	-0.02
978.991	-0.02
979.412	-0.02
979.833	-0.02
980.254	-0.02
980.675	-0.02
981.096	-0.02
981.517	-0.02
981.937	-0.02
982.358	-0.02
982.779	-0.02
983.2	-0.02
983.621	-0.02
984.042	-0.02
984.462	-0.02
984.883	-0.02
985.304	-0.03
985.724	-0.03
986.145	-0.03
986.565	-0.03
986.986	-0.03
987.407	-0.03
987.827	-0.03
988.248	-0.03
988.668	-0.03
989.088	-0.03
989.509	-0.03
989.929	-0.03
990.35	-0.03
990.77	-0.03
991.19	-0.03
991.61	-0.03
992.031	-0.03
992.451	-0.03
992.871	-0.03
993.291	-0.03
993.711	-0.03
994.131	-0.03
994.551	-0.03
994.971	-0.03
995.391	-0.03
995.811	-0.03
996.231	-0.03
996.651	-0.03
997.071	-0.03
997.491	-0.03
997.911	-0.03
998.331	-0.03
998.75	-0.03
999.17	-0.03
999.59	-0.03
1000.009	-0.03
1000.429	-0.03
1000.849	-0.03
1001.268	-0.03
1001.688	-0.03
1002.107	-0.03
1002.527	-0.03
1002.946	-0.03
1003.366	-0.03
1003.785	-0.03
1004.205	-0.03
1004.624	-0.03
1005.044	-0.03
1005.463	-0.03
1005.882	-0.03
1006.301	-0.03
1006.721	-0.03
1007.14	-0.03
1007.559	-0.03
1007.978	-0.03
1008.397	-0.03
1008.816	-0.03
1009.235	-0.03
1009.655	-0.03
1010.074	-0.03
1010.492	-0.03
1010.911	-0.03
1011.33	-0.04
1011.749	-0.04
1012.168	-0.04
1012.587	-0.04
1013.006	-0.04
1013.425	-0.04
1013.843	-0.04
1014.262	-0.04
1014.681	-0.04
1015.099	-0.03
1015.518	-0.03
1015.937	-0.03
1016.355	-0.03
1016.774	-0.03
1017.192	-0.03
1017.611	-0.03
1018.029	-0.03
1018.448	-0.03
1018.866	-0.03
1019.285	-0.03
1019.703	-0.03
1020.121	-0.03
1020.54	-0.03
1020.958	-0.03
1021.376	-0.03
1021.794	-0.03
1022.213	-0.03
1022.631	-0.03
1023.049	-0.03
1023.467	-0.03
1023.885	-0.03
1024.303	-0.03
1024.721	-0.03
1025.139	-0.03
1025.557	-0.03
1025.975	-0.03
1026.393	-0.03
1026.811	-0.03
1027.229	-0.03
1027.647	-0.03
1028.065	-0.03
1028.482	-0.03
1028.9	-0.03
1029.318	-0.03
1029.735	-0.03
1030.153	-0.03
1030.571	-0.03
1030.988	-0.03
1031.406	-0.03
1031.823	-0.03
1032.241	-0.03
1032.659	-0.03
1033.076	-0.03
1033.493	-0.03
1033.911	-0.03
1034.328	-0.02
1034.746	-0.02
1035.163	-0.02
1035.58	-0.02
1035.997	-0.02
1036.415	-0.02
1036.832	-0.02
1037.249	-0.02
1037.666	-0.02
1038.083	-0.02
1038.501	-0.02
1038.918	-0.02
1039.335	-0.02
1039.752	-0.02
1040.169	-0.02
1040.586	-0.02
1041.003	-0.02
1041.419	-0.02
1041.836	-0.02
1042.253	-0.02
1042.67	-0.02
1043.087	-0.02
1043.504	-0.02
1043.92	-0.02
1044.337	-0.02
1044.754	-0.02
1045.17	-0.02
1045.587	-0.02
1046.004	-0.02
1046.42	-0.02
1046.837	-0.02
1047.253	-0.02
1047.67	-0.02
1048.086	-0.02
1048.503	-0.02
1048.919	-0.02
1049.335	-0.02
1049.752	-0.02
1050.168	-0.02
1050.584	-0.02
1051.001	-0.02
1051.417	-0.02
1051.833	-0.02
1052.249	-0.02
1052.665	-0.02
1053.081	-0.02
1053.497	-0.02
1053.914	-0.02
1054.33	-0.02
1054.746	-0.02
1055.162	-0.02
1055.578	-0.02
1055.993	-0.02
1056.409	-0.02
1056.825	-0.02
1057.241	-0.02
1057.657	-0.02
1058.073	-0.02
1058.488	-0.02
1058.904	-0.03
1059.32	-0.03
1059.736	-0.03
1060.151	-0.03
1060.567	-0.03
1060.982	-0.03
1061.398	-0.03
1061.813	-0.03
1062.229	-0.03
1062.644	-0.03
1063.06	-0.03
1063.475	-0.02
1063.891	-0.02
1064.306	-0.02
1064.721	-0.02
1065.137	-0.02
1065.552	-0.02
1065.967	-0.02
1066.382	-0.02
1066.798	-0.02
1067.213	-0.02
1067.628	-0.02
1068.043	-0.02
1068.458	-0.02
1068.873	-0.02
1069.288	-0.02
1069.703	-0.02
1070.118	-0.02
1070.533	-0.02
1070.948	-0.02
1071.363	-0.02
1071.778	-0.02
1072.193	-0.02
1072.607	-0.02
1073.022	-0.02
1073.437	-0.02
1073.852	-0.02
1074.266	-0.02
1074.681	-0.02
1075.096	-0.02
1075.51	-0.02
1075.925	-0.02
1076.339	-0.02
1076.754	-0.02
1077.168	-0.02
1077.583	-0.02
1077.997	-0.02
1078.412	-0.02
1078.826	-0.02
1079.24	-0.02
1079.655	-0.02
1080.069	-0.02
1080.483	-0.02
1080.897	-0.02
1081.312	-0.02
1081.726	-0.01
1082.14	-0.01
1082.554	-0.01
1082.968	-0.01
1083.382	-0.01
1083.796	-0.01
1084.21	-0.01
1084.624	-0.01
1085.038	-0.01
1085.452	-0.01
1085.866	-0.01
1086.28	-0.01
1086.694	-0
1087.108	-0
1087.521	-0
1087.935	-0
1088.349	-0
1088.763	-0
1089.176	-0
1089.59	-0
1090.004	-0
1090.417	-0
1090.831	-0
1091.244	-0
1091.658	0
1092.071	0
1092.485	0
1092.898	0
1093.312	0.01
1093.725	0.01
1094.138	0.01
1094.552	0.01
1094.965	0.01
1095.378	0.01
1095.791	0.02
1096.205	0.02
1096.618	0.02
1097.031	0.02
1097.444	0.02
1097.857	0.03
1098.27	0.03
1098.683	0.03
1099.096	0.03
1099.509	0.04
1099.922	0.04
1100.335	0.04
1100.748	0.05
1101.161	0.05
1101.574	0.05
1101.986	0.06
1102.399	0.06
1102.812	0.07
1103.225	0.08
1103.637	0.08
1104.05	0.09
1104.463	0.09
1104.875	0.1
1105.288	0.11
1105.7	0.11
1106.113	0.12
1106.525	0.13
1106.938	0.14
1107.35	0.16
1107.763	0.2
1108.175	0.26
1108.588	0.36
1109	0.52
1109.412	0.67
1109.824	1.07
1110.237	-0
1110.649	-0
1111.061	-0
