Data from redip-kinet-2-5a_Absorbance__15__00015.txt Node

Date: Fri Apr 12 13:46:00 CEST 2024
User: Laser008
Spectrometer: MAYP115816
Trigger mode: 0
Integration Time (sec): 2.000000E-1
Scans to average: 10
Electric dark correction enabled: true
Nonlinearity correction enabled: true
Boxcar width: 5
XAxis mode: Wavelengths
Number of Pixels in Spectrum: 2068
>>>>>Begin Spectral Data<<<<<
198.914	-2.53
199.384	-2.37
199.855	-2.23
200.325	-2.12
200.796	-2.04
201.266	-1.99
201.737	-1.91
202.207	-1.85
202.677	-1.8
203.147	-1.75
203.618	-1.72
204.088	-1.69
204.558	-1.67
205.028	-1.66
205.498	-1.66
205.968	-1.65
206.439	-1.65
206.909	-1.65
207.379	-1.64
207.849	-1.64
208.319	-1.64
208.789	-1.63
209.258	-1.63
209.728	-1.63
210.198	-1.63
210.668	-1.63
211.138	-1.62
211.608	-1.62
212.077	-1.62
212.547	-1.62
213.017	-1.62
213.486	-1.62
213.956	-1.62
214.426	-1.61
214.895	-1.61
215.365	-1.61
215.834	-1.61
216.304	-1.61
216.773	-1.61
217.243	-1.6
217.712	-1.6
218.181	-1.6
218.651	-1.6
219.12	-1.6
219.589	-1.59
220.058	-1.59
220.528	-1.59
220.997	-1.58
221.466	-1.58
221.935	-1.57
222.404	-1.57
222.873	-1.56
223.342	-1.56
223.812	-1.55
224.281	-1.54
224.749	-1.53
225.218	-1.53
225.687	-1.52
226.156	-1.51
226.625	-1.49
227.094	-1.48
227.563	-1.46
228.031	-1.44
228.5	-1.42
228.969	-1.4
229.438	-1.37
229.906	-1.34
230.375	-1.3
230.844	-1.26
231.312	-1.22
231.781	-1.18
232.249	-1.13
232.718	-1.09
233.186	-1.04
233.655	-0.99
234.123	-0.94
234.591	-0.89
235.06	-0.84
235.528	-0.79
235.996	-0.74
236.465	-0.7
236.933	-0.65
237.401	-0.61
237.869	-0.57
238.337	-0.53
238.805	-0.49
239.274	-0.45
239.742	-0.42
240.21	-0.39
240.678	-0.36
241.146	-0.33
241.614	-0.3
242.081	-0.28
242.549	-0.26
243.017	-0.24
243.485	-0.22
243.953	-0.2
244.421	-0.18
244.888	-0.16
245.356	-0.15
245.824	-0.13
246.291	-0.12
246.759	-0.11
247.227	-0.1
247.694	-0.09
248.162	-0.08
248.629	-0.07
249.097	-0.06
249.564	-0.05
250.032	-0.04
250.499	-0.03
250.967	-0.02
251.434	-0.02
251.901	-0.01
252.369	-0
252.836	0
253.303	0.01
253.77	0.01
254.237	0.02
254.705	0.02
255.172	0.03
255.639	0.03
256.106	0.04
256.573	0.04
257.04	0.04
257.507	0.05
257.974	0.05
258.441	0.05
258.908	0.05
259.375	0.06
259.841	0.06
260.308	0.06
260.775	0.06
261.242	0.06
261.709	0.07
262.175	0.07
262.642	0.07
263.109	0.07
263.575	0.07
264.042	0.07
264.508	0.07
264.975	0.07
265.441	0.07
265.908	0.07
266.374	0.07
266.841	0.07
267.307	0.07
267.773	0.07
268.24	0.07
268.706	0.07
269.172	0.07
269.639	0.07
270.105	0.07
270.571	0.07
271.037	0.07
271.503	0.07
271.969	0.07
272.435	0.07
272.902	0.07
273.368	0.07
273.834	0.07
274.3	0.07
274.765	0.06
275.231	0.06
275.697	0.06
276.163	0.06
276.629	0.06
277.095	0.06
277.56	0.06
278.026	0.06
278.492	0.05
278.958	0.05
279.423	0.05
279.889	0.05
280.354	0.05
280.82	0.05
281.286	0.05
281.751	0.05
282.217	0.05
282.682	0.05
283.147	0.05
283.613	0.05
284.078	0.05
284.544	0.05
285.009	0.05
285.474	0.05
285.939	0.05
286.405	0.05
286.87	0.05
287.335	0.05
287.8	0.05
288.265	0.05
288.73	0.05
289.195	0.05
289.66	0.05
290.125	0.05
290.59	0.05
291.055	0.04
291.52	0.04
291.985	0.04
292.45	0.04
292.915	0.04
293.38	0.04
293.844	0.04
294.309	0.04
294.774	0.04
295.239	0.04
295.703	0.04
296.168	0.04
296.632	0.04
297.097	0.04
297.562	0.04
298.026	0.04
298.491	0.04
298.955	0.04
299.419	0.04
299.884	0.04
300.348	0.04
300.813	0.04
301.277	0.04
301.741	0.04
302.205	0.04
302.67	0.04
303.134	0.04
303.598	0.04
304.062	0.04
304.526	0.04
304.99	0.04
305.454	0.04
305.919	0.05
306.383	0.05
306.847	0.05
307.31	0.05
307.774	0.05
308.238	0.05
308.702	0.05
309.166	0.04
309.63	0.04
310.094	0.04
310.557	0.04
311.021	0.04
311.485	0.04
311.948	0.04
312.412	0.04
312.876	0.04
313.339	0.04
313.803	0.04
314.266	0.04
314.73	0.04
315.193	0.04
315.657	0.04
316.12	0.04
316.584	0.04
317.047	0.04
317.51	0.04
317.973	0.04
318.437	0.04
318.9	0.04
319.363	0.04
319.826	0.04
320.29	0.04
320.753	0.04
321.216	0.04
321.679	0.04
322.142	0.04
322.605	0.04
323.068	0.04
323.531	0.04
323.994	0.04
324.457	0.04
324.92	0.04
325.382	0.04
325.845	0.04
326.308	0.04
326.771	0.04
327.233	0.04
327.696	0.04
328.159	0.04
328.622	0.03
329.084	0.03
329.547	0.03
330.009	0.03
330.472	0.03
330.934	0.03
331.397	0.03
331.859	0.03
332.322	0.03
332.784	0.03
333.246	0.03
333.709	0.03
334.171	0.03
334.633	0.03
335.096	0.03
335.558	0.03
336.02	0.03
336.482	0.03
336.944	0.03
337.406	0.03
337.868	0.03
338.331	0.03
338.793	0.03
339.255	0.03
339.717	0.03
340.178	0.02
340.64	0.02
341.102	0.02
341.564	0.02
342.026	0.02
342.488	0.02
342.949	0.02
343.411	0.02
343.873	0.02
344.335	0.02
344.796	0.02
345.258	0.02
345.719	0.02
346.181	0.02
346.643	0.02
347.104	0.02
347.566	0.02
348.027	0.02
348.488	0.02
348.95	0.01
349.411	0.01
349.873	0.01
350.334	0.01
350.795	0.01
351.256	0.01
351.718	0.01
352.179	0.01
352.64	0.01
353.101	0.01
353.562	0
354.023	0
354.484	0
354.945	0
355.406	-0
355.867	-0
356.328	-0
356.789	-0
357.25	-0
357.711	-0
358.172	-0
358.633	-0
359.093	0
359.554	0
360.015	0
360.476	0
360.936	0.01
361.397	0.01
361.858	0.01
362.318	0.01
362.779	0.01
363.239	0.01
363.7	0.01
364.16	0.01
364.621	0.01
365.081	0.01
365.541	0.01
366.002	0
366.462	0
366.922	0
367.383	0
367.843	0
368.303	0
368.763	0
369.223	0
369.684	0
370.144	0
370.604	0
371.064	-0
371.524	-0
371.984	-0
372.444	-0
372.904	-0
373.363	-0
373.823	-0
374.283	-0
374.743	-0
375.203	-0
375.663	-0
376.122	0
376.582	0
377.042	0
377.501	0
377.961	0
378.42	0
378.88	0
379.34	0
379.799	0
380.259	0
380.718	0
381.177	0
381.637	0
382.096	0
382.555	0
383.015	0
383.474	0
383.933	0
384.393	0
384.852	0
385.311	0
385.77	0
386.229	0
386.688	0
387.147	0
387.606	0
388.065	0
388.524	0
388.983	0
389.442	0
389.901	0
390.36	0
390.819	0
391.277	0.01
391.736	0.01
392.195	0.01
392.654	0.01
393.112	0.01
393.571	0.01
394.03	0.01
394.488	0.01
394.947	0.01
395.405	0.01
395.864	0.01
396.322	0.01
396.781	0.01
397.239	0.01
397.698	0.01
398.156	0.01
398.614	0.01
399.073	0.01
399.531	0.01
399.989	0.01
400.447	0.01
400.905	0.01
401.364	0
401.822	0
402.28	0
402.738	0
403.196	0
403.654	0
404.112	0
404.57	0
405.028	0
405.486	0
405.944	0
406.402	0
406.859	-0
407.317	-0
407.775	-0
408.233	-0
408.691	-0
409.148	-0
409.606	-0
410.064	-0
410.521	-0
410.979	-0
411.436	-0
411.894	-0
412.351	-0
412.809	-0
413.266	-0
413.724	-0
414.181	-0
414.638	-0
415.096	-0
415.553	-0.01
416.01	-0.01
416.467	-0.01
416.925	-0.01
417.382	-0.01
417.839	-0.01
418.296	-0.01
418.753	-0.01
419.21	-0
419.667	-0
420.124	-0
420.581	-0
421.038	-0
421.495	0
421.952	0
422.409	0
422.866	0
423.322	0
423.779	0
424.236	-0
424.693	-0
425.149	-0
425.606	-0
426.063	-0
426.519	-0.01
426.976	-0
427.433	-0
427.889	-0
428.346	-0
428.802	-0
429.258	-0
429.715	-0
430.171	-0
430.628	-0
431.084	-0
431.54	-0
431.997	-0
432.453	-0
432.909	-0.01
433.365	-0.01
433.821	-0.01
434.277	-0.01
434.734	-0.01
435.19	-0.01
435.646	-0.01
436.102	-0.01
436.558	-0.01
437.014	-0.01
437.47	-0.01
437.925	-0.01
438.381	-0.01
438.837	-0.01
439.293	-0.01
439.749	-0.01
440.205	-0.01
440.66	-0.01
441.116	-0.01
441.572	-0.01
442.027	-0.01
442.483	-0.01
442.939	-0.01
443.394	-0.01
443.85	-0.01
444.305	-0.01
444.761	-0.01
445.216	-0.01
445.672	-0.01
446.127	-0.01
446.582	-0.01
447.038	-0.01
447.493	-0.01
447.948	-0.01
448.403	-0.01
448.859	-0.01
449.314	-0.01
449.769	-0.01
450.224	-0.01
450.679	-0.01
451.134	-0.01
451.589	-0.01
452.044	-0.01
452.499	-0.02
452.954	-0.02
453.409	-0.02
453.864	-0.02
454.319	-0.02
454.774	-0.02
455.229	-0.02
455.684	-0.02
456.138	-0.02
456.593	-0.02
457.048	-0.02
457.503	-0.02
457.957	-0.02
458.412	-0.02
458.866	-0.02
459.321	-0.02
459.776	-0.02
460.23	-0.02
460.685	-0.03
461.139	-0.03
461.593	-0.03
462.048	-0.03
462.502	-0.03
462.957	-0.03
463.411	-0.03
463.865	-0.03
464.319	-0.03
464.774	-0.03
465.228	-0.03
465.682	-0.03
466.136	-0.03
466.59	-0.03
467.044	-0.03
467.499	-0.03
467.953	-0.03
468.407	-0.04
468.861	-0.04
469.315	-0.04
469.768	-0.05
470.222	-0.05
470.676	-0.05
471.13	-0.05
471.584	-0.05
472.038	-0.05
472.491	-0.05
472.945	-0.05
473.399	-0.05
473.852	-0.05
474.306	-0.05
474.76	-0.04
475.213	-0.04
475.667	-0.04
476.12	-0.04
476.574	-0.04
477.027	-0.04
477.481	-0.04
477.934	-0.04
478.388	-0.05
478.841	-0.05
479.294	-0.05
479.748	-0.05
480.201	-0.04
480.654	-0.04
481.107	-0.04
481.561	-0.04
482.014	-0.04
482.467	-0.04
482.92	-0.04
483.373	-0.04
483.826	-0.03
484.279	-0.03
484.732	-0.03
485.185	-0.03
485.638	-0.02
486.091	-0.02
486.544	-0.02
486.997	-0.03
487.449	-0.03
487.902	-0.03
488.355	-0.03
488.808	-0.04
489.26	-0.04
489.713	-0.05
490.166	-0.05
490.618	-0.05
491.071	-0.05
491.523	-0.05
491.976	-0.05
492.429	-0.05
492.881	-0.05
493.333	-0.05
493.786	-0.05
494.238	-0.05
494.691	-0.05
495.143	-0.05
495.595	-0.05
496.048	-0.05
496.5	-0.05
496.952	-0.05
497.404	-0.05
497.856	-0.05
498.309	-0.05
498.761	-0.05
499.213	-0.06
499.665	-0.06
500.117	-0.06
500.569	-0.06
501.021	-0.06
501.473	-0.06
501.925	-0.05
502.377	-0.05
502.828	-0.05
503.28	-0.05
503.732	-0.05
504.184	-0.05
504.636	-0.05
505.087	-0.06
505.539	-0.06
505.991	-0.06
506.442	-0.06
506.894	-0.06
507.345	-0.06
507.797	-0.06
508.249	-0.06
508.7	-0.07
509.151	-0.07
509.603	-0.07
510.054	-0.07
510.506	-0.07
510.957	-0.07
511.408	-0.07
511.86	-0.07
512.311	-0.07
512.762	-0.08
513.213	-0.08
513.665	-0.08
514.116	-0.08
514.567	-0.08
515.018	-0.08
515.469	-0.09
515.92	-0.09
516.371	-0.09
516.822	-0.09
517.273	-0.09
517.724	-0.09
518.175	-0.09
518.626	-0.09
519.076	-0.09
519.527	-0.09
519.978	-0.1
520.429	-0.1
520.88	-0.1
521.33	-0.1
521.781	-0.11
522.232	-0.11
522.682	-0.12
523.133	-0.12
523.583	-0.12
524.034	-0.12
524.484	-0.12
524.935	-0.12
525.385	-0.12
525.836	-0.12
526.286	-0.11
526.736	-0.11
527.187	-0.1
527.637	-0.1
528.087	-0.09
528.538	-0.09
528.988	-0.08
529.438	-0.08
529.888	-0.08
530.338	-0.08
530.788	-0.07
531.238	-0.07
531.688	-0.07
532.139	-0.07
532.589	-0.07
533.038	-0.06
533.488	-0.06
533.938	-0.06
534.388	-0.06
534.838	-0.06
535.288	-0.06
535.738	-0.06
536.187	-0.06
536.637	-0.05
537.087	-0.05
537.537	-0.05
537.986	-0.05
538.436	-0.05
538.885	-0.05
539.335	-0.05
539.785	-0.05
540.234	-0.05
540.684	-0.05
541.133	-0.05
541.582	-0.05
542.032	-0.05
542.481	-0.05
542.931	-0.04
543.38	-0.04
543.829	-0.04
544.278	-0.04
544.728	-0.04
545.177	-0.04
545.626	-0.04
546.075	-0.04
546.524	-0.03
546.973	-0.03
547.422	-0.03
547.871	-0.04
548.32	-0.04
548.769	-0.04
549.218	-0.04
549.667	-0.04
550.116	-0.04
550.565	-0.04
551.014	-0.04
551.463	-0.04
551.911	-0.04
552.36	-0.04
552.809	-0.04
553.258	-0.03
553.706	-0.03
554.155	-0.03
554.603	-0.03
555.052	-0.03
555.501	-0.03
555.949	-0.03
556.398	-0.04
556.846	-0.04
557.294	-0.04
557.743	-0.04
558.191	-0.04
558.64	-0.04
559.088	-0.04
559.536	-0.03
559.985	-0.03
560.433	-0.03
560.881	-0.03
561.329	-0.02
561.777	-0.02
562.225	-0.02
562.674	-0.02
563.122	-0.02
563.57	-0.02
564.018	-0.02
564.466	-0.02
564.914	-0.02
565.362	-0.02
565.809	-0.02
566.257	-0.02
566.705	-0.02
567.153	-0.01
567.601	-0.01
568.048	-0
568.496	0
568.944	0.01
569.392	0.02
569.839	0.02
570.287	0.03
570.734	0.03
571.182	0.04
571.63	0.04
572.077	0.04
572.525	0.05
572.972	0.05
573.419	0.05
573.867	0.05
574.314	0.05
574.761	0.05
575.209	0.06
575.656	0.06
576.103	0.06
576.551	0.07
576.998	0.07
577.445	0.07
577.892	0.07
578.339	0.07
578.786	0.07
579.233	0.07
579.68	0.08
580.127	0.08
580.574	0.08
581.021	0.07
581.468	0.07
581.915	0.07
582.362	0.07
582.809	0.07
583.255	0.08
583.702	0.08
584.149	0.07
584.596	0.07
585.042	0.07
585.489	0.07
585.936	0.07
586.382	0.07
586.829	0.07
587.275	0.07
587.722	0.06
588.168	0.06
588.615	0.06
589.061	0.05
589.508	0.05
589.954	0.05
590.4	0.05
590.847	0.05
591.293	0.05
591.739	0.06
592.185	0.06
592.632	0.06
593.078	0.06
593.524	0.06
593.97	0.06
594.416	0.06
594.862	0.06
595.308	0.06
595.754	0.05
596.2	0.05
596.646	0.05
597.092	0.05
597.538	0.06
597.984	0.06
598.43	0.06
598.876	0.06
599.321	0.06
599.767	0.06
600.213	0.06
600.659	0.06
601.104	0.06
601.55	0.06
601.995	0.06
602.441	0.06
602.887	0.05
603.332	0.05
603.778	0.05
604.223	0.06
604.668	0.06
605.114	0.06
605.559	0.06
606.005	0.06
606.45	0.06
606.895	0.06
607.341	0.06
607.786	0.06
608.231	0.06
608.676	0.06
609.121	0.06
609.566	0.05
610.012	0.05
610.457	0.05
610.902	0.05
611.347	0.05
611.792	0.05
612.237	0.05
612.682	0.05
613.127	0.05
613.571	0.05
614.016	0.05
614.461	0.05
614.906	0.05
615.351	0.05
615.795	0.05
616.24	0.04
616.685	0.04
617.129	0.04
617.574	0.04
618.019	0.03
618.463	0.03
618.908	0.03
619.352	0.02
619.797	0.03
620.241	0.03
620.686	0.03
621.13	0.03
621.574	0.03
622.019	0.03
622.463	0.03
622.907	0.03
623.352	0.03
623.796	0.03
624.24	0.03
624.684	0.03
625.128	0.03
625.572	0.02
626.016	0.02
626.461	0.02
626.905	0.02
627.349	0.02
627.793	0.02
628.236	0.02
628.68	0.02
629.124	0.01
629.568	0.01
630.012	0.01
630.456	0.01
630.9	0.01
631.343	0
631.787	0
632.231	0
632.674	-0
633.118	-0
633.562	-0
634.005	-0
634.449	-0
634.892	-0
635.336	-0
635.779	-0
636.223	-0
636.666	0
637.109	0
637.553	0
637.996	0
638.439	0
638.883	-0
639.326	-0
639.769	-0
640.212	-0
640.655	-0
641.099	-0
641.542	-0
641.985	-0
642.428	-0
642.871	-0
643.314	-0
643.757	-0
644.2	-0
644.643	-0
645.085	-0
645.528	-0
645.971	0
646.414	0
646.857	0.01
647.299	0.01
647.742	0.01
648.185	0.01
648.627	0.01
649.07	0.01
649.513	0.01
649.955	0.01
650.398	0.02
650.84	0.02
651.283	0.01
651.725	0.01
652.168	0.01
652.61	0.01
653.052	0.02
653.495	0.02
653.937	0.03
654.379	0.03
654.821	0.04
655.264	0.04
655.706	0.04
656.148	0.04
656.59	0.04
657.032	0.04
657.474	0.04
657.916	0.04
658.358	0.04
658.8	0.03
659.242	0.03
659.684	0.02
660.126	0.02
660.568	0.02
661.01	0.02
661.452	0.02
661.894	0.02
662.335	0.02
662.777	0.02
663.219	0.02
663.661	0.02
664.102	0.02
664.544	0.02
664.985	0.02
665.427	0.02
665.869	0.02
666.31	0.02
666.752	0.02
667.193	0.03
667.634	0.03
668.076	0.03
668.517	0.03
668.959	0.03
669.4	0.03
669.841	0.03
670.282	0.04
670.724	0.04
671.165	0.04
671.606	0.04
672.047	0.04
672.488	0.04
672.929	0.03
673.37	0.03
673.811	0.03
674.252	0.03
674.693	0.03
675.134	0.03
675.575	0.03
676.016	0.03
676.457	0.03
676.898	0.03
677.339	0.03
677.78	0.04
678.22	0.04
678.661	0.04
679.102	0.04
679.542	0.04
679.983	0.04
680.424	0.04
680.864	0.04
681.305	0.04
681.745	0.04
682.186	0.04
682.626	0.04
683.067	0.05
683.507	0.05
683.948	0.05
684.388	0.05
684.828	0.05
685.269	0.05
685.709	0.05
686.149	0.06
686.589	0.06
687.029	0.06
687.47	0.06
687.91	0.06
688.35	0.06
688.79	0.06
689.23	0.06
689.67	0.06
690.11	0.06
690.55	0.06
690.99	0.06
691.43	0.06
691.87	0.06
692.31	0.06
692.749	0.06
693.189	0.07
693.629	0.07
694.069	0.07
694.508	0.07
694.948	0.07
695.388	0.07
695.827	0.07
696.267	0.07
696.706	0.07
697.146	0.07
697.586	0.07
698.025	0.07
698.464	0.07
698.904	0.07
699.343	0.07
699.783	0.07
700.222	0.07
700.661	0.07
701.101	0.07
701.54	0.07
701.979	0.08
702.418	0.08
702.857	0.08
703.297	0.08
703.736	0.08
704.175	0.08
704.614	0.08
705.053	0.08
705.492	0.08
705.931	0.08
706.37	0.08
706.809	0.08
707.248	0.08
707.687	0.08
708.125	0.08
708.564	0.08
709.003	0.08
709.442	0.08
709.88	0.08
710.319	0.08
710.758	0.08
711.196	0.08
711.635	0.08
712.074	0.08
712.512	0.08
712.951	0.08
713.389	0.08
713.828	0.08
714.266	0.08
714.705	0.08
715.143	0.08
715.581	0.08
716.02	0.08
716.458	0.08
716.896	0.07
717.334	0.07
717.773	0.07
718.211	0.07
718.649	0.07
719.087	0.07
719.525	0.07
719.963	0.07
720.401	0.07
720.839	0.07
721.277	0.07
721.715	0.07
722.153	0.07
722.591	0.07
723.029	0.07
723.467	0.07
723.905	0.07
724.342	0.07
724.78	0.06
725.218	0.06
725.656	0.06
726.093	0.06
726.531	0.06
726.969	0.06
727.406	0.06
727.844	0.06
728.281	0.06
728.719	0.06
729.156	0.07
729.594	0.07
730.031	0.07
730.469	0.07
730.906	0.07
731.343	0.07
731.781	0.07
732.218	0.06
732.655	0.06
733.092	0.06
733.53	0.06
733.967	0.06
734.404	0.06
734.841	0.05
735.278	0.05
735.715	0.05
736.152	0.05
736.589	0.05
737.026	0.05
737.463	0.05
737.9	0.05
738.337	0.04
738.774	0.04
739.211	0.04
739.647	0.04
740.084	0.03
740.521	0.03
740.958	0.03
741.394	0.02
741.831	0.02
742.268	0.01
742.704	0
743.141	0
743.577	-0
744.014	-0
744.45	-0.01
744.887	-0.01
745.323	-0.01
745.76	-0.01
746.196	-0.01
746.632	-0.01
747.069	-0
747.505	-0
747.941	0
748.378	0
748.814	0.01
749.25	0.01
749.686	0.01
750.122	0.01
750.558	0.01
750.994	0.01
751.43	0.01
751.866	0.02
752.302	0.01
752.738	0.01
753.174	0.01
753.61	0.02
754.046	0.02
754.482	0.02
754.918	0.02
755.354	0.02
755.789	0.03
756.225	0.03
756.661	0.03
757.096	0.03
757.532	0.03
757.968	0.03
758.403	0.03
758.839	0.03
759.274	0.02
759.71	0.02
760.145	0.02
760.581	0.01
761.016	0.01
761.452	0
761.887	0
762.322	-0
762.758	0
763.193	0
763.628	-0
764.063	-0.01
764.499	-0.01
764.934	-0.01
765.369	-0.02
765.804	-0.02
766.239	-0.02
766.674	-0.01
767.109	-0.02
767.544	-0.02
767.979	-0.03
768.414	-0.03
768.849	-0.03
769.284	-0.03
769.719	-0.03
770.154	-0.03
770.588	-0.03
771.023	-0.03
771.458	-0.04
771.893	-0.04
772.327	-0.05
772.762	-0.05
773.197	-0.05
773.631	-0.05
774.066	-0.05
774.5	-0.06
774.935	-0.06
775.369	-0.06
775.804	-0.06
776.238	-0.06
776.673	-0.06
777.107	-0.05
777.541	-0.05
777.976	-0.05
778.41	-0.05
778.844	-0.05
779.279	-0.04
779.713	-0.04
780.147	-0.03
780.581	-0.03
781.015	-0.03
781.449	-0.03
781.883	-0.03
782.317	-0.03
782.751	-0.03
783.185	-0.02
783.619	-0.03
784.053	-0.03
784.487	-0.03
784.921	-0.03
785.355	-0.03
785.789	-0.03
786.223	-0.03
786.656	-0.03
787.09	-0.02
787.524	-0.02
787.957	-0.02
788.391	-0.02
788.825	-0.02
789.258	-0.02
789.692	-0.02
790.125	-0.02
790.559	-0.02
790.992	-0.02
791.426	-0.02
791.859	-0.02
792.293	-0.01
792.726	-0.01
793.159	-0
793.593	-0
794.026	-0
794.459	-0.01
794.892	-0.01
795.326	-0.01
795.759	-0.01
796.192	-0.01
796.625	-0.02
797.058	-0.03
797.491	-0.04
797.924	-0.04
798.357	-0.04
798.79	-0.04
799.223	-0.04
799.656	-0.04
800.089	-0.04
800.522	-0.04
800.955	-0.04
801.387	-0.04
801.82	-0.04
802.253	-0.05
802.686	-0.05
803.118	-0.05
803.551	-0.05
803.984	-0.04
804.416	-0.04
804.849	-0.03
805.281	-0.03
805.714	-0.03
806.146	-0.03
806.579	-0.03
807.011	-0.03
807.444	-0.03
807.876	-0.03
808.308	-0.03
808.741	-0.04
809.173	-0.04
809.605	-0.04
810.037	-0.05
810.47	-0.05
810.902	-0.05
811.334	-0.05
811.766	-0.05
812.198	-0.04
812.63	-0.04
813.062	-0.04
813.494	-0.04
813.926	-0.04
814.358	-0.04
814.79	-0.04
815.222	-0.04
815.654	-0.03
816.086	-0.03
816.518	-0.04
816.949	-0.04
817.381	-0.04
817.813	-0.04
818.245	-0.04
818.676	-0.03
819.108	-0.03
819.54	-0.03
819.971	-0.03
820.403	-0.04
820.834	-0.04
821.266	-0.04
821.697	-0.04
822.129	-0.04
822.56	-0.04
822.991	-0.04
823.423	-0.04
823.854	-0.04
824.286	-0.04
824.717	-0.04
825.148	-0.04
825.579	-0.03
826.01	-0.03
826.442	-0.03
826.873	-0.03
827.304	-0.02
827.735	-0.02
828.166	-0.02
828.597	-0.01
829.028	-0.01
829.459	-0.01
829.89	-0.01
830.321	-0.01
830.752	0
831.183	0.01
831.613	0.01
832.044	0.02
832.475	0.03
832.906	0.03
833.336	0.04
833.767	0.04
834.198	0.05
834.628	0.05
835.059	0.05
835.49	0.06
835.92	0.06
836.351	0.06
836.781	0.06
837.212	0.07
837.642	0.07
838.072	0.07
838.503	0.07
838.933	0.07
839.364	0.08
839.794	0.08
840.224	0.08
840.654	0.08
841.085	0.08
841.515	0.09
841.945	0.09
842.375	0.1
842.805	0.1
843.235	0.1
843.665	0.11
844.095	0.11
844.525	0.11
844.955	0.12
845.385	0.12
845.815	0.12
846.245	0.13
846.675	0.13
847.105	0.13
847.534	0.14
847.964	0.14
848.394	0.14
848.824	0.15
849.253	0.15
849.683	0.15
850.112	0.15
850.542	0.16
850.972	0.16
851.401	0.16
851.831	0.16
852.26	0.16
852.69	0.17
853.119	0.17
853.548	0.17
853.978	0.17
854.407	0.17
854.836	0.17
855.266	0.18
855.695	0.18
856.124	0.18
856.553	0.18
856.983	0.18
857.412	0.19
857.841	0.19
858.27	0.19
858.699	0.19
859.128	0.19
859.557	0.19
859.986	0.19
860.415	0.2
860.844	0.2
861.273	0.2
861.702	0.2
862.13	0.2
862.559	0.2
862.988	0.21
863.417	0.21
863.845	0.21
864.274	0.21
864.703	0.21
865.131	0.21
865.56	0.22
865.989	0.22
866.417	0.22
866.846	0.22
867.274	0.22
867.703	0.22
868.131	0.22
868.559	0.23
868.988	0.23
869.416	0.23
869.844	0.23
870.273	0.23
870.701	0.23
871.129	0.23
871.557	0.23
871.986	0.23
872.414	0.23
872.842	0.24
873.27	0.24
873.698	0.24
874.126	0.24
874.554	0.24
874.982	0.24
875.41	0.24
875.838	0.24
876.266	0.24
876.694	0.24
877.122	0.24
877.549	0.24
877.977	0.24
878.405	0.24
878.833	0.24
879.26	0.24
879.688	0.24
880.116	0.24
880.543	0.24
880.971	0.24
881.399	0.24
881.826	0.24
882.254	0.24
882.681	0.24
883.109	0.24
883.536	0.24
883.963	0.24
884.391	0.24
884.818	0.24
885.245	0.24
885.673	0.24
886.1	0.24
886.527	0.24
886.954	0.24
887.381	0.25
887.809	0.25
888.236	0.25
888.663	0.25
889.09	0.25
889.517	0.25
889.944	0.25
890.371	0.25
890.798	0.25
891.225	0.25
891.652	0.25
892.078	0.25
892.505	0.25
892.932	0.25
893.359	0.25
893.786	0.25
894.212	0.25
894.639	0.25
895.066	0.25
895.492	0.26
895.919	0.26
896.346	0.26
896.772	0.26
897.199	0.26
897.625	0.26
898.052	0.26
898.478	0.26
898.904	0.26
899.331	0.26
899.757	0.26
900.183	0.26
900.61	0.26
901.036	0.26
901.462	0.26
901.888	0.26
902.315	0.26
902.741	0.26
903.167	0.26
903.593	0.26
904.019	0.26
904.445	0.26
904.871	0.26
905.297	0.26
905.723	0.26
906.149	0.26
906.575	0.26
907.001	0.26
907.427	0.26
907.852	0.27
908.278	0.27
908.704	0.27
909.13	0.27
909.555	0.27
909.981	0.27
910.407	0.27
910.832	0.27
911.258	0.27
911.684	0.27
912.109	0.27
912.535	0.27
912.96	0.27
913.386	0.27
913.811	0.27
914.236	0.27
914.662	0.27
915.087	0.27
915.512	0.27
915.938	0.27
916.363	0.27
916.788	0.27
917.213	0.27
917.639	0.27
918.064	0.27
918.489	0.27
918.914	0.27
919.339	0.28
919.764	0.28
920.189	0.28
920.614	0.28
921.039	0.28
921.464	0.28
921.889	0.28
922.314	0.28
922.738	0.28
923.163	0.28
923.588	0.28
924.013	0.28
924.437	0.28
924.862	0.28
925.287	0.28
925.711	0.28
926.136	0.28
926.561	0.28
926.985	0.28
927.41	0.28
927.834	0.29
928.259	0.29
928.683	0.29
929.108	0.29
929.532	0.29
929.956	0.29
930.381	0.3
930.805	0.3
931.229	0.3
931.653	0.3
932.078	0.3
932.502	0.3
932.926	0.3
933.35	0.31
933.774	0.31
934.198	0.31
934.622	0.31
935.046	0.31
935.47	0.32
935.894	0.32
936.318	0.32
936.742	0.33
937.166	0.33
937.59	0.34
938.014	0.34
938.437	0.35
938.861	0.35
939.285	0.36
939.709	0.36
940.132	0.37
940.556	0.38
940.98	0.38
941.403	0.39
941.827	0.39
942.25	0.39
942.674	0.4
943.097	0.4
943.521	0.4
943.944	0.4
944.368	0.41
944.791	0.41
945.214	0.41
945.638	0.41
946.061	0.4
946.484	0.4
946.907	0.4
947.331	0.4
947.754	0.39
948.177	0.39
948.6	0.39
949.023	0.38
949.446	0.38
949.869	0.37
950.292	0.37
950.715	0.36
951.138	0.36
951.561	0.36
951.984	0.35
952.407	0.35
952.83	0.35
953.252	0.35
953.675	0.34
954.098	0.34
954.521	0.34
954.943	0.34
955.366	0.34
955.789	0.34
956.211	0.34
956.634	0.34
957.056	0.34
957.479	0.34
957.902	0.34
958.324	0.33
958.746	0.33
959.169	0.33
959.591	0.33
960.014	0.33
960.436	0.33
960.858	0.33
961.281	0.33
961.703	0.33
962.125	0.33
962.547	0.33
962.969	0.33
963.391	0.33
963.814	0.33
964.236	0.33
964.658	0.32
965.08	0.32
965.502	0.32
965.924	0.32
966.346	0.32
966.768	0.32
967.189	0.32
967.611	0.32
968.033	0.32
968.455	0.32
968.877	0.33
969.298	0.33
969.72	0.33
970.142	0.33
970.563	0.33
970.985	0.33
971.407	0.33
971.828	0.33
972.25	0.33
972.671	0.33
973.093	0.33
973.514	0.33
973.936	0.33
974.357	0.33
974.778	0.33
975.2	0.33
975.621	0.33
976.042	0.33
976.464	0.33
976.885	0.33
977.306	0.33
977.727	0.33
978.148	0.33
978.57	0.33
978.991	0.33
979.412	0.33
979.833	0.33
980.254	0.33
980.675	0.33
981.096	0.33
981.517	0.33
981.937	0.33
982.358	0.33
982.779	0.34
983.2	0.34
983.621	0.34
984.042	0.34
984.462	0.34
984.883	0.34
985.304	0.33
985.724	0.33
986.145	0.33
986.565	0.33
986.986	0.33
987.407	0.34
987.827	0.34
988.248	0.34
988.668	0.34
989.088	0.34
989.509	0.34
989.929	0.34
990.35	0.34
990.77	0.34
991.19	0.34
991.61	0.34
992.031	0.34
992.451	0.34
992.871	0.34
993.291	0.34
993.711	0.34
994.131	0.34
994.551	0.34
994.971	0.34
995.391	0.34
995.811	0.34
996.231	0.34
996.651	0.34
997.071	0.34
997.491	0.34
997.911	0.34
998.331	0.34
998.75	0.34
999.17	0.34
999.59	0.34
1000.009	0.34
1000.429	0.34
1000.849	0.34
1001.268	0.34
1001.688	0.34
1002.107	0.34
1002.527	0.34
1002.946	0.34
1003.366	0.34
1003.785	0.34
1004.205	0.34
1004.624	0.34
1005.044	0.34
1005.463	0.34
1005.882	0.34
1006.301	0.34
1006.721	0.34
1007.14	0.34
1007.559	0.34
1007.978	0.34
1008.397	0.34
1008.816	0.34
1009.235	0.34
1009.655	0.35
1010.074	0.34
1010.492	0.34
1010.911	0.34
1011.33	0.34
1011.749	0.34
1012.168	0.34
1012.587	0.34
1013.006	0.34
1013.425	0.34
1013.843	0.34
1014.262	0.34
1014.681	0.35
1015.099	0.35
1015.518	0.35
1015.937	0.35
1016.355	0.35
1016.774	0.35
1017.192	0.35
1017.611	0.35
1018.029	0.35
1018.448	0.36
1018.866	0.36
1019.285	0.36
1019.703	0.36
1020.121	0.36
1020.54	0.36
1020.958	0.36
1021.376	0.36
1021.794	0.36
1022.213	0.35
1022.631	0.35
1023.049	0.35
1023.467	0.35
1023.885	0.35
1024.303	0.35
1024.721	0.35
1025.139	0.35
1025.557	0.36
1025.975	0.36
1026.393	0.36
1026.811	0.36
1027.229	0.36
1027.647	0.36
1028.065	0.36
1028.482	0.36
1028.9	0.36
1029.318	0.36
1029.735	0.36
1030.153	0.36
1030.571	0.36
1030.988	0.36
1031.406	0.36
1031.823	0.36
1032.241	0.36
1032.659	0.36
1033.076	0.36
1033.493	0.36
1033.911	0.36
1034.328	0.37
1034.746	0.37
1035.163	0.37
1035.58	0.37
1035.997	0.37
1036.415	0.38
1036.832	0.38
1037.249	0.38
1037.666	0.38
1038.083	0.39
1038.501	0.39
1038.918	0.39
1039.335	0.39
1039.752	0.4
1040.169	0.4
1040.586	0.4
1041.003	0.4
1041.419	0.4
1041.836	0.4
1042.253	0.4
1042.67	0.41
1043.087	0.41
1043.504	0.41
1043.92	0.41
1044.337	0.42
1044.754	0.42
1045.17	0.42
1045.587	0.43
1046.004	0.43
1046.42	0.43
1046.837	0.44
1047.253	0.44
1047.67	0.44
1048.086	0.44
1048.503	0.44
1048.919	0.44
1049.335	0.44
1049.752	0.45
1050.168	0.45
1050.584	0.45
1051.001	0.46
1051.417	0.46
1051.833	0.47
1052.249	0.47
1052.665	0.48
1053.081	0.48
1053.497	0.49
1053.914	0.5
1054.33	0.5
1054.746	0.5
1055.162	0.51
1055.578	0.51
1055.993	0.51
1056.409	0.52
1056.825	0.52
1057.241	0.53
1057.657	0.53
1058.073	0.54
1058.488	0.55
1058.904	0.55
1059.32	0.56
1059.736	0.57
1060.151	0.58
1060.567	0.59
1060.982	0.6
1061.398	0.6
1061.813	0.6
1062.229	0.61
1062.644	0.61
1063.06	0.62
1063.475	0.63
1063.891	0.63
1064.306	0.64
1064.721	0.65
1065.137	0.66
1065.552	0.67
1065.967	0.68
1066.382	0.7
1066.798	0.71
1067.213	0.72
1067.628	0.73
1068.043	0.74
1068.458	0.75
1068.873	0.77
1069.288	0.78
1069.703	0.79
1070.118	0.81
1070.533	0.83
1070.948	0.85
1071.363	0.87
1071.778	0.9
1072.193	0.93
1072.607	0.96
1073.022	1
1073.437	1.03
1073.852	1.07
1074.266	1.11
1074.681	1.16
1075.096	1.21
1075.51	1.29
1075.925	1.38
1076.339	1.5
1076.754	1.67
1077.168	1.98
1077.583	-0
1077.997	-0
1078.412	-0
1078.826	-0
1079.24	-0
1079.655	-0
1080.069	-0
1080.483	-0
1080.897	-0
1081.312	-0
1081.726	-0
1082.14	-0
1082.554	-0
1082.968	-0
1083.382	-0
1083.796	-0
1084.21	-0
1084.624	-0
1085.038	-0
1085.452	-0
1085.866	-0
1086.28	-0
1086.694	-0
1087.108	-0
1087.521	-0
1087.935	-0
1088.349	-0
1088.763	-0
1089.176	-0
1089.59	-0
1090.004	-0
1090.417	-0
1090.831	-0
1091.244	-0
1091.658	-0
1092.071	-0
1092.485	-0
1092.898	-0
1093.312	-0
1093.725	-0
1094.138	-0
1094.552	-0
1094.965	-0
1095.378	-0
1095.791	-0
1096.205	-0
1096.618	-0
1097.031	-0
1097.444	-0
1097.857	-0
1098.27	-0
1098.683	-0
1099.096	-0
1099.509	-0
1099.922	-0
1100.335	-0
1100.748	-0
1101.161	-0
1101.574	-0
1101.986	-0
1102.399	-0
1102.812	-0
1103.225	-0
1103.637	-0
1104.05	-0
1104.463	-0
1104.875	-0
1105.288	-0
1105.7	-0
1106.113	-0
1106.525	-0
1106.938	-0
1107.35	-0
1107.763	-0
1108.175	-0
1108.588	-0
1109	-0
1109.412	-0
1109.824	-0
1110.237	-0
1110.649	-0
1111.061	-0
