Data from redip-kinet-2-5a_Absorbance__27__00027.txt Node

Date: Fri Apr 12 13:46:24 CEST 2024
User: Laser008
Spectrometer: MAYP115816
Trigger mode: 0
Integration Time (sec): 2.000000E-1
Scans to average: 10
Electric dark correction enabled: true
Nonlinearity correction enabled: true
Boxcar width: 5
XAxis mode: Wavelengths
Number of Pixels in Spectrum: 2068
>>>>>Begin Spectral Data<<<<<
198.914	-2.49
199.384	-2.33
199.855	-2.19
200.325	-2.07
200.796	-2
201.266	-1.94
201.737	-1.87
202.207	-1.8
202.677	-1.75
203.147	-1.7
203.618	-1.67
204.088	-1.64
204.558	-1.62
205.028	-1.61
205.498	-1.61
205.968	-1.6
206.439	-1.6
206.909	-1.6
207.379	-1.59
207.849	-1.59
208.319	-1.59
208.789	-1.58
209.258	-1.58
209.728	-1.58
210.198	-1.58
210.668	-1.58
211.138	-1.57
211.608	-1.57
212.077	-1.57
212.547	-1.57
213.017	-1.57
213.486	-1.57
213.956	-1.57
214.426	-1.57
214.895	-1.57
215.365	-1.56
215.834	-1.56
216.304	-1.56
216.773	-1.56
217.243	-1.56
217.712	-1.55
218.181	-1.55
218.651	-1.55
219.12	-1.55
219.589	-1.55
220.058	-1.54
220.528	-1.54
220.997	-1.53
221.466	-1.53
221.935	-1.53
222.404	-1.52
222.873	-1.52
223.342	-1.51
223.812	-1.5
224.281	-1.5
224.749	-1.49
225.218	-1.48
225.687	-1.47
226.156	-1.46
226.625	-1.44
227.094	-1.43
227.563	-1.41
228.031	-1.39
228.5	-1.37
228.969	-1.35
229.438	-1.32
229.906	-1.29
230.375	-1.25
230.844	-1.21
231.312	-1.17
231.781	-1.13
232.249	-1.08
232.718	-1.04
233.186	-0.99
233.655	-0.94
234.123	-0.89
234.591	-0.84
235.06	-0.79
235.528	-0.74
235.996	-0.69
236.465	-0.64
236.933	-0.59
237.401	-0.55
237.869	-0.51
238.337	-0.47
238.805	-0.43
239.274	-0.39
239.742	-0.36
240.21	-0.33
240.678	-0.29
241.146	-0.27
241.614	-0.24
242.081	-0.21
242.549	-0.19
243.017	-0.17
243.485	-0.15
243.953	-0.13
244.421	-0.11
244.888	-0.09
245.356	-0.08
245.824	-0.06
246.291	-0.05
246.759	-0.04
247.227	-0.02
247.694	-0.01
248.162	-0
248.629	0.01
249.097	0.02
249.564	0.03
250.032	0.04
250.499	0.04
250.967	0.05
251.434	0.06
251.901	0.07
252.369	0.07
252.836	0.08
253.303	0.09
253.77	0.09
254.237	0.1
254.705	0.1
255.172	0.11
255.639	0.11
256.106	0.12
256.573	0.12
257.04	0.12
257.507	0.13
257.974	0.13
258.441	0.13
258.908	0.13
259.375	0.14
259.841	0.14
260.308	0.14
260.775	0.14
261.242	0.14
261.709	0.15
262.175	0.15
262.642	0.15
263.109	0.15
263.575	0.15
264.042	0.15
264.508	0.15
264.975	0.15
265.441	0.15
265.908	0.15
266.374	0.15
266.841	0.15
267.307	0.15
267.773	0.15
268.24	0.15
268.706	0.15
269.172	0.15
269.639	0.15
270.105	0.15
270.571	0.15
271.037	0.15
271.503	0.15
271.969	0.15
272.435	0.15
272.902	0.15
273.368	0.15
273.834	0.15
274.3	0.15
274.765	0.14
275.231	0.14
275.697	0.14
276.163	0.14
276.629	0.14
277.095	0.14
277.56	0.14
278.026	0.13
278.492	0.13
278.958	0.13
279.423	0.13
279.889	0.13
280.354	0.13
280.82	0.13
281.286	0.13
281.751	0.13
282.217	0.13
282.682	0.13
283.147	0.13
283.613	0.13
284.078	0.13
284.544	0.13
285.009	0.13
285.474	0.13
285.939	0.13
286.405	0.13
286.87	0.12
287.335	0.12
287.8	0.12
288.265	0.12
288.73	0.12
289.195	0.12
289.66	0.12
290.125	0.12
290.59	0.12
291.055	0.12
291.52	0.12
291.985	0.12
292.45	0.12
292.915	0.12
293.38	0.12
293.844	0.12
294.309	0.12
294.774	0.12
295.239	0.12
295.703	0.12
296.168	0.12
296.632	0.12
297.097	0.12
297.562	0.12
298.026	0.12
298.491	0.12
298.955	0.12
299.419	0.12
299.884	0.12
300.348	0.12
300.813	0.12
301.277	0.12
301.741	0.12
302.205	0.12
302.67	0.12
303.134	0.12
303.598	0.11
304.062	0.11
304.526	0.11
304.99	0.11
305.454	0.11
305.919	0.11
306.383	0.11
306.847	0.11
307.31	0.11
307.774	0.11
308.238	0.11
308.702	0.11
309.166	0.11
309.63	0.11
310.094	0.11
310.557	0.11
311.021	0.11
311.485	0.11
311.948	0.11
312.412	0.11
312.876	0.11
313.339	0.11
313.803	0.11
314.266	0.11
314.73	0.11
315.193	0.11
315.657	0.11
316.12	0.11
316.584	0.11
317.047	0.11
317.51	0.11
317.973	0.11
318.437	0.1
318.9	0.1
319.363	0.1
319.826	0.1
320.29	0.1
320.753	0.1
321.216	0.1
321.679	0.1
322.142	0.1
322.605	0.1
323.068	0.1
323.531	0.1
323.994	0.1
324.457	0.1
324.92	0.1
325.382	0.1
325.845	0.1
326.308	0.1
326.771	0.1
327.233	0.1
327.696	0.09
328.159	0.09
328.622	0.09
329.084	0.09
329.547	0.09
330.009	0.09
330.472	0.09
330.934	0.09
331.397	0.09
331.859	0.09
332.322	0.09
332.784	0.09
333.246	0.09
333.709	0.09
334.171	0.09
334.633	0.09
335.096	0.09
335.558	0.09
336.02	0.09
336.482	0.09
336.944	0.08
337.406	0.08
337.868	0.08
338.331	0.08
338.793	0.08
339.255	0.08
339.717	0.08
340.178	0.08
340.64	0.08
341.102	0.08
341.564	0.08
342.026	0.08
342.488	0.08
342.949	0.08
343.411	0.08
343.873	0.08
344.335	0.08
344.796	0.08
345.258	0.07
345.719	0.07
346.181	0.07
346.643	0.07
347.104	0.07
347.566	0.07
348.027	0.07
348.488	0.07
348.95	0.07
349.411	0.07
349.873	0.07
350.334	0.07
350.795	0.07
351.256	0.06
351.718	0.06
352.179	0.06
352.64	0.06
353.101	0.06
353.562	0.06
354.023	0.06
354.484	0.06
354.945	0.05
355.406	0.05
355.867	0.05
356.328	0.05
356.789	0.05
357.25	0.05
357.711	0.05
358.172	0.05
358.633	0.05
359.093	0.05
359.554	0.05
360.015	0.06
360.476	0.06
360.936	0.06
361.397	0.06
361.858	0.06
362.318	0.06
362.779	0.06
363.239	0.06
363.7	0.06
364.16	0.06
364.621	0.06
365.081	0.06
365.541	0.06
366.002	0.06
366.462	0.06
366.922	0.06
367.383	0.06
367.843	0.06
368.303	0.05
368.763	0.05
369.223	0.05
369.684	0.05
370.144	0.05
370.604	0.05
371.064	0.05
371.524	0.05
371.984	0.05
372.444	0.05
372.904	0.05
373.363	0.05
373.823	0.05
374.283	0.05
374.743	0.05
375.203	0.05
375.663	0.05
376.122	0.05
376.582	0.05
377.042	0.05
377.501	0.05
377.961	0.05
378.42	0.05
378.88	0.05
379.34	0.05
379.799	0.06
380.259	0.06
380.718	0.06
381.177	0.05
381.637	0.05
382.096	0.05
382.555	0.05
383.015	0.05
383.474	0.05
383.933	0.05
384.393	0.05
384.852	0.05
385.311	0.05
385.77	0.05
386.229	0.05
386.688	0.05
387.147	0.05
387.606	0.05
388.065	0.05
388.524	0.05
388.983	0.05
389.442	0.05
389.901	0.05
390.36	0.05
390.819	0.05
391.277	0.05
391.736	0.05
392.195	0.06
392.654	0.06
393.112	0.06
393.571	0.06
394.03	0.06
394.488	0.06
394.947	0.05
395.405	0.05
395.864	0.05
396.322	0.05
396.781	0.05
397.239	0.05
397.698	0.06
398.156	0.06
398.614	0.06
399.073	0.06
399.531	0.06
399.989	0.06
400.447	0.05
400.905	0.05
401.364	0.05
401.822	0.05
402.28	0.05
402.738	0.05
403.196	0.05
403.654	0.05
404.112	0.05
404.57	0.05
405.028	0.05
405.486	0.05
405.944	0.05
406.402	0.05
406.859	0.05
407.317	0.05
407.775	0.05
408.233	0.05
408.691	0.04
409.148	0.04
409.606	0.04
410.064	0.04
410.521	0.04
410.979	0.04
411.436	0.04
411.894	0.04
412.351	0.04
412.809	0.04
413.266	0.04
413.724	0.04
414.181	0.04
414.638	0.04
415.096	0.04
415.553	0.04
416.01	0.04
416.467	0.04
416.925	0.04
417.382	0.04
417.839	0.04
418.296	0.04
418.753	0.04
419.21	0.04
419.667	0.04
420.124	0.04
420.581	0.05
421.038	0.05
421.495	0.05
421.952	0.05
422.409	0.05
422.866	0.05
423.322	0.05
423.779	0.05
424.236	0.05
424.693	0.04
425.149	0.04
425.606	0.04
426.063	0.04
426.519	0.04
426.976	0.04
427.433	0.04
427.889	0.04
428.346	0.04
428.802	0.04
429.258	0.05
429.715	0.05
430.171	0.05
430.628	0.05
431.084	0.05
431.54	0.04
431.997	0.04
432.453	0.04
432.909	0.04
433.365	0.04
433.821	0.04
434.277	0.04
434.734	0.04
435.19	0.04
435.646	0.04
436.102	0.04
436.558	0.04
437.014	0.04
437.47	0.04
437.925	0.04
438.381	0.04
438.837	0.04
439.293	0.04
439.749	0.04
440.205	0.04
440.66	0.04
441.116	0.04
441.572	0.04
442.027	0.04
442.483	0.04
442.939	0.04
443.394	0.04
443.85	0.04
444.305	0.04
444.761	0.04
445.216	0.04
445.672	0.04
446.127	0.04
446.582	0.04
447.038	0.04
447.493	0.04
447.948	0.04
448.403	0.04
448.859	0.04
449.314	0.04
449.769	0.04
450.224	0.04
450.679	0.04
451.134	0.03
451.589	0.03
452.044	0.03
452.499	0.03
452.954	0.03
453.409	0.03
453.864	0.03
454.319	0.03
454.774	0.03
455.229	0.03
455.684	0.03
456.138	0.03
456.593	0.03
457.048	0.03
457.503	0.02
457.957	0.02
458.412	0.02
458.866	0.03
459.321	0.03
459.776	0.02
460.23	0.02
460.685	0.02
461.139	0.02
461.593	0.02
462.048	0.02
462.502	0.02
462.957	0.02
463.411	0.02
463.865	0.02
464.319	0.02
464.774	0.02
465.228	0.02
465.682	0.02
466.136	0.02
466.59	0.02
467.044	0.02
467.499	0.02
467.953	0.02
468.407	0.01
468.861	0.01
469.315	0.01
469.768	0
470.222	0
470.676	0
471.13	0
471.584	0
472.038	0
472.491	0
472.945	0
473.399	0
473.852	0
474.306	0.01
474.76	0.01
475.213	0.01
475.667	0.01
476.12	0.01
476.574	0.01
477.027	0.01
477.481	0.01
477.934	0.01
478.388	0.01
478.841	0.01
479.294	0.01
479.748	0.01
480.201	0.01
480.654	0.01
481.107	0.01
481.561	0.01
482.014	0.01
482.467	0.01
482.92	0.01
483.373	0.02
483.826	0.02
484.279	0.03
484.732	0.03
485.185	0.03
485.638	0.03
486.091	0.03
486.544	0.03
486.997	0.03
487.449	0.03
487.902	0.03
488.355	0.02
488.808	0.02
489.26	0.01
489.713	0.01
490.166	0.01
490.618	0.01
491.071	0.01
491.523	0.01
491.976	0
492.429	0
492.881	0
493.333	0
493.786	0.01
494.238	0.01
494.691	0.01
495.143	0.01
495.595	0.01
496.048	0.01
496.5	0.01
496.952	0.01
497.404	0.01
497.856	0.01
498.309	0.01
498.761	0.01
499.213	0.01
499.665	0.01
500.117	0.01
500.569	0.01
501.021	0.01
501.473	0.01
501.925	0.01
502.377	0.01
502.828	0.01
503.28	0.01
503.732	0.01
504.184	0.01
504.636	0.01
505.087	0.01
505.539	0.01
505.991	0.01
506.442	0.01
506.894	0
507.345	0
507.797	0
508.249	0
508.7	0
509.151	0
509.603	-0
510.054	-0
510.506	-0
510.957	-0
511.408	-0
511.86	-0
512.311	-0.01
512.762	-0.01
513.213	-0.01
513.665	-0.01
514.116	-0.01
514.567	-0.01
515.018	-0.02
515.469	-0.02
515.92	-0.02
516.371	-0.02
516.822	-0.02
517.273	-0.02
517.724	-0.02
518.175	-0.02
518.626	-0.02
519.076	-0.02
519.527	-0.03
519.978	-0.03
520.429	-0.03
520.88	-0.03
521.33	-0.04
521.781	-0.04
522.232	-0.04
522.682	-0.05
523.133	-0.05
523.583	-0.05
524.034	-0.05
524.484	-0.05
524.935	-0.05
525.385	-0.05
525.836	-0.05
526.286	-0.04
526.736	-0.04
527.187	-0.04
527.637	-0.03
528.087	-0.03
528.538	-0.02
528.988	-0.02
529.438	-0.02
529.888	-0.01
530.338	-0.01
530.788	-0.01
531.238	-0.01
531.688	-0.01
532.139	-0.01
532.589	-0.01
533.038	-0
533.488	-0
533.938	-0
534.388	-0
534.838	-0
535.288	-0
535.738	0
536.187	0
536.637	0
537.087	0
537.537	0
537.986	0
538.436	0
538.885	0
539.335	0.01
539.785	0.01
540.234	0.01
540.684	0.01
541.133	0.01
541.582	0.01
542.032	0.01
542.481	0.01
542.931	0.01
543.38	0.01
543.829	0.01
544.278	0.01
544.728	0.01
545.177	0.01
545.626	0.01
546.075	0.01
546.524	0.01
546.973	0.01
547.422	0.01
547.871	0.01
548.32	0.01
548.769	0.01
549.218	0.01
549.667	0.01
550.116	0.01
550.565	0.01
551.014	0
551.463	0
551.911	0
552.36	0
552.809	0.01
553.258	0.01
553.706	0.01
554.155	0.01
554.603	0.01
555.052	0.01
555.501	0.01
555.949	0
556.398	0
556.846	-0
557.294	-0
557.743	-0
558.191	-0
558.64	-0
559.088	-0
559.536	-0
559.985	0
560.433	0
560.881	0
561.329	0.01
561.777	0.01
562.225	0.01
562.674	0.01
563.122	0.01
563.57	0.01
564.018	0.01
564.466	0.01
564.914	0.01
565.362	0.01
565.809	0.01
566.257	0.01
566.705	0.01
567.153	0.01
567.601	0.02
568.048	0.02
568.496	0.03
568.944	0.03
569.392	0.04
569.839	0.04
570.287	0.05
570.734	0.05
571.182	0.06
571.63	0.06
572.077	0.06
572.525	0.07
572.972	0.07
573.419	0.07
573.867	0.07
574.314	0.07
574.761	0.07
575.209	0.07
575.656	0.08
576.103	0.08
576.551	0.08
576.998	0.08
577.445	0.08
577.892	0.08
578.339	0.08
578.786	0.08
579.233	0.08
579.68	0.09
580.127	0.09
580.574	0.09
581.021	0.08
581.468	0.08
581.915	0.08
582.362	0.08
582.809	0.08
583.255	0.09
583.702	0.09
584.149	0.08
584.596	0.08
585.042	0.08
585.489	0.08
585.936	0.08
586.382	0.08
586.829	0.08
587.275	0.08
587.722	0.07
588.168	0.07
588.615	0.07
589.061	0.06
589.508	0.06
589.954	0.06
590.4	0.06
590.847	0.06
591.293	0.06
591.739	0.07
592.185	0.07
592.632	0.07
593.078	0.07
593.524	0.07
593.97	0.07
594.416	0.07
594.862	0.07
595.308	0.06
595.754	0.06
596.2	0.06
596.646	0.06
597.092	0.06
597.538	0.06
597.984	0.07
598.43	0.07
598.876	0.07
599.321	0.07
599.767	0.07
600.213	0.07
600.659	0.07
601.104	0.07
601.55	0.07
601.995	0.07
602.441	0.07
602.887	0.06
603.332	0.06
603.778	0.06
604.223	0.06
604.668	0.07
605.114	0.07
605.559	0.07
606.005	0.07
606.45	0.07
606.895	0.07
607.341	0.07
607.786	0.07
608.231	0.07
608.676	0.07
609.121	0.07
609.566	0.07
610.012	0.06
610.457	0.06
610.902	0.06
611.347	0.06
611.792	0.06
612.237	0.06
612.682	0.06
613.127	0.07
613.571	0.07
614.016	0.07
614.461	0.06
614.906	0.06
615.351	0.06
615.795	0.06
616.24	0.06
616.685	0.06
617.129	0.05
617.574	0.05
618.019	0.05
618.463	0.05
618.908	0.04
619.352	0.04
619.797	0.04
620.241	0.04
620.686	0.05
621.13	0.05
621.574	0.05
622.019	0.05
622.463	0.05
622.907	0.05
623.352	0.05
623.796	0.05
624.24	0.05
624.684	0.05
625.128	0.05
625.572	0.05
626.016	0.04
626.461	0.04
626.905	0.04
627.349	0.04
627.793	0.04
628.236	0.04
628.68	0.04
629.124	0.04
629.568	0.04
630.012	0.04
630.456	0.03
630.9	0.03
631.343	0.03
631.787	0.03
632.231	0.03
632.674	0.03
633.118	0.03
633.562	0.03
634.005	0.03
634.449	0.03
634.892	0.03
635.336	0.03
635.779	0.03
636.223	0.03
636.666	0.03
637.109	0.03
637.553	0.04
637.996	0.04
638.439	0.04
638.883	0.04
639.326	0.04
639.769	0.04
640.212	0.04
640.655	0.04
641.099	0.04
641.542	0.04
641.985	0.04
642.428	0.04
642.871	0.04
643.314	0.04
643.757	0.04
644.2	0.04
644.643	0.05
645.085	0.05
645.528	0.05
645.971	0.05
646.414	0.05
646.857	0.06
647.299	0.06
647.742	0.06
648.185	0.06
648.627	0.07
649.07	0.07
649.513	0.07
649.955	0.07
650.398	0.07
650.84	0.07
651.283	0.07
651.725	0.07
652.168	0.07
652.61	0.07
653.052	0.08
653.495	0.08
653.937	0.07
654.379	0.06
654.821	0.07
655.264	0.07
655.706	0.08
656.148	0.08
656.59	0.08
657.032	0.08
657.474	0.08
657.916	0.08
658.358	0.08
658.8	0.09
659.242	0.1
659.684	0.1
660.126	0.1
660.568	0.09
661.01	0.09
661.452	0.09
661.894	0.1
662.335	0.1
662.777	0.1
663.219	0.1
663.661	0.1
664.102	0.1
664.544	0.11
664.985	0.11
665.427	0.11
665.869	0.11
666.31	0.11
666.752	0.11
667.193	0.11
667.634	0.12
668.076	0.12
668.517	0.12
668.959	0.12
669.4	0.12
669.841	0.13
670.282	0.13
670.724	0.13
671.165	0.13
671.606	0.13
672.047	0.14
672.488	0.14
672.929	0.13
673.37	0.13
673.811	0.13
674.252	0.13
674.693	0.13
675.134	0.13
675.575	0.13
676.016	0.13
676.457	0.13
676.898	0.14
677.339	0.14
677.78	0.14
678.22	0.14
678.661	0.14
679.102	0.15
679.542	0.15
679.983	0.15
680.424	0.15
680.864	0.15
681.305	0.15
681.745	0.15
682.186	0.15
682.626	0.15
683.067	0.15
683.507	0.16
683.948	0.16
684.388	0.16
684.828	0.16
685.269	0.16
685.709	0.16
686.149	0.17
686.589	0.17
687.029	0.17
687.47	0.17
687.91	0.16
688.35	0.16
688.79	0.16
689.23	0.16
689.67	0.17
690.11	0.17
690.55	0.17
690.99	0.17
691.43	0.17
691.87	0.17
692.31	0.17
692.749	0.17
693.189	0.17
693.629	0.17
694.069	0.17
694.508	0.17
694.948	0.17
695.388	0.17
695.827	0.17
696.267	0.17
696.706	0.17
697.146	0.17
697.586	0.17
698.025	0.17
698.464	0.17
698.904	0.17
699.343	0.17
699.783	0.17
700.222	0.17
700.661	0.17
701.101	0.17
701.54	0.17
701.979	0.17
702.418	0.17
702.857	0.17
703.297	0.17
703.736	0.17
704.175	0.17
704.614	0.17
705.053	0.17
705.492	0.17
705.931	0.17
706.37	0.17
706.809	0.17
707.248	0.17
707.687	0.17
708.125	0.17
708.564	0.17
709.003	0.17
709.442	0.16
709.88	0.16
710.319	0.16
710.758	0.16
711.196	0.16
711.635	0.15
712.074	0.15
712.512	0.15
712.951	0.15
713.389	0.15
713.828	0.15
714.266	0.15
714.705	0.15
715.143	0.15
715.581	0.15
716.02	0.14
716.458	0.14
716.896	0.14
717.334	0.14
717.773	0.14
718.211	0.14
718.649	0.13
719.087	0.13
719.525	0.13
719.963	0.13
720.401	0.13
720.839	0.13
721.277	0.13
721.715	0.13
722.153	0.12
722.591	0.12
723.029	0.12
723.467	0.12
723.905	0.12
724.342	0.12
724.78	0.12
725.218	0.12
725.656	0.12
726.093	0.12
726.531	0.12
726.969	0.12
727.406	0.12
727.844	0.11
728.281	0.11
728.719	0.11
729.156	0.11
729.594	0.11
730.031	0.11
730.469	0.11
730.906	0.11
731.343	0.11
731.781	0.11
732.218	0.11
732.655	0.11
733.092	0.11
733.53	0.1
733.967	0.1
734.404	0.1
734.841	0.1
735.278	0.09
735.715	0.09
736.152	0.09
736.589	0.09
737.026	0.08
737.463	0.08
737.9	0.08
738.337	0.08
738.774	0.08
739.211	0.07
739.647	0.07
740.084	0.07
740.521	0.07
740.958	0.06
741.394	0.06
741.831	0.05
742.268	0.05
742.704	0.04
743.141	0.04
743.577	0.04
744.014	0.03
744.45	0.03
744.887	0.03
745.323	0.03
745.76	0.03
746.196	0.03
746.632	0.03
747.069	0.03
747.505	0.03
747.941	0.03
748.378	0.03
748.814	0.04
749.25	0.04
749.686	0.04
750.122	0.04
750.558	0.04
750.994	0.04
751.43	0.04
751.866	0.04
752.302	0.04
752.738	0.04
753.174	0.04
753.61	0.04
754.046	0.04
754.482	0.04
754.918	0.04
755.354	0.04
755.789	0.05
756.225	0.05
756.661	0.05
757.096	0.05
757.532	0.05
757.968	0.05
758.403	0.05
758.839	0.05
759.274	0.04
759.71	0.04
760.145	0.04
760.581	0.03
761.016	0.03
761.452	0.03
761.887	0.02
762.322	0.02
762.758	0.02
763.193	0.02
763.628	0.01
764.063	0.01
764.499	0.01
764.934	0
765.369	0
765.804	-0
766.239	-0
766.674	-0
767.109	-0
767.544	-0.01
767.979	-0.01
768.414	-0.02
768.849	-0.02
769.284	-0.02
769.719	-0.02
770.154	-0.02
770.588	-0.02
771.023	-0.03
771.458	-0.03
771.893	-0.04
772.327	-0.04
772.762	-0.04
773.197	-0.05
773.631	-0.05
774.066	-0.06
774.5	-0.06
774.935	-0.07
775.369	-0.07
775.804	-0.07
776.238	-0.07
776.673	-0.07
777.107	-0.07
777.541	-0.07
777.976	-0.07
778.41	-0.07
778.844	-0.07
779.279	-0.06
779.713	-0.06
780.147	-0.06
780.581	-0.05
781.015	-0.05
781.449	-0.05
781.883	-0.05
782.317	-0.05
782.751	-0.05
783.185	-0.05
783.619	-0.05
784.053	-0.05
784.487	-0.05
784.921	-0.05
785.355	-0.05
785.789	-0.05
786.223	-0.05
786.656	-0.05
787.09	-0.04
787.524	-0.04
787.957	-0.04
788.391	-0.05
788.825	-0.05
789.258	-0.05
789.692	-0.04
790.125	-0.04
790.559	-0.04
790.992	-0.04
791.426	-0.05
791.859	-0.04
792.293	-0.03
792.726	-0.03
793.159	-0.02
793.593	-0.02
794.026	-0.03
794.459	-0.03
794.892	-0.03
795.326	-0.03
795.759	-0.03
796.192	-0.04
796.625	-0.04
797.058	-0.05
797.491	-0.06
797.924	-0.06
798.357	-0.07
798.79	-0.07
799.223	-0.06
799.656	-0.06
800.089	-0.06
800.522	-0.07
800.955	-0.07
801.387	-0.07
801.82	-0.07
802.253	-0.07
802.686	-0.07
803.118	-0.07
803.551	-0.07
803.984	-0.06
804.416	-0.06
804.849	-0.06
805.281	-0.05
805.714	-0.05
806.146	-0.05
806.579	-0.05
807.011	-0.05
807.444	-0.05
807.876	-0.05
808.308	-0.05
808.741	-0.06
809.173	-0.06
809.605	-0.07
810.037	-0.07
810.47	-0.07
810.902	-0.07
811.334	-0.07
811.766	-0.07
812.198	-0.06
812.63	-0.06
813.062	-0.06
813.494	-0.06
813.926	-0.06
814.358	-0.06
814.79	-0.06
815.222	-0.06
815.654	-0.06
816.086	-0.06
816.518	-0.06
816.949	-0.06
817.381	-0.06
817.813	-0.06
818.245	-0.06
818.676	-0.06
819.108	-0.05
819.54	-0.05
819.971	-0.06
820.403	-0.06
820.834	-0.06
821.266	-0.06
821.697	-0.06
822.129	-0.06
822.56	-0.06
822.991	-0.06
823.423	-0.07
823.854	-0.07
824.286	-0.07
824.717	-0.06
825.148	-0.06
825.579	-0.05
826.01	-0.05
826.442	-0.05
826.873	-0.04
827.304	-0.03
827.735	-0.03
828.166	-0.02
828.597	-0.02
829.028	-0.01
829.459	-0.01
829.89	-0.01
830.321	-0
830.752	0
831.183	0.01
831.613	0.01
832.044	0.02
832.475	0.02
832.906	0.03
833.336	0.03
833.767	0.03
834.198	0.04
834.628	0.04
835.059	0.04
835.49	0.04
835.92	0.05
836.351	0.05
836.781	0.05
837.212	0.05
837.642	0.05
838.072	0.05
838.503	0.05
838.933	0.06
839.364	0.06
839.794	0.06
840.224	0.06
840.654	0.06
841.085	0.07
841.515	0.07
841.945	0.07
842.375	0.07
842.805	0.07
843.235	0.08
843.665	0.08
844.095	0.08
844.525	0.08
844.955	0.09
845.385	0.09
845.815	0.09
846.245	0.09
846.675	0.09
847.105	0.1
847.534	0.1
847.964	0.1
848.394	0.1
848.824	0.11
849.253	0.11
849.683	0.11
850.112	0.11
850.542	0.11
850.972	0.11
851.401	0.12
851.831	0.12
852.26	0.12
852.69	0.12
853.119	0.12
853.548	0.12
853.978	0.12
854.407	0.12
854.836	0.13
855.266	0.13
855.695	0.13
856.124	0.13
856.553	0.13
856.983	0.13
857.412	0.13
857.841	0.13
858.27	0.14
858.699	0.14
859.128	0.14
859.557	0.14
859.986	0.14
860.415	0.14
860.844	0.14
861.273	0.14
861.702	0.14
862.13	0.14
862.559	0.14
862.988	0.15
863.417	0.15
863.845	0.15
864.274	0.15
864.703	0.15
865.131	0.15
865.56	0.15
865.989	0.15
866.417	0.16
866.846	0.16
867.274	0.16
867.703	0.16
868.131	0.16
868.559	0.16
868.988	0.16
869.416	0.16
869.844	0.16
870.273	0.16
870.701	0.17
871.129	0.17
871.557	0.17
871.986	0.17
872.414	0.17
872.842	0.17
873.27	0.17
873.698	0.17
874.126	0.17
874.554	0.17
874.982	0.17
875.41	0.17
875.838	0.17
876.266	0.17
876.694	0.17
877.122	0.17
877.549	0.17
877.977	0.17
878.405	0.17
878.833	0.17
879.26	0.17
879.688	0.17
880.116	0.17
880.543	0.17
880.971	0.17
881.399	0.17
881.826	0.17
882.254	0.17
882.681	0.16
883.109	0.16
883.536	0.16
883.963	0.16
884.391	0.16
884.818	0.17
885.245	0.17
885.673	0.17
886.1	0.17
886.527	0.17
886.954	0.17
887.381	0.17
887.809	0.17
888.236	0.17
888.663	0.17
889.09	0.17
889.517	0.18
889.944	0.18
890.371	0.18
890.798	0.18
891.225	0.18
891.652	0.18
892.078	0.18
892.505	0.18
892.932	0.18
893.359	0.18
893.786	0.17
894.212	0.17
894.639	0.17
895.066	0.18
895.492	0.18
895.919	0.18
896.346	0.18
896.772	0.18
897.199	0.18
897.625	0.18
898.052	0.18
898.478	0.18
898.904	0.18
899.331	0.18
899.757	0.18
900.183	0.18
900.61	0.18
901.036	0.18
901.462	0.18
901.888	0.18
902.315	0.18
902.741	0.18
903.167	0.18
903.593	0.18
904.019	0.18
904.445	0.18
904.871	0.18
905.297	0.18
905.723	0.18
906.149	0.18
906.575	0.18
907.001	0.18
907.427	0.18
907.852	0.18
908.278	0.18
908.704	0.18
909.13	0.18
909.555	0.18
909.981	0.18
910.407	0.18
910.832	0.18
911.258	0.18
911.684	0.18
912.109	0.18
912.535	0.18
912.96	0.18
913.386	0.18
913.811	0.18
914.236	0.18
914.662	0.18
915.087	0.18
915.512	0.18
915.938	0.18
916.363	0.18
916.788	0.18
917.213	0.18
917.639	0.18
918.064	0.18
918.489	0.18
918.914	0.18
919.339	0.19
919.764	0.19
920.189	0.19
920.614	0.19
921.039	0.19
921.464	0.19
921.889	0.19
922.314	0.19
922.738	0.19
923.163	0.19
923.588	0.19
924.013	0.19
924.437	0.19
924.862	0.19
925.287	0.19
925.711	0.19
926.136	0.19
926.561	0.19
926.985	0.19
927.41	0.19
927.834	0.19
928.259	0.19
928.683	0.19
929.108	0.19
929.532	0.2
929.956	0.2
930.381	0.2
930.805	0.2
931.229	0.2
931.653	0.2
932.078	0.2
932.502	0.2
932.926	0.2
933.35	0.2
933.774	0.2
934.198	0.2
934.622	0.2
935.046	0.2
935.47	0.2
935.894	0.2
936.318	0.21
936.742	0.21
937.166	0.21
937.59	0.21
938.014	0.21
938.437	0.21
938.861	0.22
939.285	0.22
939.709	0.22
940.132	0.22
940.556	0.23
940.98	0.23
941.403	0.23
941.827	0.23
942.25	0.23
942.674	0.23
943.097	0.24
943.521	0.24
943.944	0.24
944.368	0.24
944.791	0.24
945.214	0.24
945.638	0.24
946.061	0.24
946.484	0.24
946.907	0.24
947.331	0.23
947.754	0.23
948.177	0.23
948.6	0.23
949.023	0.23
949.446	0.23
949.869	0.23
950.292	0.22
950.715	0.22
951.138	0.22
951.561	0.22
951.984	0.22
952.407	0.22
952.83	0.22
953.252	0.21
953.675	0.21
954.098	0.21
954.521	0.21
954.943	0.21
955.366	0.21
955.789	0.21
956.211	0.21
956.634	0.21
957.056	0.21
957.479	0.21
957.902	0.21
958.324	0.21
958.746	0.21
959.169	0.21
959.591	0.21
960.014	0.21
960.436	0.21
960.858	0.21
961.281	0.21
961.703	0.21
962.125	0.21
962.547	0.21
962.969	0.2
963.391	0.2
963.814	0.2
964.236	0.2
964.658	0.2
965.08	0.2
965.502	0.2
965.924	0.2
966.346	0.2
966.768	0.2
967.189	0.2
967.611	0.2
968.033	0.2
968.455	0.2
968.877	0.21
969.298	0.21
969.72	0.21
970.142	0.21
970.563	0.21
970.985	0.21
971.407	0.21
971.828	0.21
972.25	0.21
972.671	0.21
973.093	0.21
973.514	0.21
973.936	0.21
974.357	0.21
974.778	0.21
975.2	0.21
975.621	0.21
976.042	0.21
976.464	0.21
976.885	0.21
977.306	0.21
977.727	0.21
978.148	0.21
978.57	0.21
978.991	0.21
979.412	0.21
979.833	0.21
980.254	0.21
980.675	0.21
981.096	0.21
981.517	0.21
981.937	0.21
982.358	0.21
982.779	0.21
983.2	0.21
983.621	0.21
984.042	0.21
984.462	0.21
984.883	0.21
985.304	0.21
985.724	0.21
986.145	0.21
986.565	0.22
986.986	0.22
987.407	0.22
987.827	0.22
988.248	0.22
988.668	0.22
989.088	0.22
989.509	0.22
989.929	0.22
990.35	0.22
990.77	0.22
991.19	0.22
991.61	0.22
992.031	0.22
992.451	0.22
992.871	0.22
993.291	0.22
993.711	0.22
994.131	0.22
994.551	0.22
994.971	0.22
995.391	0.22
995.811	0.22
996.231	0.22
996.651	0.22
997.071	0.22
997.491	0.22
997.911	0.22
998.331	0.22
998.75	0.22
999.17	0.22
999.59	0.23
1000.009	0.23
1000.429	0.23
1000.849	0.23
1001.268	0.23
1001.688	0.23
1002.107	0.23
1002.527	0.23
1002.946	0.22
1003.366	0.22
1003.785	0.22
1004.205	0.22
1004.624	0.22
1005.044	0.22
1005.463	0.22
1005.882	0.22
1006.301	0.22
1006.721	0.22
1007.14	0.22
1007.559	0.22
1007.978	0.22
1008.397	0.23
1008.816	0.23
1009.235	0.23
1009.655	0.23
1010.074	0.23
1010.492	0.23
1010.911	0.23
1011.33	0.23
1011.749	0.23
1012.168	0.23
1012.587	0.23
1013.006	0.23
1013.425	0.23
1013.843	0.23
1014.262	0.23
1014.681	0.24
1015.099	0.24
1015.518	0.24
1015.937	0.24
1016.355	0.24
1016.774	0.24
1017.192	0.24
1017.611	0.24
1018.029	0.25
1018.448	0.25
1018.866	0.25
1019.285	0.25
1019.703	0.25
1020.121	0.25
1020.54	0.25
1020.958	0.25
1021.376	0.25
1021.794	0.25
1022.213	0.25
1022.631	0.25
1023.049	0.25
1023.467	0.25
1023.885	0.25
1024.303	0.25
1024.721	0.25
1025.139	0.25
1025.557	0.25
1025.975	0.25
1026.393	0.26
1026.811	0.26
1027.229	0.26
1027.647	0.26
1028.065	0.26
1028.482	0.26
1028.9	0.26
1029.318	0.26
1029.735	0.26
1030.153	0.27
1030.571	0.27
1030.988	0.27
1031.406	0.27
1031.823	0.27
1032.241	0.27
1032.659	0.28
1033.076	0.28
1033.493	0.28
1033.911	0.28
1034.328	0.28
1034.746	0.28
1035.163	0.29
1035.58	0.29
1035.997	0.29
1036.415	0.29
1036.832	0.3
1037.249	0.3
1037.666	0.3
1038.083	0.3
1038.501	0.31
1038.918	0.31
1039.335	0.31
1039.752	0.31
1040.169	0.32
1040.586	0.32
1041.003	0.32
1041.419	0.32
1041.836	0.32
1042.253	0.33
1042.67	0.33
1043.087	0.33
1043.504	0.34
1043.92	0.34
1044.337	0.34
1044.754	0.35
1045.17	0.35
1045.587	0.35
1046.004	0.36
1046.42	0.36
1046.837	0.36
1047.253	0.37
1047.67	0.37
1048.086	0.37
1048.503	0.37
1048.919	0.38
1049.335	0.38
1049.752	0.38
1050.168	0.38
1050.584	0.39
1051.001	0.39
1051.417	0.4
1051.833	0.4
1052.249	0.41
1052.665	0.41
1053.081	0.42
1053.497	0.43
1053.914	0.43
1054.33	0.44
1054.746	0.44
1055.162	0.45
1055.578	0.45
1055.993	0.45
1056.409	0.46
1056.825	0.46
1057.241	0.47
1057.657	0.48
1058.073	0.48
1058.488	0.49
1058.904	0.5
1059.32	0.51
1059.736	0.51
1060.151	0.52
1060.567	0.53
1060.982	0.54
1061.398	0.54
1061.813	0.54
1062.229	0.55
1062.644	0.55
1063.06	0.56
1063.475	0.56
1063.891	0.57
1064.306	0.58
1064.721	0.59
1065.137	0.59
1065.552	0.61
1065.967	0.62
1066.382	0.63
1066.798	0.64
1067.213	0.65
1067.628	0.66
1068.043	0.67
1068.458	0.69
1068.873	0.7
1069.288	0.71
1069.703	0.73
1070.118	0.74
1070.533	0.76
1070.948	0.78
1071.363	0.8
1071.778	0.82
1072.193	0.85
1072.607	0.88
1073.022	0.91
1073.437	0.94
1073.852	0.97
1074.266	1
1074.681	1.03
1075.096	1.07
1075.51	1.12
1075.925	1.18
1076.339	1.25
1076.754	1.34
1077.168	1.46
1077.583	1.62
1077.997	1.91
1078.412	3.36
1078.826	-0
1079.24	-0
1079.655	-0
1080.069	-0
1080.483	-0
1080.897	-0
1081.312	-0
1081.726	-0
1082.14	-0
1082.554	-0
1082.968	-0
1083.382	-0
1083.796	-0
1084.21	-0
1084.624	-0
1085.038	-0
1085.452	-0
1085.866	-0
1086.28	-0
1086.694	-0
1087.108	-0
1087.521	-0
1087.935	-0
1088.349	-0
1088.763	-0
1089.176	-0
1089.59	-0
1090.004	-0
1090.417	-0
1090.831	-0
1091.244	-0
1091.658	-0
1092.071	-0
1092.485	-0
1092.898	-0
1093.312	-0
1093.725	-0
1094.138	-0
1094.552	-0
1094.965	-0
1095.378	-0
1095.791	-0
1096.205	-0
1096.618	-0
1097.031	-0
1097.444	-0
1097.857	-0
1098.27	-0
1098.683	-0
1099.096	-0
1099.509	-0
1099.922	-0
1100.335	-0
1100.748	-0
1101.161	-0
1101.574	-0
1101.986	-0
1102.399	-0
1102.812	-0
1103.225	-0
1103.637	-0
1104.05	-0
1104.463	-0
1104.875	-0
1105.288	-0
1105.7	-0
1106.113	-0
1106.525	-0
1106.938	-0
1107.35	-0
1107.763	-0
1108.175	-0
1108.588	-0
1109	-0
1109.412	-0
1109.824	-0
1110.237	-0
1110.649	-0
1111.061	-0
