Data from redip-kinet-2-5a_Absorbance__30__00030.txt Node

Date: Fri Apr 12 13:46:30 CEST 2024
User: Laser008
Spectrometer: MAYP115816
Trigger mode: 0
Integration Time (sec): 2.000000E-1
Scans to average: 10
Electric dark correction enabled: true
Nonlinearity correction enabled: true
Boxcar width: 5
XAxis mode: Wavelengths
Number of Pixels in Spectrum: 2068
>>>>>Begin Spectral Data<<<<<
198.914	-2.39
199.384	-2.23
199.855	-2.09
200.325	-1.98
200.796	-1.9
201.266	-1.85
201.737	-1.77
202.207	-1.71
202.677	-1.65
203.147	-1.61
203.618	-1.58
204.088	-1.55
204.558	-1.53
205.028	-1.52
205.498	-1.51
205.968	-1.51
206.439	-1.51
206.909	-1.5
207.379	-1.5
207.849	-1.49
208.319	-1.49
208.789	-1.49
209.258	-1.49
209.728	-1.48
210.198	-1.48
210.668	-1.48
211.138	-1.48
211.608	-1.48
212.077	-1.48
212.547	-1.48
213.017	-1.47
213.486	-1.47
213.956	-1.47
214.426	-1.47
214.895	-1.47
215.365	-1.47
215.834	-1.47
216.304	-1.46
216.773	-1.46
217.243	-1.46
217.712	-1.46
218.181	-1.46
218.651	-1.45
219.12	-1.45
219.589	-1.45
220.058	-1.45
220.528	-1.44
220.997	-1.44
221.466	-1.43
221.935	-1.43
222.404	-1.42
222.873	-1.42
223.342	-1.41
223.812	-1.41
224.281	-1.4
224.749	-1.39
225.218	-1.38
225.687	-1.37
226.156	-1.36
226.625	-1.35
227.094	-1.33
227.563	-1.31
228.031	-1.3
228.5	-1.27
228.969	-1.25
229.438	-1.22
229.906	-1.19
230.375	-1.15
230.844	-1.12
231.312	-1.08
231.781	-1.03
232.249	-0.99
232.718	-0.94
233.186	-0.89
233.655	-0.84
234.123	-0.79
234.591	-0.74
235.06	-0.69
235.528	-0.64
235.996	-0.59
236.465	-0.54
236.933	-0.5
237.401	-0.45
237.869	-0.41
238.337	-0.37
238.805	-0.33
239.274	-0.3
239.742	-0.26
240.21	-0.23
240.678	-0.2
241.146	-0.17
241.614	-0.14
242.081	-0.12
242.549	-0.09
243.017	-0.07
243.485	-0.05
243.953	-0.03
244.421	-0.01
244.888	0.01
245.356	0.02
245.824	0.04
246.291	0.05
246.759	0.06
247.227	0.08
247.694	0.09
248.162	0.1
248.629	0.11
249.097	0.12
249.564	0.13
250.032	0.14
250.499	0.15
250.967	0.15
251.434	0.16
251.901	0.17
252.369	0.18
252.836	0.18
253.303	0.19
253.77	0.19
254.237	0.2
254.705	0.2
255.172	0.21
255.639	0.21
256.106	0.22
256.573	0.22
257.04	0.23
257.507	0.23
257.974	0.23
258.441	0.23
258.908	0.24
259.375	0.24
259.841	0.24
260.308	0.24
260.775	0.24
261.242	0.25
261.709	0.25
262.175	0.25
262.642	0.25
263.109	0.25
263.575	0.25
264.042	0.25
264.508	0.25
264.975	0.25
265.441	0.25
265.908	0.25
266.374	0.25
266.841	0.26
267.307	0.26
267.773	0.25
268.24	0.25
268.706	0.25
269.172	0.25
269.639	0.25
270.105	0.25
270.571	0.25
271.037	0.25
271.503	0.25
271.969	0.25
272.435	0.25
272.902	0.25
273.368	0.25
273.834	0.24
274.3	0.24
274.765	0.24
275.231	0.24
275.697	0.24
276.163	0.24
276.629	0.24
277.095	0.23
277.56	0.23
278.026	0.23
278.492	0.23
278.958	0.23
279.423	0.23
279.889	0.23
280.354	0.23
280.82	0.22
281.286	0.22
281.751	0.22
282.217	0.22
282.682	0.22
283.147	0.22
283.613	0.22
284.078	0.22
284.544	0.22
285.009	0.22
285.474	0.22
285.939	0.22
286.405	0.22
286.87	0.22
287.335	0.22
287.8	0.22
288.265	0.21
288.73	0.21
289.195	0.21
289.66	0.21
290.125	0.21
290.59	0.21
291.055	0.21
291.52	0.21
291.985	0.21
292.45	0.21
292.915	0.21
293.38	0.21
293.844	0.21
294.309	0.21
294.774	0.21
295.239	0.2
295.703	0.2
296.168	0.2
296.632	0.2
297.097	0.2
297.562	0.2
298.026	0.2
298.491	0.2
298.955	0.2
299.419	0.2
299.884	0.2
300.348	0.2
300.813	0.2
301.277	0.2
301.741	0.2
302.205	0.2
302.67	0.2
303.134	0.2
303.598	0.2
304.062	0.2
304.526	0.2
304.99	0.2
305.454	0.2
305.919	0.2
306.383	0.2
306.847	0.19
307.31	0.19
307.774	0.19
308.238	0.19
308.702	0.19
309.166	0.19
309.63	0.19
310.094	0.19
310.557	0.19
311.021	0.19
311.485	0.19
311.948	0.19
312.412	0.19
312.876	0.19
313.339	0.19
313.803	0.19
314.266	0.19
314.73	0.19
315.193	0.19
315.657	0.18
316.12	0.18
316.584	0.18
317.047	0.18
317.51	0.18
317.973	0.18
318.437	0.18
318.9	0.18
319.363	0.18
319.826	0.18
320.29	0.18
320.753	0.18
321.216	0.18
321.679	0.18
322.142	0.18
322.605	0.17
323.068	0.17
323.531	0.17
323.994	0.17
324.457	0.17
324.92	0.17
325.382	0.17
325.845	0.17
326.308	0.17
326.771	0.17
327.233	0.17
327.696	0.17
328.159	0.17
328.622	0.17
329.084	0.17
329.547	0.16
330.009	0.16
330.472	0.16
330.934	0.16
331.397	0.16
331.859	0.16
332.322	0.16
332.784	0.16
333.246	0.16
333.709	0.16
334.171	0.16
334.633	0.16
335.096	0.16
335.558	0.16
336.02	0.16
336.482	0.16
336.944	0.15
337.406	0.15
337.868	0.15
338.331	0.15
338.793	0.15
339.255	0.15
339.717	0.15
340.178	0.15
340.64	0.15
341.102	0.15
341.564	0.15
342.026	0.15
342.488	0.15
342.949	0.15
343.411	0.15
343.873	0.15
344.335	0.15
344.796	0.14
345.258	0.14
345.719	0.14
346.181	0.14
346.643	0.14
347.104	0.14
347.566	0.14
348.027	0.14
348.488	0.14
348.95	0.14
349.411	0.14
349.873	0.14
350.334	0.14
350.795	0.13
351.256	0.13
351.718	0.13
352.179	0.13
352.64	0.13
353.101	0.13
353.562	0.13
354.023	0.13
354.484	0.12
354.945	0.12
355.406	0.12
355.867	0.12
356.328	0.12
356.789	0.12
357.25	0.12
357.711	0.12
358.172	0.12
358.633	0.12
359.093	0.12
359.554	0.12
360.015	0.12
360.476	0.13
360.936	0.13
361.397	0.13
361.858	0.13
362.318	0.13
362.779	0.13
363.239	0.13
363.7	0.13
364.16	0.13
364.621	0.13
365.081	0.13
365.541	0.12
366.002	0.12
366.462	0.12
366.922	0.12
367.383	0.12
367.843	0.12
368.303	0.12
368.763	0.12
369.223	0.12
369.684	0.12
370.144	0.12
370.604	0.12
371.064	0.12
371.524	0.12
371.984	0.12
372.444	0.12
372.904	0.12
373.363	0.12
373.823	0.12
374.283	0.12
374.743	0.12
375.203	0.12
375.663	0.12
376.122	0.12
376.582	0.12
377.042	0.12
377.501	0.12
377.961	0.12
378.42	0.12
378.88	0.12
379.34	0.12
379.799	0.12
380.259	0.12
380.718	0.12
381.177	0.12
381.637	0.12
382.096	0.12
382.555	0.12
383.015	0.12
383.474	0.12
383.933	0.12
384.393	0.12
384.852	0.12
385.311	0.12
385.77	0.12
386.229	0.12
386.688	0.12
387.147	0.12
387.606	0.12
388.065	0.12
388.524	0.12
388.983	0.12
389.442	0.12
389.901	0.12
390.36	0.12
390.819	0.12
391.277	0.12
391.736	0.12
392.195	0.12
392.654	0.12
393.112	0.12
393.571	0.12
394.03	0.12
394.488	0.12
394.947	0.12
395.405	0.12
395.864	0.12
396.322	0.12
396.781	0.12
397.239	0.12
397.698	0.12
398.156	0.12
398.614	0.12
399.073	0.12
399.531	0.12
399.989	0.12
400.447	0.12
400.905	0.12
401.364	0.12
401.822	0.11
402.28	0.11
402.738	0.11
403.196	0.11
403.654	0.11
404.112	0.11
404.57	0.11
405.028	0.11
405.486	0.11
405.944	0.11
406.402	0.11
406.859	0.11
407.317	0.11
407.775	0.11
408.233	0.11
408.691	0.11
409.148	0.11
409.606	0.11
410.064	0.11
410.521	0.11
410.979	0.11
411.436	0.11
411.894	0.11
412.351	0.11
412.809	0.1
413.266	0.1
413.724	0.1
414.181	0.1
414.638	0.1
415.096	0.1
415.553	0.1
416.01	0.1
416.467	0.1
416.925	0.1
417.382	0.1
417.839	0.1
418.296	0.1
418.753	0.1
419.21	0.1
419.667	0.1
420.124	0.1
420.581	0.11
421.038	0.11
421.495	0.11
421.952	0.11
422.409	0.11
422.866	0.11
423.322	0.11
423.779	0.11
424.236	0.11
424.693	0.11
425.149	0.1
425.606	0.1
426.063	0.1
426.519	0.1
426.976	0.1
427.433	0.1
427.889	0.1
428.346	0.1
428.802	0.11
429.258	0.11
429.715	0.11
430.171	0.11
430.628	0.11
431.084	0.11
431.54	0.11
431.997	0.1
432.453	0.1
432.909	0.1
433.365	0.1
433.821	0.1
434.277	0.1
434.734	0.1
435.19	0.1
435.646	0.1
436.102	0.1
436.558	0.1
437.014	0.1
437.47	0.1
437.925	0.1
438.381	0.1
438.837	0.1
439.293	0.1
439.749	0.1
440.205	0.1
440.66	0.1
441.116	0.1
441.572	0.1
442.027	0.1
442.483	0.1
442.939	0.1
443.394	0.1
443.85	0.1
444.305	0.1
444.761	0.1
445.216	0.1
445.672	0.1
446.127	0.1
446.582	0.1
447.038	0.1
447.493	0.1
447.948	0.1
448.403	0.1
448.859	0.1
449.314	0.1
449.769	0.1
450.224	0.1
450.679	0.1
451.134	0.1
451.589	0.09
452.044	0.09
452.499	0.09
452.954	0.09
453.409	0.09
453.864	0.09
454.319	0.09
454.774	0.09
455.229	0.09
455.684	0.09
456.138	0.09
456.593	0.09
457.048	0.09
457.503	0.09
457.957	0.09
458.412	0.09
458.866	0.09
459.321	0.09
459.776	0.09
460.23	0.09
460.685	0.09
461.139	0.08
461.593	0.08
462.048	0.08
462.502	0.08
462.957	0.08
463.411	0.08
463.865	0.08
464.319	0.08
464.774	0.08
465.228	0.08
465.682	0.08
466.136	0.08
466.59	0.08
467.044	0.08
467.499	0.08
467.953	0.08
468.407	0.08
468.861	0.07
469.315	0.07
469.768	0.07
470.222	0.07
470.676	0.07
471.13	0.07
471.584	0.07
472.038	0.07
472.491	0.07
472.945	0.07
473.399	0.07
473.852	0.07
474.306	0.07
474.76	0.07
475.213	0.07
475.667	0.07
476.12	0.08
476.574	0.08
477.027	0.08
477.481	0.08
477.934	0.08
478.388	0.07
478.841	0.07
479.294	0.07
479.748	0.08
480.201	0.08
480.654	0.08
481.107	0.08
481.561	0.08
482.014	0.08
482.467	0.08
482.92	0.08
483.373	0.09
483.826	0.09
484.279	0.09
484.732	0.1
485.185	0.1
485.638	0.1
486.091	0.1
486.544	0.1
486.997	0.1
487.449	0.1
487.902	0.1
488.355	0.1
488.808	0.09
489.26	0.09
489.713	0.08
490.166	0.08
490.618	0.08
491.071	0.08
491.523	0.08
491.976	0.08
492.429	0.08
492.881	0.08
493.333	0.08
493.786	0.08
494.238	0.08
494.691	0.09
495.143	0.09
495.595	0.09
496.048	0.09
496.5	0.09
496.952	0.09
497.404	0.09
497.856	0.09
498.309	0.09
498.761	0.09
499.213	0.09
499.665	0.09
500.117	0.09
500.569	0.09
501.021	0.09
501.473	0.09
501.925	0.09
502.377	0.09
502.828	0.1
503.28	0.1
503.732	0.1
504.184	0.1
504.636	0.1
505.087	0.1
505.539	0.1
505.991	0.1
506.442	0.09
506.894	0.09
507.345	0.09
507.797	0.09
508.249	0.09
508.7	0.09
509.151	0.09
509.603	0.09
510.054	0.09
510.506	0.09
510.957	0.09
511.408	0.09
511.86	0.09
512.311	0.09
512.762	0.09
513.213	0.09
513.665	0.08
514.116	0.08
514.567	0.08
515.018	0.08
515.469	0.08
515.92	0.08
516.371	0.08
516.822	0.08
517.273	0.08
517.724	0.08
518.175	0.08
518.626	0.08
519.076	0.08
519.527	0.07
519.978	0.07
520.429	0.07
520.88	0.07
521.33	0.06
521.781	0.06
522.232	0.06
522.682	0.05
523.133	0.05
523.583	0.05
524.034	0.05
524.484	0.05
524.935	0.05
525.385	0.05
525.836	0.05
526.286	0.05
526.736	0.06
527.187	0.06
527.637	0.07
528.087	0.07
528.538	0.07
528.988	0.08
529.438	0.08
529.888	0.08
530.338	0.08
530.788	0.09
531.238	0.09
531.688	0.09
532.139	0.09
532.589	0.09
533.038	0.09
533.488	0.09
533.938	0.09
534.388	0.09
534.838	0.09
535.288	0.09
535.738	0.09
536.187	0.09
536.637	0.1
537.087	0.1
537.537	0.1
537.986	0.1
538.436	0.1
538.885	0.1
539.335	0.1
539.785	0.1
540.234	0.1
540.684	0.1
541.133	0.1
541.582	0.1
542.032	0.09
542.481	0.09
542.931	0.09
543.38	0.09
543.829	0.09
544.278	0.09
544.728	0.09
545.177	0.09
545.626	0.09
546.075	0.09
546.524	0.1
546.973	0.09
547.422	0.09
547.871	0.09
548.32	0.09
548.769	0.09
549.218	0.08
549.667	0.08
550.116	0.08
550.565	0.08
551.014	0.08
551.463	0.08
551.911	0.08
552.36	0.08
552.809	0.08
553.258	0.08
553.706	0.08
554.155	0.08
554.603	0.08
555.052	0.07
555.501	0.07
555.949	0.07
556.398	0.07
556.846	0.06
557.294	0.06
557.743	0.06
558.191	0.06
558.64	0.06
559.088	0.06
559.536	0.06
559.985	0.06
560.433	0.06
560.881	0.06
561.329	0.06
561.777	0.06
562.225	0.06
562.674	0.06
563.122	0.06
563.57	0.06
564.018	0.06
564.466	0.06
564.914	0.06
565.362	0.06
565.809	0.06
566.257	0.06
566.705	0.06
567.153	0.06
567.601	0.06
568.048	0.06
568.496	0.07
568.944	0.07
569.392	0.08
569.839	0.08
570.287	0.09
570.734	0.09
571.182	0.09
571.63	0.09
572.077	0.1
572.525	0.1
572.972	0.1
573.419	0.1
573.867	0.1
574.314	0.1
574.761	0.1
575.209	0.1
575.656	0.1
576.103	0.1
576.551	0.11
576.998	0.1
577.445	0.1
577.892	0.1
578.339	0.1
578.786	0.1
579.233	0.1
579.68	0.11
580.127	0.11
580.574	0.11
581.021	0.1
581.468	0.1
581.915	0.1
582.362	0.1
582.809	0.1
583.255	0.1
583.702	0.1
584.149	0.1
584.596	0.09
585.042	0.09
585.489	0.09
585.936	0.09
586.382	0.09
586.829	0.09
587.275	0.09
587.722	0.09
588.168	0.08
588.615	0.08
589.061	0.08
589.508	0.08
589.954	0.08
590.4	0.08
590.847	0.08
591.293	0.08
591.739	0.08
592.185	0.08
592.632	0.08
593.078	0.08
593.524	0.08
593.97	0.08
594.416	0.08
594.862	0.08
595.308	0.07
595.754	0.07
596.2	0.07
596.646	0.07
597.092	0.07
597.538	0.07
597.984	0.08
598.43	0.08
598.876	0.08
599.321	0.08
599.767	0.08
600.213	0.08
600.659	0.08
601.104	0.08
601.55	0.08
601.995	0.07
602.441	0.07
602.887	0.07
603.332	0.07
603.778	0.07
604.223	0.07
604.668	0.07
605.114	0.08
605.559	0.08
606.005	0.08
606.45	0.08
606.895	0.08
607.341	0.08
607.786	0.08
608.231	0.07
608.676	0.07
609.121	0.07
609.566	0.07
610.012	0.07
610.457	0.07
610.902	0.07
611.347	0.07
611.792	0.07
612.237	0.07
612.682	0.07
613.127	0.07
613.571	0.07
614.016	0.07
614.461	0.07
614.906	0.07
615.351	0.07
615.795	0.07
616.24	0.07
616.685	0.07
617.129	0.06
617.574	0.06
618.019	0.06
618.463	0.06
618.908	0.06
619.352	0.06
619.797	0.06
620.241	0.06
620.686	0.06
621.13	0.06
621.574	0.06
622.019	0.06
622.463	0.06
622.907	0.06
623.352	0.06
623.796	0.06
624.24	0.06
624.684	0.06
625.128	0.06
625.572	0.06
626.016	0.06
626.461	0.06
626.905	0.06
627.349	0.06
627.793	0.06
628.236	0.06
628.68	0.06
629.124	0.06
629.568	0.06
630.012	0.06
630.456	0.06
630.9	0.06
631.343	0.06
631.787	0.06
632.231	0.05
632.674	0.05
633.118	0.05
633.562	0.05
634.005	0.05
634.449	0.06
634.892	0.06
635.336	0.06
635.779	0.06
636.223	0.06
636.666	0.06
637.109	0.06
637.553	0.06
637.996	0.07
638.439	0.07
638.883	0.07
639.326	0.07
639.769	0.07
640.212	0.07
640.655	0.07
641.099	0.07
641.542	0.07
641.985	0.07
642.428	0.07
642.871	0.08
643.314	0.08
643.757	0.08
644.2	0.08
644.643	0.08
645.085	0.08
645.528	0.09
645.971	0.09
646.414	0.09
646.857	0.1
647.299	0.1
647.742	0.1
648.185	0.11
648.627	0.11
649.07	0.11
649.513	0.11
649.955	0.11
650.398	0.12
650.84	0.12
651.283	0.12
651.725	0.12
652.168	0.12
652.61	0.12
653.052	0.13
653.495	0.12
653.937	0.11
654.379	0.09
654.821	0.1
655.264	0.1
655.706	0.1
656.148	0.1
656.59	0.11
657.032	0.11
657.474	0.11
657.916	0.11
658.358	0.11
658.8	0.13
659.242	0.16
659.684	0.15
660.126	0.15
660.568	0.15
661.01	0.15
661.452	0.15
661.894	0.16
662.335	0.16
662.777	0.16
663.219	0.16
663.661	0.17
664.102	0.17
664.544	0.17
664.985	0.17
665.427	0.17
665.869	0.18
666.31	0.18
666.752	0.18
667.193	0.18
667.634	0.18
668.076	0.18
668.517	0.19
668.959	0.19
669.4	0.19
669.841	0.2
670.282	0.2
670.724	0.2
671.165	0.2
671.606	0.21
672.047	0.21
672.488	0.21
672.929	0.21
673.37	0.21
673.811	0.21
674.252	0.21
674.693	0.21
675.134	0.21
675.575	0.21
676.016	0.21
676.457	0.21
676.898	0.21
677.339	0.21
677.78	0.22
678.22	0.22
678.661	0.22
679.102	0.22
679.542	0.22
679.983	0.23
680.424	0.23
680.864	0.23
681.305	0.23
681.745	0.23
682.186	0.23
682.626	0.23
683.067	0.23
683.507	0.24
683.948	0.24
684.388	0.24
684.828	0.24
685.269	0.24
685.709	0.24
686.149	0.24
686.589	0.24
687.029	0.24
687.47	0.24
687.91	0.24
688.35	0.24
688.79	0.24
689.23	0.24
689.67	0.24
690.11	0.24
690.55	0.24
690.99	0.24
691.43	0.25
691.87	0.25
692.31	0.25
692.749	0.25
693.189	0.25
693.629	0.25
694.069	0.24
694.508	0.24
694.948	0.24
695.388	0.25
695.827	0.25
696.267	0.25
696.706	0.25
697.146	0.25
697.586	0.24
698.025	0.24
698.464	0.24
698.904	0.24
699.343	0.24
699.783	0.24
700.222	0.24
700.661	0.24
701.101	0.24
701.54	0.24
701.979	0.23
702.418	0.23
702.857	0.23
703.297	0.23
703.736	0.23
704.175	0.23
704.614	0.23
705.053	0.23
705.492	0.23
705.931	0.23
706.37	0.23
706.809	0.23
707.248	0.23
707.687	0.23
708.125	0.22
708.564	0.22
709.003	0.22
709.442	0.22
709.88	0.22
710.319	0.21
710.758	0.21
711.196	0.21
711.635	0.21
712.074	0.21
712.512	0.21
712.951	0.21
713.389	0.2
713.828	0.2
714.266	0.2
714.705	0.2
715.143	0.2
715.581	0.19
716.02	0.19
716.458	0.19
716.896	0.19
717.334	0.18
717.773	0.18
718.211	0.18
718.649	0.18
719.087	0.18
719.525	0.18
719.963	0.17
720.401	0.17
720.839	0.17
721.277	0.17
721.715	0.17
722.153	0.16
722.591	0.16
723.029	0.16
723.467	0.16
723.905	0.16
724.342	0.16
724.78	0.16
725.218	0.15
725.656	0.15
726.093	0.15
726.531	0.15
726.969	0.15
727.406	0.15
727.844	0.15
728.281	0.15
728.719	0.15
729.156	0.14
729.594	0.14
730.031	0.14
730.469	0.14
730.906	0.14
731.343	0.14
731.781	0.14
732.218	0.14
732.655	0.13
733.092	0.13
733.53	0.13
733.967	0.13
734.404	0.12
734.841	0.12
735.278	0.12
735.715	0.12
736.152	0.11
736.589	0.11
737.026	0.11
737.463	0.11
737.9	0.11
738.337	0.1
738.774	0.1
739.211	0.1
739.647	0.1
740.084	0.09
740.521	0.09
740.958	0.09
741.394	0.08
741.831	0.08
742.268	0.07
742.704	0.07
743.141	0.06
743.577	0.06
744.014	0.06
744.45	0.06
744.887	0.05
745.323	0.05
745.76	0.05
746.196	0.05
746.632	0.05
747.069	0.05
747.505	0.05
747.941	0.05
748.378	0.05
748.814	0.05
749.25	0.06
749.686	0.06
750.122	0.06
750.558	0.06
750.994	0.06
751.43	0.06
751.866	0.06
752.302	0.05
752.738	0.05
753.174	0.05
753.61	0.05
754.046	0.05
754.482	0.05
754.918	0.05
755.354	0.05
755.789	0.06
756.225	0.06
756.661	0.05
757.096	0.05
757.532	0.05
757.968	0.05
758.403	0.05
758.839	0.05
759.274	0.05
759.71	0.05
760.145	0.05
760.581	0.04
761.016	0.04
761.452	0.04
761.887	0.03
762.322	0.03
762.758	0.03
763.193	0.03
763.628	0.02
764.063	0.02
764.499	0.02
764.934	0.02
765.369	0.01
765.804	0.01
766.239	0.01
766.674	0.01
767.109	0.01
767.544	0
767.979	-0
768.414	-0
768.849	-0
769.284	-0
769.719	-0.01
770.154	-0.01
770.588	-0.01
771.023	-0.01
771.458	-0.02
771.893	-0.02
772.327	-0.03
772.762	-0.03
773.197	-0.03
773.631	-0.04
774.066	-0.04
774.5	-0.05
774.935	-0.05
775.369	-0.06
775.804	-0.06
776.238	-0.07
776.673	-0.07
777.107	-0.07
777.541	-0.07
777.976	-0.08
778.41	-0.08
778.844	-0.08
779.279	-0.07
779.713	-0.07
780.147	-0.07
780.581	-0.07
781.015	-0.06
781.449	-0.06
781.883	-0.06
782.317	-0.06
782.751	-0.06
783.185	-0.06
783.619	-0.06
784.053	-0.06
784.487	-0.06
784.921	-0.06
785.355	-0.07
785.789	-0.07
786.223	-0.06
786.656	-0.06
787.09	-0.06
787.524	-0.05
787.957	-0.06
788.391	-0.06
788.825	-0.06
789.258	-0.06
789.692	-0.06
790.125	-0.05
790.559	-0.05
790.992	-0.06
791.426	-0.06
791.859	-0.05
792.293	-0.05
792.726	-0.04
793.159	-0.04
793.593	-0.03
794.026	-0.04
794.459	-0.04
794.892	-0.04
795.326	-0.04
795.759	-0.04
796.192	-0.05
796.625	-0.06
797.058	-0.06
797.491	-0.07
797.924	-0.07
798.357	-0.08
798.79	-0.08
799.223	-0.08
799.656	-0.07
800.089	-0.08
800.522	-0.08
800.955	-0.08
801.387	-0.08
801.82	-0.08
802.253	-0.08
802.686	-0.08
803.118	-0.08
803.551	-0.08
803.984	-0.08
804.416	-0.07
804.849	-0.07
805.281	-0.07
805.714	-0.06
806.146	-0.06
806.579	-0.06
807.011	-0.06
807.444	-0.06
807.876	-0.06
808.308	-0.07
808.741	-0.07
809.173	-0.07
809.605	-0.08
810.037	-0.08
810.47	-0.08
810.902	-0.08
811.334	-0.08
811.766	-0.08
812.198	-0.08
812.63	-0.08
813.062	-0.08
813.494	-0.08
813.926	-0.08
814.358	-0.08
814.79	-0.07
815.222	-0.07
815.654	-0.07
816.086	-0.07
816.518	-0.07
816.949	-0.07
817.381	-0.08
817.813	-0.08
818.245	-0.07
818.676	-0.07
819.108	-0.06
819.54	-0.07
819.971	-0.07
820.403	-0.07
820.834	-0.07
821.266	-0.07
821.697	-0.07
822.129	-0.07
822.56	-0.07
822.991	-0.07
823.423	-0.08
823.854	-0.08
824.286	-0.08
824.717	-0.07
825.148	-0.07
825.579	-0.06
826.01	-0.06
826.442	-0.05
826.873	-0.05
827.304	-0.04
827.735	-0.04
828.166	-0.03
828.597	-0.03
829.028	-0.02
829.459	-0.02
829.89	-0.01
830.321	-0.01
830.752	-0
831.183	0
831.613	0
832.044	0.01
832.475	0.01
832.906	0.01
833.336	0.01
833.767	0.02
834.198	0.02
834.628	0.02
835.059	0.02
835.49	0.02
835.92	0.03
836.351	0.03
836.781	0.03
837.212	0.03
837.642	0.03
838.072	0.03
838.503	0.03
838.933	0.03
839.364	0.04
839.794	0.04
840.224	0.04
840.654	0.04
841.085	0.04
841.515	0.04
841.945	0.04
842.375	0.05
842.805	0.05
843.235	0.05
843.665	0.05
844.095	0.05
844.525	0.05
844.955	0.05
845.385	0.05
845.815	0.06
846.245	0.06
846.675	0.06
847.105	0.06
847.534	0.06
847.964	0.06
848.394	0.06
848.824	0.07
849.253	0.07
849.683	0.07
850.112	0.07
850.542	0.07
850.972	0.07
851.401	0.07
851.831	0.07
852.26	0.07
852.69	0.07
853.119	0.07
853.548	0.07
853.978	0.08
854.407	0.08
854.836	0.08
855.266	0.08
855.695	0.08
856.124	0.08
856.553	0.08
856.983	0.08
857.412	0.08
857.841	0.08
858.27	0.08
858.699	0.09
859.128	0.09
859.557	0.09
859.986	0.09
860.415	0.09
860.844	0.09
861.273	0.09
861.702	0.09
862.13	0.09
862.559	0.09
862.988	0.09
863.417	0.09
863.845	0.09
864.274	0.09
864.703	0.1
865.131	0.1
865.56	0.1
865.989	0.1
866.417	0.1
866.846	0.1
867.274	0.1
867.703	0.1
868.131	0.1
868.559	0.1
868.988	0.1
869.416	0.1
869.844	0.1
870.273	0.11
870.701	0.11
871.129	0.11
871.557	0.11
871.986	0.11
872.414	0.11
872.842	0.11
873.27	0.11
873.698	0.11
874.126	0.11
874.554	0.11
874.982	0.11
875.41	0.11
875.838	0.11
876.266	0.11
876.694	0.11
877.122	0.11
877.549	0.11
877.977	0.11
878.405	0.11
878.833	0.11
879.26	0.11
879.688	0.11
880.116	0.11
880.543	0.11
880.971	0.1
881.399	0.1
881.826	0.1
882.254	0.1
882.681	0.1
883.109	0.1
883.536	0.1
883.963	0.1
884.391	0.1
884.818	0.1
885.245	0.1
885.673	0.1
886.1	0.1
886.527	0.11
886.954	0.11
887.381	0.11
887.809	0.11
888.236	0.11
888.663	0.11
889.09	0.11
889.517	0.11
889.944	0.11
890.371	0.11
890.798	0.11
891.225	0.11
891.652	0.11
892.078	0.11
892.505	0.11
892.932	0.11
893.359	0.11
893.786	0.11
894.212	0.11
894.639	0.11
895.066	0.11
895.492	0.11
895.919	0.11
896.346	0.11
896.772	0.11
897.199	0.11
897.625	0.11
898.052	0.11
898.478	0.11
898.904	0.11
899.331	0.11
899.757	0.11
900.183	0.11
900.61	0.11
901.036	0.11
901.462	0.11
901.888	0.11
902.315	0.11
902.741	0.11
903.167	0.11
903.593	0.11
904.019	0.11
904.445	0.11
904.871	0.11
905.297	0.11
905.723	0.11
906.149	0.11
906.575	0.11
907.001	0.11
907.427	0.11
907.852	0.11
908.278	0.11
908.704	0.11
909.13	0.11
909.555	0.11
909.981	0.11
910.407	0.11
910.832	0.11
911.258	0.11
911.684	0.11
912.109	0.11
912.535	0.11
912.96	0.11
913.386	0.11
913.811	0.11
914.236	0.11
914.662	0.11
915.087	0.11
915.512	0.11
915.938	0.11
916.363	0.11
916.788	0.11
917.213	0.11
917.639	0.11
918.064	0.11
918.489	0.11
918.914	0.11
919.339	0.11
919.764	0.12
920.189	0.12
920.614	0.12
921.039	0.12
921.464	0.12
921.889	0.12
922.314	0.12
922.738	0.12
923.163	0.12
923.588	0.12
924.013	0.12
924.437	0.12
924.862	0.12
925.287	0.12
925.711	0.12
926.136	0.12
926.561	0.12
926.985	0.12
927.41	0.12
927.834	0.12
928.259	0.12
928.683	0.12
929.108	0.12
929.532	0.12
929.956	0.12
930.381	0.12
930.805	0.12
931.229	0.12
931.653	0.12
932.078	0.12
932.502	0.12
932.926	0.12
933.35	0.12
933.774	0.12
934.198	0.12
934.622	0.12
935.046	0.12
935.47	0.12
935.894	0.12
936.318	0.12
936.742	0.12
937.166	0.13
937.59	0.13
938.014	0.13
938.437	0.13
938.861	0.13
939.285	0.13
939.709	0.13
940.132	0.13
940.556	0.13
940.98	0.13
941.403	0.14
941.827	0.14
942.25	0.14
942.674	0.14
943.097	0.14
943.521	0.14
943.944	0.14
944.368	0.14
944.791	0.14
945.214	0.14
945.638	0.14
946.061	0.14
946.484	0.14
946.907	0.14
947.331	0.14
947.754	0.14
948.177	0.14
948.6	0.14
949.023	0.14
949.446	0.14
949.869	0.13
950.292	0.13
950.715	0.13
951.138	0.13
951.561	0.13
951.984	0.13
952.407	0.13
952.83	0.13
953.252	0.13
953.675	0.13
954.098	0.13
954.521	0.13
954.943	0.13
955.366	0.13
955.789	0.13
956.211	0.13
956.634	0.13
957.056	0.13
957.479	0.13
957.902	0.13
958.324	0.13
958.746	0.13
959.169	0.13
959.591	0.13
960.014	0.13
960.436	0.13
960.858	0.12
961.281	0.12
961.703	0.12
962.125	0.12
962.547	0.12
962.969	0.12
963.391	0.12
963.814	0.12
964.236	0.12
964.658	0.12
965.08	0.12
965.502	0.12
965.924	0.12
966.346	0.12
966.768	0.12
967.189	0.12
967.611	0.12
968.033	0.12
968.455	0.12
968.877	0.12
969.298	0.13
969.72	0.13
970.142	0.13
970.563	0.13
970.985	0.13
971.407	0.13
971.828	0.13
972.25	0.13
972.671	0.13
973.093	0.13
973.514	0.13
973.936	0.13
974.357	0.13
974.778	0.13
975.2	0.13
975.621	0.13
976.042	0.13
976.464	0.13
976.885	0.13
977.306	0.13
977.727	0.13
978.148	0.12
978.57	0.12
978.991	0.12
979.412	0.12
979.833	0.12
980.254	0.12
980.675	0.12
981.096	0.13
981.517	0.13
981.937	0.13
982.358	0.13
982.779	0.13
983.2	0.13
983.621	0.13
984.042	0.13
984.462	0.13
984.883	0.13
985.304	0.13
985.724	0.13
986.145	0.13
986.565	0.13
986.986	0.13
987.407	0.13
987.827	0.13
988.248	0.13
988.668	0.13
989.088	0.13
989.509	0.13
989.929	0.13
990.35	0.13
990.77	0.13
991.19	0.13
991.61	0.13
992.031	0.13
992.451	0.13
992.871	0.13
993.291	0.13
993.711	0.13
994.131	0.13
994.551	0.13
994.971	0.13
995.391	0.13
995.811	0.13
996.231	0.13
996.651	0.13
997.071	0.13
997.491	0.13
997.911	0.13
998.331	0.14
998.75	0.14
999.17	0.14
999.59	0.14
1000.009	0.14
1000.429	0.14
1000.849	0.14
1001.268	0.14
1001.688	0.14
1002.107	0.14
1002.527	0.14
1002.946	0.14
1003.366	0.14
1003.785	0.13
1004.205	0.13
1004.624	0.13
1005.044	0.13
1005.463	0.13
1005.882	0.13
1006.301	0.13
1006.721	0.13
1007.14	0.13
1007.559	0.13
1007.978	0.13
1008.397	0.13
1008.816	0.13
1009.235	0.13
1009.655	0.13
1010.074	0.13
1010.492	0.13
1010.911	0.13
1011.33	0.13
1011.749	0.13
1012.168	0.14
1012.587	0.14
1013.006	0.14
1013.425	0.14
1013.843	0.14
1014.262	0.14
1014.681	0.14
1015.099	0.14
1015.518	0.14
1015.937	0.14
1016.355	0.14
1016.774	0.14
1017.192	0.14
1017.611	0.14
1018.029	0.14
1018.448	0.14
1018.866	0.14
1019.285	0.15
1019.703	0.15
1020.121	0.15
1020.54	0.15
1020.958	0.15
1021.376	0.15
1021.794	0.15
1022.213	0.15
1022.631	0.15
1023.049	0.15
1023.467	0.15
1023.885	0.15
1024.303	0.15
1024.721	0.15
1025.139	0.15
1025.557	0.15
1025.975	0.15
1026.393	0.15
1026.811	0.15
1027.229	0.15
1027.647	0.15
1028.065	0.15
1028.482	0.15
1028.9	0.15
1029.318	0.15
1029.735	0.15
1030.153	0.15
1030.571	0.15
1030.988	0.15
1031.406	0.15
1031.823	0.16
1032.241	0.16
1032.659	0.16
1033.076	0.16
1033.493	0.16
1033.911	0.16
1034.328	0.16
1034.746	0.16
1035.163	0.16
1035.58	0.16
1035.997	0.16
1036.415	0.17
1036.832	0.17
1037.249	0.17
1037.666	0.17
1038.083	0.17
1038.501	0.17
1038.918	0.17
1039.335	0.17
1039.752	0.17
1040.169	0.18
1040.586	0.18
1041.003	0.18
1041.419	0.18
1041.836	0.18
1042.253	0.18
1042.67	0.18
1043.087	0.18
1043.504	0.19
1043.92	0.19
1044.337	0.19
1044.754	0.19
1045.17	0.19
1045.587	0.19
1046.004	0.19
1046.42	0.2
1046.837	0.2
1047.253	0.2
1047.67	0.2
1048.086	0.2
1048.503	0.2
1048.919	0.2
1049.335	0.2
1049.752	0.2
1050.168	0.2
1050.584	0.21
1051.001	0.21
1051.417	0.21
1051.833	0.21
1052.249	0.21
1052.665	0.22
1053.081	0.22
1053.497	0.22
1053.914	0.22
1054.33	0.22
1054.746	0.23
1055.162	0.23
1055.578	0.23
1055.993	0.23
1056.409	0.23
1056.825	0.23
1057.241	0.24
1057.657	0.24
1058.073	0.24
1058.488	0.24
1058.904	0.25
1059.32	0.25
1059.736	0.25
1060.151	0.26
1060.567	0.26
1060.982	0.26
1061.398	0.27
1061.813	0.27
1062.229	0.27
1062.644	0.27
1063.06	0.28
1063.475	0.28
1063.891	0.28
1064.306	0.28
1064.721	0.29
1065.137	0.29
1065.552	0.29
1065.967	0.3
1066.382	0.3
1066.798	0.3
1067.213	0.31
1067.628	0.31
1068.043	0.31
1068.458	0.32
1068.873	0.32
1069.288	0.32
1069.703	0.33
1070.118	0.33
1070.533	0.34
1070.948	0.34
1071.363	0.35
1071.778	0.35
1072.193	0.36
1072.607	0.37
1073.022	0.37
1073.437	0.38
1073.852	0.38
1074.266	0.39
1074.681	0.4
1075.096	0.4
1075.51	0.41
1075.925	0.42
1076.339	0.43
1076.754	0.44
1077.168	0.45
1077.583	0.46
1077.997	0.47
1078.412	0.48
1078.826	0.49
1079.24	0.5
1079.655	0.51
1080.069	0.52
1080.483	0.53
1080.897	0.54
1081.312	0.55
1081.726	0.56
1082.14	0.57
1082.554	0.58
1082.968	0.6
1083.382	0.62
1083.796	0.63
1084.21	0.66
1084.624	0.68
1085.038	0.71
1085.452	0.73
1085.866	0.76
1086.28	0.79
1086.694	0.82
1087.108	0.86
1087.521	0.9
1087.935	0.96
1088.349	1.02
1088.763	1.11
1089.176	1.23
1089.59	1.41
1090.004	1.79
1090.417	-0
1090.831	-0
1091.244	-0
1091.658	-0
1092.071	-0
1092.485	-0
1092.898	-0
1093.312	-0
1093.725	-0
1094.138	-0
1094.552	-0
1094.965	-0
1095.378	-0
1095.791	-0
1096.205	-0
1096.618	-0
1097.031	-0
1097.444	-0
1097.857	-0
1098.27	-0
1098.683	-0
1099.096	-0
1099.509	-0
1099.922	-0
1100.335	-0
1100.748	-0
1101.161	-0
1101.574	-0
1101.986	-0
1102.399	-0
1102.812	-0
1103.225	-0
1103.637	-0
1104.05	-0
1104.463	-0
1104.875	-0
1105.288	-0
1105.7	-0
1106.113	-0
1106.525	-0
1106.938	-0
1107.35	-0
1107.763	-0
1108.175	-0
1108.588	-0
1109	-0
1109.412	-0
1109.824	-0
1110.237	-0
1110.649	-0
1111.061	-0
