Data from redip-kinet-2-5a_Absorbance__25__00025.txt Node

Date: Fri Apr 12 13:46:20 CEST 2024
User: Laser008
Spectrometer: MAYP115816
Trigger mode: 0
Integration Time (sec): 2.000000E-1
Scans to average: 10
Electric dark correction enabled: true
Nonlinearity correction enabled: true
Boxcar width: 5
XAxis mode: Wavelengths
Number of Pixels in Spectrum: 2068
>>>>>Begin Spectral Data<<<<<
198.914	-2.45
199.384	-2.29
199.855	-2.15
200.325	-2.04
200.796	-1.96
201.266	-1.91
201.737	-1.83
202.207	-1.77
202.677	-1.72
203.147	-1.67
203.618	-1.64
204.088	-1.62
204.558	-1.6
205.028	-1.59
205.498	-1.58
205.968	-1.58
206.439	-1.58
206.909	-1.57
207.379	-1.57
207.849	-1.56
208.319	-1.56
208.789	-1.56
209.258	-1.56
209.728	-1.55
210.198	-1.55
210.668	-1.55
211.138	-1.55
211.608	-1.55
212.077	-1.55
212.547	-1.55
213.017	-1.54
213.486	-1.54
213.956	-1.54
214.426	-1.54
214.895	-1.54
215.365	-1.54
215.834	-1.54
216.304	-1.54
216.773	-1.53
217.243	-1.53
217.712	-1.53
218.181	-1.53
218.651	-1.52
219.12	-1.52
219.589	-1.52
220.058	-1.52
220.528	-1.51
220.997	-1.51
221.466	-1.5
221.935	-1.5
222.404	-1.49
222.873	-1.49
223.342	-1.48
223.812	-1.48
224.281	-1.47
224.749	-1.46
225.218	-1.45
225.687	-1.44
226.156	-1.43
226.625	-1.42
227.094	-1.4
227.563	-1.39
228.031	-1.37
228.5	-1.35
228.969	-1.32
229.438	-1.29
229.906	-1.26
230.375	-1.23
230.844	-1.19
231.312	-1.15
231.781	-1.11
232.249	-1.06
232.718	-1.01
233.186	-0.96
233.655	-0.92
234.123	-0.87
234.591	-0.81
235.06	-0.77
235.528	-0.72
235.996	-0.67
236.465	-0.62
236.933	-0.58
237.401	-0.54
237.869	-0.49
238.337	-0.46
238.805	-0.42
239.274	-0.38
239.742	-0.35
240.21	-0.32
240.678	-0.29
241.146	-0.26
241.614	-0.24
242.081	-0.21
242.549	-0.19
243.017	-0.17
243.485	-0.15
243.953	-0.13
244.421	-0.11
244.888	-0.1
245.356	-0.08
245.824	-0.07
246.291	-0.05
246.759	-0.04
247.227	-0.03
247.694	-0.02
248.162	-0.01
248.629	0
249.097	0.01
249.564	0.02
250.032	0.03
250.499	0.03
250.967	0.04
251.434	0.05
251.901	0.06
252.369	0.06
252.836	0.07
253.303	0.07
253.77	0.08
254.237	0.08
254.705	0.09
255.172	0.09
255.639	0.1
256.106	0.1
256.573	0.11
257.04	0.11
257.507	0.11
257.974	0.11
258.441	0.12
258.908	0.12
259.375	0.12
259.841	0.12
260.308	0.13
260.775	0.13
261.242	0.13
261.709	0.13
262.175	0.13
262.642	0.13
263.109	0.13
263.575	0.13
264.042	0.13
264.508	0.14
264.975	0.14
265.441	0.14
265.908	0.14
266.374	0.14
266.841	0.14
267.307	0.14
267.773	0.14
268.24	0.14
268.706	0.14
269.172	0.14
269.639	0.13
270.105	0.13
270.571	0.13
271.037	0.13
271.503	0.13
271.969	0.13
272.435	0.13
272.902	0.13
273.368	0.13
273.834	0.13
274.3	0.13
274.765	0.12
275.231	0.12
275.697	0.12
276.163	0.12
276.629	0.12
277.095	0.12
277.56	0.12
278.026	0.11
278.492	0.11
278.958	0.11
279.423	0.11
279.889	0.11
280.354	0.11
280.82	0.11
281.286	0.11
281.751	0.11
282.217	0.11
282.682	0.11
283.147	0.11
283.613	0.11
284.078	0.11
284.544	0.11
285.009	0.1
285.474	0.1
285.939	0.1
286.405	0.1
286.87	0.1
287.335	0.1
287.8	0.1
288.265	0.1
288.73	0.1
289.195	0.1
289.66	0.1
290.125	0.1
290.59	0.1
291.055	0.1
291.52	0.1
291.985	0.1
292.45	0.09
292.915	0.09
293.38	0.09
293.844	0.09
294.309	0.09
294.774	0.09
295.239	0.09
295.703	0.09
296.168	0.09
296.632	0.09
297.097	0.09
297.562	0.09
298.026	0.09
298.491	0.09
298.955	0.09
299.419	0.09
299.884	0.09
300.348	0.09
300.813	0.09
301.277	0.09
301.741	0.09
302.205	0.09
302.67	0.09
303.134	0.09
303.598	0.09
304.062	0.09
304.526	0.09
304.99	0.09
305.454	0.09
305.919	0.09
306.383	0.09
306.847	0.09
307.31	0.09
307.774	0.09
308.238	0.09
308.702	0.09
309.166	0.09
309.63	0.09
310.094	0.09
310.557	0.09
311.021	0.09
311.485	0.09
311.948	0.09
312.412	0.09
312.876	0.09
313.339	0.09
313.803	0.09
314.266	0.09
314.73	0.09
315.193	0.09
315.657	0.09
316.12	0.09
316.584	0.09
317.047	0.08
317.51	0.08
317.973	0.08
318.437	0.08
318.9	0.08
319.363	0.08
319.826	0.08
320.29	0.08
320.753	0.08
321.216	0.08
321.679	0.08
322.142	0.08
322.605	0.08
323.068	0.08
323.531	0.08
323.994	0.08
324.457	0.08
324.92	0.08
325.382	0.08
325.845	0.08
326.308	0.08
326.771	0.08
327.233	0.08
327.696	0.08
328.159	0.08
328.622	0.08
329.084	0.07
329.547	0.07
330.009	0.07
330.472	0.07
330.934	0.07
331.397	0.07
331.859	0.07
332.322	0.07
332.784	0.07
333.246	0.07
333.709	0.07
334.171	0.07
334.633	0.07
335.096	0.07
335.558	0.07
336.02	0.07
336.482	0.07
336.944	0.07
337.406	0.07
337.868	0.07
338.331	0.07
338.793	0.07
339.255	0.07
339.717	0.07
340.178	0.06
340.64	0.06
341.102	0.06
341.564	0.06
342.026	0.06
342.488	0.06
342.949	0.06
343.411	0.06
343.873	0.06
344.335	0.06
344.796	0.06
345.258	0.06
345.719	0.06
346.181	0.06
346.643	0.06
347.104	0.06
347.566	0.06
348.027	0.06
348.488	0.06
348.95	0.05
349.411	0.05
349.873	0.05
350.334	0.05
350.795	0.05
351.256	0.05
351.718	0.05
352.179	0.05
352.64	0.05
353.101	0.05
353.562	0.04
354.023	0.04
354.484	0.04
354.945	0.04
355.406	0.04
355.867	0.04
356.328	0.04
356.789	0.04
357.25	0.04
357.711	0.04
358.172	0.04
358.633	0.04
359.093	0.04
359.554	0.04
360.015	0.04
360.476	0.04
360.936	0.04
361.397	0.05
361.858	0.05
362.318	0.05
362.779	0.05
363.239	0.05
363.7	0.05
364.16	0.04
364.621	0.04
365.081	0.04
365.541	0.04
366.002	0.04
366.462	0.04
366.922	0.04
367.383	0.04
367.843	0.04
368.303	0.04
368.763	0.04
369.223	0.04
369.684	0.04
370.144	0.04
370.604	0.04
371.064	0.04
371.524	0.04
371.984	0.04
372.444	0.04
372.904	0.04
373.363	0.04
373.823	0.04
374.283	0.04
374.743	0.04
375.203	0.04
375.663	0.04
376.122	0.04
376.582	0.04
377.042	0.04
377.501	0.04
377.961	0.04
378.42	0.04
378.88	0.04
379.34	0.04
379.799	0.04
380.259	0.04
380.718	0.04
381.177	0.04
381.637	0.04
382.096	0.04
382.555	0.04
383.015	0.04
383.474	0.04
383.933	0.04
384.393	0.04
384.852	0.04
385.311	0.04
385.77	0.04
386.229	0.04
386.688	0.04
387.147	0.04
387.606	0.04
388.065	0.04
388.524	0.04
388.983	0.04
389.442	0.04
389.901	0.04
390.36	0.04
390.819	0.04
391.277	0.04
391.736	0.04
392.195	0.04
392.654	0.04
393.112	0.04
393.571	0.04
394.03	0.04
394.488	0.04
394.947	0.04
395.405	0.04
395.864	0.04
396.322	0.04
396.781	0.04
397.239	0.04
397.698	0.04
398.156	0.04
398.614	0.04
399.073	0.04
399.531	0.04
399.989	0.04
400.447	0.04
400.905	0.04
401.364	0.04
401.822	0.04
402.28	0.04
402.738	0.04
403.196	0.04
403.654	0.04
404.112	0.04
404.57	0.04
405.028	0.04
405.486	0.04
405.944	0.04
406.402	0.04
406.859	0.04
407.317	0.04
407.775	0.03
408.233	0.03
408.691	0.03
409.148	0.03
409.606	0.03
410.064	0.03
410.521	0.03
410.979	0.03
411.436	0.03
411.894	0.03
412.351	0.03
412.809	0.03
413.266	0.03
413.724	0.03
414.181	0.03
414.638	0.03
415.096	0.03
415.553	0.03
416.01	0.03
416.467	0.03
416.925	0.03
417.382	0.03
417.839	0.03
418.296	0.03
418.753	0.03
419.21	0.03
419.667	0.03
420.124	0.03
420.581	0.03
421.038	0.03
421.495	0.04
421.952	0.04
422.409	0.04
422.866	0.04
423.322	0.04
423.779	0.04
424.236	0.03
424.693	0.03
425.149	0.03
425.606	0.03
426.063	0.03
426.519	0.03
426.976	0.03
427.433	0.03
427.889	0.03
428.346	0.03
428.802	0.03
429.258	0.03
429.715	0.03
430.171	0.03
430.628	0.03
431.084	0.03
431.54	0.03
431.997	0.03
432.453	0.03
432.909	0.03
433.365	0.03
433.821	0.03
434.277	0.03
434.734	0.03
435.19	0.03
435.646	0.03
436.102	0.03
436.558	0.03
437.014	0.03
437.47	0.03
437.925	0.03
438.381	0.03
438.837	0.03
439.293	0.03
439.749	0.03
440.205	0.02
440.66	0.03
441.116	0.03
441.572	0.03
442.027	0.03
442.483	0.03
442.939	0.03
443.394	0.03
443.85	0.03
444.305	0.03
444.761	0.03
445.216	0.03
445.672	0.03
446.127	0.03
446.582	0.03
447.038	0.03
447.493	0.03
447.948	0.03
448.403	0.03
448.859	0.03
449.314	0.03
449.769	0.03
450.224	0.02
450.679	0.02
451.134	0.02
451.589	0.02
452.044	0.02
452.499	0.02
452.954	0.02
453.409	0.02
453.864	0.02
454.319	0.02
454.774	0.02
455.229	0.02
455.684	0.01
456.138	0.01
456.593	0.01
457.048	0.01
457.503	0.01
457.957	0.01
458.412	0.01
458.866	0.01
459.321	0.01
459.776	0.01
460.23	0.01
460.685	0.01
461.139	0.01
461.593	0.01
462.048	0.01
462.502	0.01
462.957	0.01
463.411	0.01
463.865	0.01
464.319	0.01
464.774	0.01
465.228	0.01
465.682	0.01
466.136	0.01
466.59	0.01
467.044	0.01
467.499	0.01
467.953	0
468.407	0
468.861	-0
469.315	-0.01
469.768	-0.01
470.222	-0.01
470.676	-0.01
471.13	-0.01
471.584	-0.01
472.038	-0.01
472.491	-0.01
472.945	-0.01
473.399	-0.01
473.852	-0.01
474.306	-0
474.76	-0
475.213	-0
475.667	-0
476.12	-0
476.574	-0
477.027	-0
477.481	-0
477.934	-0
478.388	-0.01
478.841	-0.01
479.294	-0.01
479.748	-0
480.201	-0
480.654	-0
481.107	-0
481.561	-0
482.014	-0
482.467	-0
482.92	0
483.373	0
483.826	0.01
484.279	0.01
484.732	0.01
485.185	0.01
485.638	0.01
486.091	0.02
486.544	0.01
486.997	0.01
487.449	0.01
487.902	0.01
488.355	0.01
488.808	0
489.26	-0
489.713	-0
490.166	-0.01
490.618	-0.01
491.071	-0.01
491.523	-0.01
491.976	-0.01
492.429	-0.01
492.881	-0.01
493.333	-0.01
493.786	-0.01
494.238	-0.01
494.691	-0.01
495.143	-0.01
495.595	-0.01
496.048	-0.01
496.5	-0.01
496.952	-0.01
497.404	-0.01
497.856	-0.01
498.309	-0.01
498.761	-0.01
499.213	-0.01
499.665	-0.01
500.117	-0.01
500.569	-0.01
501.021	-0.01
501.473	-0.01
501.925	-0.01
502.377	-0.01
502.828	-0.01
503.28	-0.01
503.732	-0.01
504.184	-0.01
504.636	-0.01
505.087	-0.01
505.539	-0.01
505.991	-0.01
506.442	-0.01
506.894	-0.01
507.345	-0.02
507.797	-0.02
508.249	-0.02
508.7	-0.02
509.151	-0.02
509.603	-0.02
510.054	-0.02
510.506	-0.02
510.957	-0.02
511.408	-0.02
511.86	-0.02
512.311	-0.03
512.762	-0.03
513.213	-0.03
513.665	-0.03
514.116	-0.03
514.567	-0.03
515.018	-0.03
515.469	-0.04
515.92	-0.04
516.371	-0.04
516.822	-0.04
517.273	-0.04
517.724	-0.04
518.175	-0.04
518.626	-0.04
519.076	-0.04
519.527	-0.04
519.978	-0.05
520.429	-0.05
520.88	-0.05
521.33	-0.05
521.781	-0.06
522.232	-0.06
522.682	-0.07
523.133	-0.07
523.583	-0.07
524.034	-0.08
524.484	-0.08
524.935	-0.08
525.385	-0.07
525.836	-0.07
526.286	-0.07
526.736	-0.06
527.187	-0.05
527.637	-0.05
528.087	-0.04
528.538	-0.04
528.988	-0.04
529.438	-0.03
529.888	-0.03
530.338	-0.03
530.788	-0.03
531.238	-0.02
531.688	-0.02
532.139	-0.02
532.589	-0.02
533.038	-0.02
533.488	-0.02
533.938	-0.02
534.388	-0.02
534.838	-0.01
535.288	-0.01
535.738	-0.01
536.187	-0.01
536.637	-0.01
537.087	-0.01
537.537	-0.01
537.986	-0.01
538.436	-0.01
538.885	-0.01
539.335	-0.01
539.785	-0
540.234	-0
540.684	-0
541.133	-0
541.582	-0
542.032	-0
542.481	-0
542.931	-0
543.38	-0
543.829	-0
544.278	-0
544.728	-0
545.177	0
545.626	0
546.075	0
546.524	0.01
546.973	0.01
547.422	0
547.871	0
548.32	0
548.769	0
549.218	0
549.667	0
550.116	-0
550.565	-0
551.014	-0
551.463	-0
551.911	-0
552.36	-0
552.809	0
553.258	0
553.706	0
554.155	0
554.603	0
555.052	0
555.501	0
555.949	-0
556.398	-0
556.846	-0
557.294	-0
557.743	-0
558.191	-0.01
558.64	-0.01
559.088	-0
559.536	-0
559.985	-0
560.433	0
560.881	0
561.329	0.01
561.777	0.01
562.225	0.01
562.674	0.01
563.122	0.01
563.57	0.01
564.018	0.01
564.466	0.01
564.914	0.01
565.362	0.01
565.809	0.01
566.257	0.01
566.705	0.01
567.153	0.01
567.601	0.02
568.048	0.02
568.496	0.03
568.944	0.03
569.392	0.04
569.839	0.05
570.287	0.05
570.734	0.05
571.182	0.06
571.63	0.06
572.077	0.06
572.525	0.07
572.972	0.07
573.419	0.07
573.867	0.07
574.314	0.07
574.761	0.07
575.209	0.08
575.656	0.08
576.103	0.08
576.551	0.08
576.998	0.08
577.445	0.08
577.892	0.08
578.339	0.08
578.786	0.08
579.233	0.09
579.68	0.09
580.127	0.09
580.574	0.09
581.021	0.09
581.468	0.09
581.915	0.09
582.362	0.09
582.809	0.09
583.255	0.09
583.702	0.09
584.149	0.09
584.596	0.08
585.042	0.08
585.489	0.08
585.936	0.08
586.382	0.08
586.829	0.08
587.275	0.08
587.722	0.08
588.168	0.08
588.615	0.07
589.061	0.07
589.508	0.07
589.954	0.07
590.4	0.07
590.847	0.07
591.293	0.07
591.739	0.07
592.185	0.07
592.632	0.07
593.078	0.07
593.524	0.07
593.97	0.07
594.416	0.07
594.862	0.07
595.308	0.07
595.754	0.07
596.2	0.07
596.646	0.07
597.092	0.07
597.538	0.07
597.984	0.08
598.43	0.08
598.876	0.08
599.321	0.08
599.767	0.08
600.213	0.08
600.659	0.08
601.104	0.08
601.55	0.08
601.995	0.08
602.441	0.07
602.887	0.07
603.332	0.07
603.778	0.07
604.223	0.07
604.668	0.07
605.114	0.08
605.559	0.08
606.005	0.08
606.45	0.08
606.895	0.08
607.341	0.08
607.786	0.08
608.231	0.08
608.676	0.08
609.121	0.07
609.566	0.07
610.012	0.07
610.457	0.07
610.902	0.07
611.347	0.07
611.792	0.07
612.237	0.07
612.682	0.07
613.127	0.07
613.571	0.07
614.016	0.07
614.461	0.07
614.906	0.07
615.351	0.07
615.795	0.07
616.24	0.07
616.685	0.06
617.129	0.06
617.574	0.06
618.019	0.06
618.463	0.05
618.908	0.05
619.352	0.05
619.797	0.05
620.241	0.05
620.686	0.05
621.13	0.05
621.574	0.05
622.019	0.05
622.463	0.05
622.907	0.05
623.352	0.05
623.796	0.05
624.24	0.05
624.684	0.05
625.128	0.05
625.572	0.05
626.016	0.05
626.461	0.05
626.905	0.05
627.349	0.05
627.793	0.05
628.236	0.05
628.68	0.05
629.124	0.05
629.568	0.04
630.012	0.04
630.456	0.04
630.9	0.04
631.343	0.04
631.787	0.04
632.231	0.03
632.674	0.03
633.118	0.03
633.562	0.03
634.005	0.03
634.449	0.03
634.892	0.03
635.336	0.04
635.779	0.04
636.223	0.04
636.666	0.04
637.109	0.04
637.553	0.04
637.996	0.04
638.439	0.04
638.883	0.04
639.326	0.04
639.769	0.04
640.212	0.04
640.655	0.04
641.099	0.04
641.542	0.04
641.985	0.04
642.428	0.04
642.871	0.04
643.314	0.04
643.757	0.04
644.2	0.04
644.643	0.04
645.085	0.04
645.528	0.05
645.971	0.05
646.414	0.05
646.857	0.05
647.299	0.06
647.742	0.06
648.185	0.06
648.627	0.06
649.07	0.06
649.513	0.06
649.955	0.07
650.398	0.07
650.84	0.07
651.283	0.07
651.725	0.07
652.168	0.07
652.61	0.07
653.052	0.07
653.495	0.07
653.937	0.07
654.379	0.06
654.821	0.07
655.264	0.07
655.706	0.07
656.148	0.07
656.59	0.07
657.032	0.08
657.474	0.08
657.916	0.07
658.358	0.08
658.8	0.08
659.242	0.09
659.684	0.08
660.126	0.08
660.568	0.08
661.01	0.08
661.452	0.08
661.894	0.08
662.335	0.08
662.777	0.08
663.219	0.09
663.661	0.09
664.102	0.09
664.544	0.09
664.985	0.09
665.427	0.09
665.869	0.09
666.31	0.1
666.752	0.1
667.193	0.1
667.634	0.1
668.076	0.1
668.517	0.1
668.959	0.1
669.4	0.11
669.841	0.11
670.282	0.11
670.724	0.11
671.165	0.11
671.606	0.11
672.047	0.11
672.488	0.11
672.929	0.11
673.37	0.11
673.811	0.11
674.252	0.11
674.693	0.11
675.134	0.11
675.575	0.11
676.016	0.11
676.457	0.11
676.898	0.11
677.339	0.11
677.78	0.12
678.22	0.12
678.661	0.12
679.102	0.12
679.542	0.12
679.983	0.13
680.424	0.13
680.864	0.13
681.305	0.13
681.745	0.13
682.186	0.13
682.626	0.13
683.067	0.13
683.507	0.13
683.948	0.13
684.388	0.14
684.828	0.14
685.269	0.14
685.709	0.14
686.149	0.14
686.589	0.14
687.029	0.14
687.47	0.14
687.91	0.14
688.35	0.14
688.79	0.14
689.23	0.14
689.67	0.14
690.11	0.14
690.55	0.14
690.99	0.14
691.43	0.15
691.87	0.15
692.31	0.15
692.749	0.15
693.189	0.15
693.629	0.15
694.069	0.15
694.508	0.15
694.948	0.15
695.388	0.15
695.827	0.15
696.267	0.15
696.706	0.15
697.146	0.15
697.586	0.15
698.025	0.15
698.464	0.15
698.904	0.15
699.343	0.15
699.783	0.15
700.222	0.15
700.661	0.15
701.101	0.15
701.54	0.15
701.979	0.15
702.418	0.15
702.857	0.15
703.297	0.15
703.736	0.15
704.175	0.15
704.614	0.15
705.053	0.15
705.492	0.15
705.931	0.15
706.37	0.15
706.809	0.15
707.248	0.15
707.687	0.15
708.125	0.15
708.564	0.15
709.003	0.15
709.442	0.15
709.88	0.14
710.319	0.14
710.758	0.14
711.196	0.14
711.635	0.14
712.074	0.14
712.512	0.14
712.951	0.14
713.389	0.14
713.828	0.14
714.266	0.14
714.705	0.14
715.143	0.13
715.581	0.13
716.02	0.13
716.458	0.13
716.896	0.13
717.334	0.13
717.773	0.12
718.211	0.12
718.649	0.12
719.087	0.12
719.525	0.12
719.963	0.12
720.401	0.12
720.839	0.12
721.277	0.12
721.715	0.11
722.153	0.11
722.591	0.11
723.029	0.11
723.467	0.11
723.905	0.11
724.342	0.11
724.78	0.11
725.218	0.11
725.656	0.11
726.093	0.11
726.531	0.11
726.969	0.11
727.406	0.11
727.844	0.11
728.281	0.11
728.719	0.11
729.156	0.11
729.594	0.11
730.031	0.11
730.469	0.1
730.906	0.1
731.343	0.1
731.781	0.1
732.218	0.1
732.655	0.1
733.092	0.1
733.53	0.1
733.967	0.09
734.404	0.09
734.841	0.09
735.278	0.09
735.715	0.08
736.152	0.08
736.589	0.08
737.026	0.08
737.463	0.08
737.9	0.08
738.337	0.07
738.774	0.07
739.211	0.07
739.647	0.07
740.084	0.06
740.521	0.06
740.958	0.06
741.394	0.05
741.831	0.05
742.268	0.04
742.704	0.03
743.141	0.03
743.577	0.03
744.014	0.03
744.45	0.02
744.887	0.02
745.323	0.02
745.76	0.02
746.196	0.02
746.632	0.02
747.069	0.02
747.505	0.03
747.941	0.03
748.378	0.03
748.814	0.03
749.25	0.03
749.686	0.03
750.122	0.03
750.558	0.03
750.994	0.04
751.43	0.04
751.866	0.04
752.302	0.04
752.738	0.04
753.174	0.04
753.61	0.04
754.046	0.04
754.482	0.04
754.918	0.04
755.354	0.04
755.789	0.04
756.225	0.04
756.661	0.04
757.096	0.04
757.532	0.04
757.968	0.04
758.403	0.04
758.839	0.04
759.274	0.04
759.71	0.04
760.145	0.03
760.581	0.03
761.016	0.02
761.452	0.02
761.887	0.02
762.322	0.02
762.758	0.02
763.193	0.01
763.628	0.01
764.063	0.01
764.499	0
764.934	-0
765.369	-0
765.804	-0
766.239	-0
766.674	-0
767.109	-0.01
767.544	-0.01
767.979	-0.02
768.414	-0.02
768.849	-0.02
769.284	-0.02
769.719	-0.02
770.154	-0.02
770.588	-0.03
771.023	-0.03
771.458	-0.04
771.893	-0.04
772.327	-0.04
772.762	-0.05
773.197	-0.05
773.631	-0.05
774.066	-0.06
774.5	-0.06
774.935	-0.06
775.369	-0.06
775.804	-0.06
776.238	-0.06
776.673	-0.06
777.107	-0.06
777.541	-0.06
777.976	-0.06
778.41	-0.06
778.844	-0.05
779.279	-0.05
779.713	-0.04
780.147	-0.04
780.581	-0.04
781.015	-0.03
781.449	-0.03
781.883	-0.03
782.317	-0.03
782.751	-0.03
783.185	-0.03
783.619	-0.03
784.053	-0.03
784.487	-0.03
784.921	-0.04
785.355	-0.04
785.789	-0.04
786.223	-0.04
786.656	-0.03
787.09	-0.03
787.524	-0.03
787.957	-0.03
788.391	-0.03
788.825	-0.03
789.258	-0.03
789.692	-0.03
790.125	-0.03
790.559	-0.03
790.992	-0.03
791.426	-0.03
791.859	-0.03
792.293	-0.02
792.726	-0.01
793.159	-0.01
793.593	-0.01
794.026	-0.01
794.459	-0.01
794.892	-0.01
795.326	-0.02
795.759	-0.02
796.192	-0.02
796.625	-0.03
797.058	-0.04
797.491	-0.04
797.924	-0.05
798.357	-0.05
798.79	-0.05
799.223	-0.05
799.656	-0.05
800.089	-0.05
800.522	-0.05
800.955	-0.05
801.387	-0.05
801.82	-0.05
802.253	-0.05
802.686	-0.05
803.118	-0.05
803.551	-0.05
803.984	-0.05
804.416	-0.04
804.849	-0.04
805.281	-0.04
805.714	-0.04
806.146	-0.04
806.579	-0.03
807.011	-0.03
807.444	-0.04
807.876	-0.04
808.308	-0.04
808.741	-0.04
809.173	-0.05
809.605	-0.05
810.037	-0.05
810.47	-0.05
810.902	-0.06
811.334	-0.06
811.766	-0.05
812.198	-0.05
812.63	-0.05
813.062	-0.05
813.494	-0.05
813.926	-0.05
814.358	-0.05
814.79	-0.04
815.222	-0.04
815.654	-0.04
816.086	-0.04
816.518	-0.04
816.949	-0.05
817.381	-0.05
817.813	-0.05
818.245	-0.04
818.676	-0.04
819.108	-0.04
819.54	-0.04
819.971	-0.04
820.403	-0.04
820.834	-0.04
821.266	-0.04
821.697	-0.04
822.129	-0.04
822.56	-0.04
822.991	-0.04
823.423	-0.05
823.854	-0.05
824.286	-0.05
824.717	-0.05
825.148	-0.04
825.579	-0.04
826.01	-0.03
826.442	-0.03
826.873	-0.03
827.304	-0.02
827.735	-0.02
828.166	-0.01
828.597	-0.01
829.028	-0.01
829.459	-0
829.89	-0
830.321	0
830.752	0.01
831.183	0.02
831.613	0.02
832.044	0.02
832.475	0.03
832.906	0.03
833.336	0.04
833.767	0.04
834.198	0.05
834.628	0.05
835.059	0.05
835.49	0.06
835.92	0.06
836.351	0.06
836.781	0.06
837.212	0.07
837.642	0.07
838.072	0.07
838.503	0.07
838.933	0.07
839.364	0.07
839.794	0.08
840.224	0.08
840.654	0.08
841.085	0.08
841.515	0.08
841.945	0.09
842.375	0.09
842.805	0.09
843.235	0.1
843.665	0.1
844.095	0.1
844.525	0.1
844.955	0.11
845.385	0.11
845.815	0.11
846.245	0.12
846.675	0.12
847.105	0.12
847.534	0.12
847.964	0.13
848.394	0.13
848.824	0.13
849.253	0.14
849.683	0.14
850.112	0.14
850.542	0.14
850.972	0.14
851.401	0.14
851.831	0.15
852.26	0.15
852.69	0.15
853.119	0.15
853.548	0.15
853.978	0.15
854.407	0.16
854.836	0.16
855.266	0.16
855.695	0.16
856.124	0.16
856.553	0.16
856.983	0.17
857.412	0.17
857.841	0.17
858.27	0.17
858.699	0.17
859.128	0.17
859.557	0.17
859.986	0.17
860.415	0.17
860.844	0.17
861.273	0.18
861.702	0.18
862.13	0.18
862.559	0.18
862.988	0.18
863.417	0.18
863.845	0.19
864.274	0.19
864.703	0.19
865.131	0.19
865.56	0.19
865.989	0.19
866.417	0.19
866.846	0.2
867.274	0.2
867.703	0.2
868.131	0.2
868.559	0.2
868.988	0.2
869.416	0.2
869.844	0.2
870.273	0.2
870.701	0.21
871.129	0.21
871.557	0.21
871.986	0.21
872.414	0.21
872.842	0.21
873.27	0.21
873.698	0.21
874.126	0.21
874.554	0.21
874.982	0.21
875.41	0.21
875.838	0.21
876.266	0.21
876.694	0.21
877.122	0.21
877.549	0.21
877.977	0.21
878.405	0.21
878.833	0.21
879.26	0.21
879.688	0.21
880.116	0.21
880.543	0.21
880.971	0.21
881.399	0.21
881.826	0.21
882.254	0.21
882.681	0.21
883.109	0.21
883.536	0.21
883.963	0.21
884.391	0.21
884.818	0.21
885.245	0.21
885.673	0.21
886.1	0.21
886.527	0.21
886.954	0.21
887.381	0.21
887.809	0.22
888.236	0.22
888.663	0.22
889.09	0.22
889.517	0.22
889.944	0.22
890.371	0.22
890.798	0.22
891.225	0.22
891.652	0.22
892.078	0.22
892.505	0.22
892.932	0.22
893.359	0.22
893.786	0.22
894.212	0.22
894.639	0.22
895.066	0.22
895.492	0.22
895.919	0.22
896.346	0.22
896.772	0.22
897.199	0.22
897.625	0.22
898.052	0.23
898.478	0.23
898.904	0.23
899.331	0.23
899.757	0.23
900.183	0.23
900.61	0.23
901.036	0.23
901.462	0.23
901.888	0.23
902.315	0.23
902.741	0.23
903.167	0.23
903.593	0.23
904.019	0.23
904.445	0.23
904.871	0.23
905.297	0.23
905.723	0.23
906.149	0.23
906.575	0.23
907.001	0.23
907.427	0.23
907.852	0.23
908.278	0.23
908.704	0.23
909.13	0.23
909.555	0.23
909.981	0.23
910.407	0.23
910.832	0.23
911.258	0.23
911.684	0.23
912.109	0.23
912.535	0.23
912.96	0.23
913.386	0.23
913.811	0.23
914.236	0.23
914.662	0.23
915.087	0.23
915.512	0.23
915.938	0.23
916.363	0.23
916.788	0.23
917.213	0.23
917.639	0.23
918.064	0.23
918.489	0.23
918.914	0.24
919.339	0.24
919.764	0.24
920.189	0.24
920.614	0.24
921.039	0.24
921.464	0.24
921.889	0.24
922.314	0.24
922.738	0.24
923.163	0.24
923.588	0.24
924.013	0.24
924.437	0.24
924.862	0.24
925.287	0.24
925.711	0.24
926.136	0.25
926.561	0.25
926.985	0.25
927.41	0.25
927.834	0.25
928.259	0.25
928.683	0.25
929.108	0.25
929.532	0.25
929.956	0.25
930.381	0.26
930.805	0.26
931.229	0.26
931.653	0.26
932.078	0.26
932.502	0.26
932.926	0.26
933.35	0.26
933.774	0.26
934.198	0.27
934.622	0.27
935.046	0.27
935.47	0.27
935.894	0.27
936.318	0.28
936.742	0.28
937.166	0.29
937.59	0.29
938.014	0.29
938.437	0.3
938.861	0.3
939.285	0.31
939.709	0.31
940.132	0.32
940.556	0.32
940.98	0.33
941.403	0.33
941.827	0.33
942.25	0.34
942.674	0.34
943.097	0.34
943.521	0.34
943.944	0.34
944.368	0.34
944.791	0.34
945.214	0.34
945.638	0.34
946.061	0.34
946.484	0.34
946.907	0.34
947.331	0.34
947.754	0.33
948.177	0.33
948.6	0.33
949.023	0.33
949.446	0.32
949.869	0.32
950.292	0.31
950.715	0.31
951.138	0.31
951.561	0.3
951.984	0.3
952.407	0.3
952.83	0.3
953.252	0.3
953.675	0.3
954.098	0.3
954.521	0.3
954.943	0.3
955.366	0.3
955.789	0.3
956.211	0.29
956.634	0.29
957.056	0.29
957.479	0.29
957.902	0.29
958.324	0.29
958.746	0.29
959.169	0.28
959.591	0.28
960.014	0.28
960.436	0.28
960.858	0.28
961.281	0.28
961.703	0.28
962.125	0.28
962.547	0.28
962.969	0.28
963.391	0.28
963.814	0.28
964.236	0.28
964.658	0.28
965.08	0.28
965.502	0.28
965.924	0.28
966.346	0.28
966.768	0.28
967.189	0.28
967.611	0.28
968.033	0.28
968.455	0.28
968.877	0.28
969.298	0.28
969.72	0.28
970.142	0.28
970.563	0.28
970.985	0.28
971.407	0.28
971.828	0.28
972.25	0.28
972.671	0.28
973.093	0.28
973.514	0.28
973.936	0.29
974.357	0.29
974.778	0.29
975.2	0.29
975.621	0.29
976.042	0.28
976.464	0.28
976.885	0.28
977.306	0.28
977.727	0.28
978.148	0.28
978.57	0.28
978.991	0.28
979.412	0.28
979.833	0.28
980.254	0.28
980.675	0.29
981.096	0.29
981.517	0.29
981.937	0.29
982.358	0.29
982.779	0.29
983.2	0.29
983.621	0.29
984.042	0.29
984.462	0.29
984.883	0.29
985.304	0.29
985.724	0.29
986.145	0.29
986.565	0.29
986.986	0.29
987.407	0.29
987.827	0.29
988.248	0.29
988.668	0.29
989.088	0.29
989.509	0.29
989.929	0.3
990.35	0.3
990.77	0.3
991.19	0.3
991.61	0.3
992.031	0.3
992.451	0.3
992.871	0.3
993.291	0.29
993.711	0.29
994.131	0.29
994.551	0.29
994.971	0.29
995.391	0.29
995.811	0.29
996.231	0.29
996.651	0.29
997.071	0.29
997.491	0.29
997.911	0.29
998.331	0.29
998.75	0.29
999.17	0.29
999.59	0.29
1000.009	0.29
1000.429	0.29
1000.849	0.29
1001.268	0.29
1001.688	0.29
1002.107	0.29
1002.527	0.29
1002.946	0.29
1003.366	0.29
1003.785	0.29
1004.205	0.29
1004.624	0.29
1005.044	0.29
1005.463	0.29
1005.882	0.29
1006.301	0.29
1006.721	0.29
1007.14	0.29
1007.559	0.29
1007.978	0.29
1008.397	0.29
1008.816	0.29
1009.235	0.29
1009.655	0.29
1010.074	0.29
1010.492	0.29
1010.911	0.29
1011.33	0.29
1011.749	0.29
1012.168	0.29
1012.587	0.29
1013.006	0.29
1013.425	0.29
1013.843	0.29
1014.262	0.29
1014.681	0.29
1015.099	0.3
1015.518	0.3
1015.937	0.3
1016.355	0.3
1016.774	0.3
1017.192	0.3
1017.611	0.3
1018.029	0.3
1018.448	0.31
1018.866	0.31
1019.285	0.31
1019.703	0.31
1020.121	0.31
1020.54	0.31
1020.958	0.31
1021.376	0.31
1021.794	0.31
1022.213	0.31
1022.631	0.31
1023.049	0.31
1023.467	0.31
1023.885	0.31
1024.303	0.31
1024.721	0.31
1025.139	0.31
1025.557	0.31
1025.975	0.31
1026.393	0.31
1026.811	0.31
1027.229	0.31
1027.647	0.31
1028.065	0.31
1028.482	0.31
1028.9	0.32
1029.318	0.32
1029.735	0.32
1030.153	0.32
1030.571	0.32
1030.988	0.32
1031.406	0.32
1031.823	0.33
1032.241	0.33
1032.659	0.33
1033.076	0.33
1033.493	0.33
1033.911	0.33
1034.328	0.33
1034.746	0.33
1035.163	0.33
1035.58	0.33
1035.997	0.33
1036.415	0.34
1036.832	0.34
1037.249	0.34
1037.666	0.34
1038.083	0.35
1038.501	0.35
1038.918	0.35
1039.335	0.35
1039.752	0.35
1040.169	0.35
1040.586	0.36
1041.003	0.36
1041.419	0.36
1041.836	0.36
1042.253	0.36
1042.67	0.36
1043.087	0.37
1043.504	0.37
1043.92	0.37
1044.337	0.37
1044.754	0.37
1045.17	0.37
1045.587	0.38
1046.004	0.38
1046.42	0.38
1046.837	0.38
1047.253	0.38
1047.67	0.38
1048.086	0.38
1048.503	0.38
1048.919	0.38
1049.335	0.38
1049.752	0.38
1050.168	0.38
1050.584	0.39
1051.001	0.39
1051.417	0.39
1051.833	0.39
1052.249	0.4
1052.665	0.4
1053.081	0.4
1053.497	0.41
1053.914	0.41
1054.33	0.41
1054.746	0.41
1055.162	0.41
1055.578	0.41
1055.993	0.42
1056.409	0.42
1056.825	0.42
1057.241	0.42
1057.657	0.43
1058.073	0.43
1058.488	0.44
1058.904	0.44
1059.32	0.45
1059.736	0.45
1060.151	0.46
1060.567	0.46
1060.982	0.47
1061.398	0.47
1061.813	0.48
1062.229	0.48
1062.644	0.48
1063.06	0.48
1063.475	0.49
1063.891	0.49
1064.306	0.5
1064.721	0.5
1065.137	0.5
1065.552	0.51
1065.967	0.52
1066.382	0.52
1066.798	0.53
1067.213	0.54
1067.628	0.54
1068.043	0.55
1068.458	0.55
1068.873	0.56
1069.288	0.56
1069.703	0.57
1070.118	0.58
1070.533	0.58
1070.948	0.59
1071.363	0.6
1071.778	0.62
1072.193	0.63
1072.607	0.64
1073.022	0.66
1073.437	0.67
1073.852	0.69
1074.266	0.7
1074.681	0.71
1075.096	0.73
1075.51	0.75
1075.925	0.77
1076.339	0.79
1076.754	0.81
1077.168	0.84
1077.583	0.86
1077.997	0.89
1078.412	0.93
1078.826	0.96
1079.24	1
1079.655	1.04
1080.069	1.07
1080.483	1.11
1080.897	1.14
1081.312	1.18
1081.726	1.24
1082.14	1.31
1082.554	1.4
1082.968	1.54
1083.382	1.75
1083.796	2.21
1084.21	-0
1084.624	-0
1085.038	-0
1085.452	-0
1085.866	-0
1086.28	-0
1086.694	-0
1087.108	-0
1087.521	-0
1087.935	-0
1088.349	-0
1088.763	-0
1089.176	-0
1089.59	-0
1090.004	-0
1090.417	-0
1090.831	-0
1091.244	-0
1091.658	-0
1092.071	-0
1092.485	-0
1092.898	-0
1093.312	-0
1093.725	-0
1094.138	-0
1094.552	-0
1094.965	-0
1095.378	-0
1095.791	-0
1096.205	-0
1096.618	-0
1097.031	-0
1097.444	-0
1097.857	-0
1098.27	-0
1098.683	-0
1099.096	-0
1099.509	-0
1099.922	-0
1100.335	-0
1100.748	-0
1101.161	-0
1101.574	-0
1101.986	-0
1102.399	-0
1102.812	-0
1103.225	-0
1103.637	-0
1104.05	-0
1104.463	-0
1104.875	-0
1105.288	-0
1105.7	-0
1106.113	-0
1106.525	-0
1106.938	-0
1107.35	-0
1107.763	-0
1108.175	-0
1108.588	-0
1109	-0
1109.412	-0
1109.824	-0
1110.237	-0
1110.649	-0
1111.061	-0
