Data from redip-kinet-2-5a_Absorbance__33__00033.txt Node

Date: Fri Apr 12 13:46:36 CEST 2024
User: Laser008
Spectrometer: MAYP115816
Trigger mode: 0
Integration Time (sec): 2.000000E-1
Scans to average: 10
Electric dark correction enabled: true
Nonlinearity correction enabled: true
Boxcar width: 5
XAxis mode: Wavelengths
Number of Pixels in Spectrum: 2068
>>>>>Begin Spectral Data<<<<<
198.914	-2.3
199.384	-2.14
199.855	-2
200.325	-1.89
200.796	-1.81
201.266	-1.75
201.737	-1.68
202.207	-1.61
202.677	-1.56
203.147	-1.51
203.618	-1.48
204.088	-1.46
204.558	-1.44
205.028	-1.42
205.498	-1.42
205.968	-1.42
206.439	-1.41
206.909	-1.41
207.379	-1.41
207.849	-1.4
208.319	-1.4
208.789	-1.4
209.258	-1.4
209.728	-1.39
210.198	-1.39
210.668	-1.39
211.138	-1.39
211.608	-1.38
212.077	-1.39
212.547	-1.38
213.017	-1.38
213.486	-1.38
213.956	-1.38
214.426	-1.38
214.895	-1.38
215.365	-1.38
215.834	-1.37
216.304	-1.37
216.773	-1.37
217.243	-1.37
217.712	-1.37
218.181	-1.36
218.651	-1.36
219.12	-1.36
219.589	-1.36
220.058	-1.35
220.528	-1.35
220.997	-1.34
221.466	-1.34
221.935	-1.34
222.404	-1.33
222.873	-1.33
223.342	-1.32
223.812	-1.31
224.281	-1.31
224.749	-1.3
225.218	-1.29
225.687	-1.28
226.156	-1.27
226.625	-1.25
227.094	-1.24
227.563	-1.22
228.031	-1.2
228.5	-1.18
228.969	-1.16
229.438	-1.13
229.906	-1.1
230.375	-1.06
230.844	-1.02
231.312	-0.98
231.781	-0.94
232.249	-0.9
232.718	-0.85
233.186	-0.8
233.655	-0.75
234.123	-0.7
234.591	-0.65
235.06	-0.6
235.528	-0.55
235.996	-0.5
236.465	-0.45
236.933	-0.41
237.401	-0.36
237.869	-0.32
238.337	-0.28
238.805	-0.24
239.274	-0.2
239.742	-0.17
240.21	-0.14
240.678	-0.1
241.146	-0.08
241.614	-0.05
242.081	-0.02
242.549	0
243.017	0.02
243.485	0.04
243.953	0.06
244.421	0.08
244.888	0.1
245.356	0.12
245.824	0.13
246.291	0.15
246.759	0.16
247.227	0.17
247.694	0.18
248.162	0.19
248.629	0.2
249.097	0.21
249.564	0.22
250.032	0.23
250.499	0.24
250.967	0.25
251.434	0.26
251.901	0.26
252.369	0.27
252.836	0.28
253.303	0.28
253.77	0.29
254.237	0.29
254.705	0.3
255.172	0.3
255.639	0.31
256.106	0.31
256.573	0.31
257.04	0.32
257.507	0.32
257.974	0.32
258.441	0.33
258.908	0.33
259.375	0.33
259.841	0.33
260.308	0.33
260.775	0.34
261.242	0.34
261.709	0.34
262.175	0.34
262.642	0.34
263.109	0.34
263.575	0.34
264.042	0.34
264.508	0.34
264.975	0.34
265.441	0.35
265.908	0.35
266.374	0.35
266.841	0.35
267.307	0.35
267.773	0.35
268.24	0.34
268.706	0.34
269.172	0.34
269.639	0.34
270.105	0.34
270.571	0.34
271.037	0.34
271.503	0.34
271.969	0.34
272.435	0.34
272.902	0.33
273.368	0.33
273.834	0.33
274.3	0.33
274.765	0.33
275.231	0.33
275.697	0.33
276.163	0.32
276.629	0.32
277.095	0.32
277.56	0.32
278.026	0.32
278.492	0.31
278.958	0.31
279.423	0.31
279.889	0.31
280.354	0.31
280.82	0.31
281.286	0.31
281.751	0.31
282.217	0.31
282.682	0.31
283.147	0.31
283.613	0.3
284.078	0.3
284.544	0.3
285.009	0.3
285.474	0.3
285.939	0.3
286.405	0.3
286.87	0.3
287.335	0.29
287.8	0.29
288.265	0.29
288.73	0.29
289.195	0.29
289.66	0.29
290.125	0.29
290.59	0.29
291.055	0.29
291.52	0.28
291.985	0.28
292.45	0.28
292.915	0.28
293.38	0.28
293.844	0.28
294.309	0.28
294.774	0.28
295.239	0.28
295.703	0.28
296.168	0.28
296.632	0.28
297.097	0.27
297.562	0.27
298.026	0.27
298.491	0.27
298.955	0.27
299.419	0.27
299.884	0.27
300.348	0.27
300.813	0.27
301.277	0.27
301.741	0.27
302.205	0.27
302.67	0.27
303.134	0.27
303.598	0.27
304.062	0.27
304.526	0.26
304.99	0.26
305.454	0.26
305.919	0.26
306.383	0.26
306.847	0.26
307.31	0.26
307.774	0.26
308.238	0.26
308.702	0.26
309.166	0.26
309.63	0.26
310.094	0.26
310.557	0.26
311.021	0.26
311.485	0.25
311.948	0.25
312.412	0.25
312.876	0.25
313.339	0.25
313.803	0.25
314.266	0.25
314.73	0.25
315.193	0.25
315.657	0.25
316.12	0.25
316.584	0.25
317.047	0.25
317.51	0.24
317.973	0.24
318.437	0.24
318.9	0.24
319.363	0.24
319.826	0.24
320.29	0.24
320.753	0.24
321.216	0.24
321.679	0.24
322.142	0.24
322.605	0.24
323.068	0.23
323.531	0.23
323.994	0.23
324.457	0.23
324.92	0.23
325.382	0.23
325.845	0.23
326.308	0.23
326.771	0.23
327.233	0.23
327.696	0.23
328.159	0.23
328.622	0.23
329.084	0.22
329.547	0.22
330.009	0.22
330.472	0.22
330.934	0.22
331.397	0.22
331.859	0.22
332.322	0.22
332.784	0.22
333.246	0.22
333.709	0.22
334.171	0.22
334.633	0.22
335.096	0.21
335.558	0.21
336.02	0.21
336.482	0.21
336.944	0.21
337.406	0.21
337.868	0.21
338.331	0.21
338.793	0.21
339.255	0.21
339.717	0.21
340.178	0.21
340.64	0.21
341.102	0.21
341.564	0.2
342.026	0.2
342.488	0.2
342.949	0.2
343.411	0.2
343.873	0.2
344.335	0.2
344.796	0.2
345.258	0.2
345.719	0.2
346.181	0.2
346.643	0.2
347.104	0.2
347.566	0.2
348.027	0.2
348.488	0.19
348.95	0.19
349.411	0.19
349.873	0.19
350.334	0.19
350.795	0.19
351.256	0.19
351.718	0.19
352.179	0.19
352.64	0.19
353.101	0.18
353.562	0.18
354.023	0.18
354.484	0.18
354.945	0.18
355.406	0.18
355.867	0.18
356.328	0.18
356.789	0.18
357.25	0.18
357.711	0.18
358.172	0.18
358.633	0.18
359.093	0.18
359.554	0.18
360.015	0.18
360.476	0.18
360.936	0.18
361.397	0.18
361.858	0.18
362.318	0.18
362.779	0.18
363.239	0.18
363.7	0.18
364.16	0.18
364.621	0.18
365.081	0.18
365.541	0.18
366.002	0.18
366.462	0.18
366.922	0.18
367.383	0.18
367.843	0.18
368.303	0.18
368.763	0.18
369.223	0.18
369.684	0.18
370.144	0.17
370.604	0.17
371.064	0.17
371.524	0.17
371.984	0.17
372.444	0.17
372.904	0.17
373.363	0.17
373.823	0.17
374.283	0.17
374.743	0.17
375.203	0.17
375.663	0.17
376.122	0.17
376.582	0.17
377.042	0.17
377.501	0.17
377.961	0.17
378.42	0.17
378.88	0.17
379.34	0.17
379.799	0.17
380.259	0.17
380.718	0.17
381.177	0.17
381.637	0.17
382.096	0.17
382.555	0.17
383.015	0.17
383.474	0.17
383.933	0.17
384.393	0.17
384.852	0.17
385.311	0.17
385.77	0.17
386.229	0.17
386.688	0.17
387.147	0.17
387.606	0.17
388.065	0.17
388.524	0.17
388.983	0.17
389.442	0.17
389.901	0.17
390.36	0.17
390.819	0.17
391.277	0.17
391.736	0.17
392.195	0.17
392.654	0.17
393.112	0.17
393.571	0.17
394.03	0.17
394.488	0.17
394.947	0.17
395.405	0.17
395.864	0.17
396.322	0.17
396.781	0.17
397.239	0.17
397.698	0.17
398.156	0.17
398.614	0.17
399.073	0.17
399.531	0.17
399.989	0.17
400.447	0.17
400.905	0.17
401.364	0.17
401.822	0.16
402.28	0.16
402.738	0.16
403.196	0.16
403.654	0.16
404.112	0.16
404.57	0.16
405.028	0.16
405.486	0.16
405.944	0.16
406.402	0.16
406.859	0.16
407.317	0.16
407.775	0.16
408.233	0.16
408.691	0.16
409.148	0.16
409.606	0.16
410.064	0.16
410.521	0.16
410.979	0.16
411.436	0.16
411.894	0.16
412.351	0.16
412.809	0.15
413.266	0.15
413.724	0.15
414.181	0.15
414.638	0.15
415.096	0.15
415.553	0.15
416.01	0.15
416.467	0.15
416.925	0.15
417.382	0.15
417.839	0.15
418.296	0.15
418.753	0.15
419.21	0.15
419.667	0.15
420.124	0.15
420.581	0.15
421.038	0.16
421.495	0.16
421.952	0.16
422.409	0.16
422.866	0.16
423.322	0.16
423.779	0.16
424.236	0.15
424.693	0.15
425.149	0.15
425.606	0.15
426.063	0.15
426.519	0.15
426.976	0.15
427.433	0.15
427.889	0.15
428.346	0.15
428.802	0.15
429.258	0.15
429.715	0.15
430.171	0.15
430.628	0.15
431.084	0.15
431.54	0.15
431.997	0.15
432.453	0.15
432.909	0.15
433.365	0.15
433.821	0.15
434.277	0.15
434.734	0.15
435.19	0.15
435.646	0.15
436.102	0.15
436.558	0.15
437.014	0.15
437.47	0.15
437.925	0.15
438.381	0.15
438.837	0.15
439.293	0.14
439.749	0.14
440.205	0.14
440.66	0.14
441.116	0.14
441.572	0.15
442.027	0.15
442.483	0.15
442.939	0.15
443.394	0.15
443.85	0.15
444.305	0.15
444.761	0.15
445.216	0.15
445.672	0.15
446.127	0.15
446.582	0.15
447.038	0.15
447.493	0.15
447.948	0.15
448.403	0.15
448.859	0.15
449.314	0.15
449.769	0.14
450.224	0.14
450.679	0.14
451.134	0.14
451.589	0.14
452.044	0.14
452.499	0.14
452.954	0.14
453.409	0.14
453.864	0.14
454.319	0.14
454.774	0.14
455.229	0.14
455.684	0.14
456.138	0.14
456.593	0.14
457.048	0.14
457.503	0.14
457.957	0.14
458.412	0.14
458.866	0.14
459.321	0.14
459.776	0.14
460.23	0.14
460.685	0.13
461.139	0.13
461.593	0.13
462.048	0.13
462.502	0.13
462.957	0.13
463.411	0.13
463.865	0.13
464.319	0.13
464.774	0.13
465.228	0.13
465.682	0.13
466.136	0.13
466.59	0.13
467.044	0.13
467.499	0.13
467.953	0.13
468.407	0.13
468.861	0.13
469.315	0.12
469.768	0.12
470.222	0.12
470.676	0.12
471.13	0.12
471.584	0.12
472.038	0.12
472.491	0.12
472.945	0.12
473.399	0.12
473.852	0.12
474.306	0.13
474.76	0.13
475.213	0.13
475.667	0.13
476.12	0.13
476.574	0.13
477.027	0.13
477.481	0.13
477.934	0.13
478.388	0.13
478.841	0.13
479.294	0.13
479.748	0.13
480.201	0.13
480.654	0.13
481.107	0.13
481.561	0.13
482.014	0.14
482.467	0.14
482.92	0.14
483.373	0.14
483.826	0.15
484.279	0.15
484.732	0.15
485.185	0.15
485.638	0.16
486.091	0.16
486.544	0.16
486.997	0.16
487.449	0.16
487.902	0.16
488.355	0.15
488.808	0.15
489.26	0.15
489.713	0.14
490.166	0.14
490.618	0.14
491.071	0.14
491.523	0.14
491.976	0.14
492.429	0.14
492.881	0.14
493.333	0.14
493.786	0.15
494.238	0.15
494.691	0.15
495.143	0.15
495.595	0.15
496.048	0.15
496.5	0.15
496.952	0.15
497.404	0.16
497.856	0.16
498.309	0.16
498.761	0.16
499.213	0.16
499.665	0.16
500.117	0.16
500.569	0.16
501.021	0.16
501.473	0.16
501.925	0.16
502.377	0.16
502.828	0.17
503.28	0.17
503.732	0.17
504.184	0.17
504.636	0.17
505.087	0.17
505.539	0.17
505.991	0.17
506.442	0.17
506.894	0.17
507.345	0.17
507.797	0.17
508.249	0.17
508.7	0.17
509.151	0.17
509.603	0.17
510.054	0.17
510.506	0.17
510.957	0.17
511.408	0.17
511.86	0.17
512.311	0.17
512.762	0.17
513.213	0.16
513.665	0.16
514.116	0.16
514.567	0.16
515.018	0.16
515.469	0.16
515.92	0.16
516.371	0.16
516.822	0.16
517.273	0.16
517.724	0.16
518.175	0.16
518.626	0.16
519.076	0.16
519.527	0.16
519.978	0.15
520.429	0.15
520.88	0.15
521.33	0.15
521.781	0.14
522.232	0.14
522.682	0.14
523.133	0.13
523.583	0.13
524.034	0.13
524.484	0.13
524.935	0.13
525.385	0.13
525.836	0.14
526.286	0.14
526.736	0.14
527.187	0.15
527.637	0.15
528.087	0.15
528.538	0.16
528.988	0.16
529.438	0.16
529.888	0.16
530.338	0.16
530.788	0.17
531.238	0.17
531.688	0.17
532.139	0.17
532.589	0.17
533.038	0.17
533.488	0.17
533.938	0.17
534.388	0.17
534.838	0.17
535.288	0.17
535.738	0.17
536.187	0.17
536.637	0.17
537.087	0.17
537.537	0.17
537.986	0.17
538.436	0.17
538.885	0.17
539.335	0.17
539.785	0.17
540.234	0.17
540.684	0.17
541.133	0.17
541.582	0.17
542.032	0.17
542.481	0.17
542.931	0.17
543.38	0.17
543.829	0.17
544.278	0.16
544.728	0.16
545.177	0.16
545.626	0.16
546.075	0.16
546.524	0.16
546.973	0.16
547.422	0.16
547.871	0.16
548.32	0.15
548.769	0.15
549.218	0.15
549.667	0.15
550.116	0.14
550.565	0.14
551.014	0.14
551.463	0.14
551.911	0.14
552.36	0.14
552.809	0.13
553.258	0.13
553.706	0.13
554.155	0.13
554.603	0.13
555.052	0.13
555.501	0.13
555.949	0.12
556.398	0.12
556.846	0.12
557.294	0.11
557.743	0.11
558.191	0.11
558.64	0.11
559.088	0.11
559.536	0.11
559.985	0.11
560.433	0.11
560.881	0.11
561.329	0.11
561.777	0.11
562.225	0.11
562.674	0.11
563.122	0.11
563.57	0.1
564.018	0.1
564.466	0.1
564.914	0.1
565.362	0.1
565.809	0.1
566.257	0.09
566.705	0.09
567.153	0.1
567.601	0.1
568.048	0.1
568.496	0.1
568.944	0.11
569.392	0.11
569.839	0.11
570.287	0.11
570.734	0.12
571.182	0.12
571.63	0.12
572.077	0.12
572.525	0.12
572.972	0.12
573.419	0.12
573.867	0.12
574.314	0.12
574.761	0.12
575.209	0.12
575.656	0.12
576.103	0.12
576.551	0.12
576.998	0.12
577.445	0.12
577.892	0.12
578.339	0.12
578.786	0.12
579.233	0.12
579.68	0.12
580.127	0.12
580.574	0.12
581.021	0.12
581.468	0.11
581.915	0.11
582.362	0.11
582.809	0.11
583.255	0.11
583.702	0.11
584.149	0.11
584.596	0.11
585.042	0.1
585.489	0.1
585.936	0.1
586.382	0.1
586.829	0.1
587.275	0.1
587.722	0.1
588.168	0.09
588.615	0.09
589.061	0.09
589.508	0.09
589.954	0.09
590.4	0.09
590.847	0.09
591.293	0.09
591.739	0.09
592.185	0.09
592.632	0.09
593.078	0.09
593.524	0.09
593.97	0.09
594.416	0.08
594.862	0.08
595.308	0.08
595.754	0.08
596.2	0.08
596.646	0.08
597.092	0.08
597.538	0.08
597.984	0.08
598.43	0.08
598.876	0.08
599.321	0.08
599.767	0.08
600.213	0.08
600.659	0.08
601.104	0.08
601.55	0.08
601.995	0.08
602.441	0.08
602.887	0.08
603.332	0.08
603.778	0.08
604.223	0.08
604.668	0.08
605.114	0.08
605.559	0.08
606.005	0.08
606.45	0.08
606.895	0.08
607.341	0.08
607.786	0.08
608.231	0.08
608.676	0.08
609.121	0.08
609.566	0.08
610.012	0.08
610.457	0.08
610.902	0.08
611.347	0.08
611.792	0.08
612.237	0.08
612.682	0.08
613.127	0.08
613.571	0.08
614.016	0.08
614.461	0.08
614.906	0.08
615.351	0.08
615.795	0.08
616.24	0.07
616.685	0.07
617.129	0.07
617.574	0.07
618.019	0.07
618.463	0.07
618.908	0.07
619.352	0.07
619.797	0.07
620.241	0.07
620.686	0.07
621.13	0.07
621.574	0.07
622.019	0.07
622.463	0.07
622.907	0.07
623.352	0.07
623.796	0.07
624.24	0.07
624.684	0.07
625.128	0.07
625.572	0.07
626.016	0.07
626.461	0.07
626.905	0.07
627.349	0.07
627.793	0.07
628.236	0.07
628.68	0.07
629.124	0.07
629.568	0.07
630.012	0.07
630.456	0.07
630.9	0.07
631.343	0.07
631.787	0.07
632.231	0.07
632.674	0.07
633.118	0.07
633.562	0.07
634.005	0.07
634.449	0.07
634.892	0.08
635.336	0.08
635.779	0.08
636.223	0.08
636.666	0.08
637.109	0.08
637.553	0.09
637.996	0.09
638.439	0.09
638.883	0.09
639.326	0.09
639.769	0.09
640.212	0.09
640.655	0.09
641.099	0.09
641.542	0.1
641.985	0.1
642.428	0.1
642.871	0.1
643.314	0.1
643.757	0.11
644.2	0.11
644.643	0.11
645.085	0.11
645.528	0.12
645.971	0.12
646.414	0.12
646.857	0.13
647.299	0.13
647.742	0.13
648.185	0.14
648.627	0.14
649.07	0.14
649.513	0.14
649.955	0.14
650.398	0.15
650.84	0.15
651.283	0.15
651.725	0.15
652.168	0.15
652.61	0.15
653.052	0.16
653.495	0.16
653.937	0.13
654.379	0.11
654.821	0.12
655.264	0.12
655.706	0.12
656.148	0.13
656.59	0.13
657.032	0.13
657.474	0.13
657.916	0.13
658.358	0.13
658.8	0.16
659.242	0.2
659.684	0.19
660.126	0.19
660.568	0.2
661.01	0.2
661.452	0.2
661.894	0.2
662.335	0.2
662.777	0.21
663.219	0.21
663.661	0.21
664.102	0.22
664.544	0.22
664.985	0.22
665.427	0.22
665.869	0.23
666.31	0.23
666.752	0.23
667.193	0.23
667.634	0.23
668.076	0.24
668.517	0.24
668.959	0.24
669.4	0.25
669.841	0.25
670.282	0.25
670.724	0.26
671.165	0.26
671.606	0.26
672.047	0.26
672.488	0.26
672.929	0.26
673.37	0.26
673.811	0.26
674.252	0.27
674.693	0.26
675.134	0.26
675.575	0.27
676.016	0.27
676.457	0.27
676.898	0.27
677.339	0.27
677.78	0.28
678.22	0.28
678.661	0.28
679.102	0.28
679.542	0.29
679.983	0.29
680.424	0.29
680.864	0.29
681.305	0.29
681.745	0.29
682.186	0.29
682.626	0.29
683.067	0.29
683.507	0.3
683.948	0.3
684.388	0.3
684.828	0.3
685.269	0.3
685.709	0.3
686.149	0.3
686.589	0.3
687.029	0.3
687.47	0.3
687.91	0.3
688.35	0.3
688.79	0.3
689.23	0.3
689.67	0.3
690.11	0.3
690.55	0.31
690.99	0.31
691.43	0.31
691.87	0.31
692.31	0.31
692.749	0.31
693.189	0.31
693.629	0.31
694.069	0.3
694.508	0.3
694.948	0.3
695.388	0.3
695.827	0.3
696.267	0.3
696.706	0.3
697.146	0.3
697.586	0.3
698.025	0.3
698.464	0.3
698.904	0.3
699.343	0.3
699.783	0.29
700.222	0.29
700.661	0.29
701.101	0.29
701.54	0.29
701.979	0.29
702.418	0.29
702.857	0.29
703.297	0.28
703.736	0.28
704.175	0.28
704.614	0.28
705.053	0.28
705.492	0.28
705.931	0.28
706.37	0.28
706.809	0.28
707.248	0.28
707.687	0.27
708.125	0.27
708.564	0.27
709.003	0.27
709.442	0.27
709.88	0.26
710.319	0.26
710.758	0.26
711.196	0.25
711.635	0.25
712.074	0.25
712.512	0.25
712.951	0.25
713.389	0.25
713.828	0.24
714.266	0.24
714.705	0.24
715.143	0.24
715.581	0.23
716.02	0.23
716.458	0.23
716.896	0.22
717.334	0.22
717.773	0.22
718.211	0.22
718.649	0.21
719.087	0.21
719.525	0.21
719.963	0.21
720.401	0.2
720.839	0.2
721.277	0.2
721.715	0.2
722.153	0.19
722.591	0.19
723.029	0.19
723.467	0.19
723.905	0.19
724.342	0.19
724.78	0.18
725.218	0.18
725.656	0.18
726.093	0.18
726.531	0.18
726.969	0.18
727.406	0.17
727.844	0.17
728.281	0.17
728.719	0.17
729.156	0.17
729.594	0.17
730.031	0.17
730.469	0.16
730.906	0.16
731.343	0.16
731.781	0.16
732.218	0.16
732.655	0.15
733.092	0.15
733.53	0.15
733.967	0.15
734.404	0.14
734.841	0.14
735.278	0.14
735.715	0.14
736.152	0.13
736.589	0.13
737.026	0.13
737.463	0.13
737.9	0.12
738.337	0.12
738.774	0.12
739.211	0.12
739.647	0.11
740.084	0.11
740.521	0.11
740.958	0.1
741.394	0.1
741.831	0.09
742.268	0.09
742.704	0.08
743.141	0.08
743.577	0.08
744.014	0.08
744.45	0.07
744.887	0.07
745.323	0.07
745.76	0.07
746.196	0.07
746.632	0.07
747.069	0.07
747.505	0.07
747.941	0.07
748.378	0.07
748.814	0.07
749.25	0.07
749.686	0.07
750.122	0.07
750.558	0.07
750.994	0.07
751.43	0.06
751.866	0.06
752.302	0.06
752.738	0.06
753.174	0.06
753.61	0.06
754.046	0.06
754.482	0.06
754.918	0.06
755.354	0.06
755.789	0.06
756.225	0.06
756.661	0.06
757.096	0.06
757.532	0.06
757.968	0.06
758.403	0.06
758.839	0.06
759.274	0.05
759.71	0.05
760.145	0.05
760.581	0.05
761.016	0.04
761.452	0.04
761.887	0.04
762.322	0.04
762.758	0.03
763.193	0.03
763.628	0.03
764.063	0.03
764.499	0.02
764.934	0.02
765.369	0.02
765.804	0.02
766.239	0.02
766.674	0.01
767.109	0.01
767.544	0.01
767.979	0.01
768.414	0
768.849	0
769.284	0
769.719	-0
770.154	-0
770.588	-0.01
771.023	-0.01
771.458	-0.01
771.893	-0.02
772.327	-0.02
772.762	-0.02
773.197	-0.03
773.631	-0.03
774.066	-0.03
774.5	-0.04
774.935	-0.04
775.369	-0.05
775.804	-0.05
776.238	-0.06
776.673	-0.06
777.107	-0.06
777.541	-0.07
777.976	-0.07
778.41	-0.08
778.844	-0.08
779.279	-0.07
779.713	-0.07
780.147	-0.07
780.581	-0.07
781.015	-0.07
781.449	-0.07
781.883	-0.06
782.317	-0.07
782.751	-0.06
783.185	-0.06
783.619	-0.06
784.053	-0.07
784.487	-0.07
784.921	-0.07
785.355	-0.07
785.789	-0.07
786.223	-0.07
786.656	-0.06
787.09	-0.06
787.524	-0.06
787.957	-0.06
788.391	-0.06
788.825	-0.06
789.258	-0.06
789.692	-0.06
790.125	-0.06
790.559	-0.06
790.992	-0.06
791.426	-0.06
791.859	-0.06
792.293	-0.05
792.726	-0.04
793.159	-0.04
793.593	-0.04
794.026	-0.04
794.459	-0.05
794.892	-0.05
795.326	-0.05
795.759	-0.05
796.192	-0.05
796.625	-0.06
797.058	-0.07
797.491	-0.07
797.924	-0.08
798.357	-0.08
798.79	-0.08
799.223	-0.08
799.656	-0.08
800.089	-0.08
800.522	-0.08
800.955	-0.08
801.387	-0.08
801.82	-0.08
802.253	-0.08
802.686	-0.08
803.118	-0.08
803.551	-0.08
803.984	-0.08
804.416	-0.07
804.849	-0.07
805.281	-0.07
805.714	-0.07
806.146	-0.07
806.579	-0.07
807.011	-0.07
807.444	-0.07
807.876	-0.07
808.308	-0.07
808.741	-0.07
809.173	-0.08
809.605	-0.08
810.037	-0.08
810.47	-0.09
810.902	-0.09
811.334	-0.09
811.766	-0.08
812.198	-0.08
812.63	-0.08
813.062	-0.08
813.494	-0.08
813.926	-0.08
814.358	-0.08
814.79	-0.08
815.222	-0.07
815.654	-0.07
816.086	-0.07
816.518	-0.08
816.949	-0.08
817.381	-0.08
817.813	-0.08
818.245	-0.08
818.676	-0.07
819.108	-0.07
819.54	-0.07
819.971	-0.07
820.403	-0.07
820.834	-0.07
821.266	-0.07
821.697	-0.07
822.129	-0.07
822.56	-0.07
822.991	-0.08
823.423	-0.08
823.854	-0.08
824.286	-0.08
824.717	-0.08
825.148	-0.07
825.579	-0.07
826.01	-0.06
826.442	-0.06
826.873	-0.05
827.304	-0.05
827.735	-0.04
828.166	-0.03
828.597	-0.03
829.028	-0.03
829.459	-0.02
829.89	-0.02
830.321	-0.02
830.752	-0.01
831.183	-0.01
831.613	-0.01
832.044	-0
832.475	-0
832.906	-0
833.336	0
833.767	0
834.198	0.01
834.628	0.01
835.059	0.01
835.49	0.01
835.92	0.01
836.351	0.01
836.781	0.01
837.212	0.01
837.642	0.01
838.072	0.02
838.503	0.02
838.933	0.02
839.364	0.02
839.794	0.02
840.224	0.02
840.654	0.02
841.085	0.02
841.515	0.02
841.945	0.02
842.375	0.03
842.805	0.03
843.235	0.03
843.665	0.03
844.095	0.03
844.525	0.03
844.955	0.03
845.385	0.03
845.815	0.03
846.245	0.03
846.675	0.03
847.105	0.03
847.534	0.04
847.964	0.04
848.394	0.04
848.824	0.04
849.253	0.04
849.683	0.04
850.112	0.04
850.542	0.04
850.972	0.04
851.401	0.04
851.831	0.04
852.26	0.04
852.69	0.04
853.119	0.04
853.548	0.04
853.978	0.04
854.407	0.05
854.836	0.05
855.266	0.05
855.695	0.05
856.124	0.05
856.553	0.05
856.983	0.05
857.412	0.05
857.841	0.05
858.27	0.05
858.699	0.05
859.128	0.05
859.557	0.05
859.986	0.05
860.415	0.05
860.844	0.05
861.273	0.05
861.702	0.05
862.13	0.06
862.559	0.06
862.988	0.06
863.417	0.06
863.845	0.06
864.274	0.06
864.703	0.06
865.131	0.06
865.56	0.06
865.989	0.06
866.417	0.06
866.846	0.06
867.274	0.06
867.703	0.07
868.131	0.07
868.559	0.07
868.988	0.07
869.416	0.07
869.844	0.07
870.273	0.07
870.701	0.07
871.129	0.07
871.557	0.07
871.986	0.07
872.414	0.07
872.842	0.07
873.27	0.07
873.698	0.07
874.126	0.07
874.554	0.07
874.982	0.07
875.41	0.07
875.838	0.07
876.266	0.07
876.694	0.07
877.122	0.07
877.549	0.07
877.977	0.07
878.405	0.07
878.833	0.07
879.26	0.07
879.688	0.07
880.116	0.07
880.543	0.07
880.971	0.07
881.399	0.07
881.826	0.07
882.254	0.07
882.681	0.07
883.109	0.07
883.536	0.06
883.963	0.06
884.391	0.07
884.818	0.07
885.245	0.07
885.673	0.07
886.1	0.07
886.527	0.07
886.954	0.07
887.381	0.07
887.809	0.07
888.236	0.07
888.663	0.07
889.09	0.07
889.517	0.07
889.944	0.07
890.371	0.07
890.798	0.07
891.225	0.07
891.652	0.07
892.078	0.07
892.505	0.07
892.932	0.07
893.359	0.07
893.786	0.07
894.212	0.07
894.639	0.07
895.066	0.07
895.492	0.07
895.919	0.07
896.346	0.07
896.772	0.07
897.199	0.07
897.625	0.07
898.052	0.07
898.478	0.07
898.904	0.07
899.331	0.07
899.757	0.07
900.183	0.07
900.61	0.07
901.036	0.07
901.462	0.07
901.888	0.07
902.315	0.07
902.741	0.07
903.167	0.07
903.593	0.07
904.019	0.07
904.445	0.07
904.871	0.07
905.297	0.07
905.723	0.07
906.149	0.07
906.575	0.07
907.001	0.07
907.427	0.07
907.852	0.07
908.278	0.07
908.704	0.07
909.13	0.07
909.555	0.07
909.981	0.07
910.407	0.07
910.832	0.07
911.258	0.07
911.684	0.07
912.109	0.07
912.535	0.07
912.96	0.07
913.386	0.07
913.811	0.07
914.236	0.07
914.662	0.07
915.087	0.07
915.512	0.07
915.938	0.07
916.363	0.07
916.788	0.07
917.213	0.07
917.639	0.07
918.064	0.07
918.489	0.07
918.914	0.07
919.339	0.07
919.764	0.08
920.189	0.08
920.614	0.08
921.039	0.08
921.464	0.08
921.889	0.08
922.314	0.08
922.738	0.08
923.163	0.08
923.588	0.08
924.013	0.08
924.437	0.08
924.862	0.08
925.287	0.08
925.711	0.08
926.136	0.08
926.561	0.08
926.985	0.08
927.41	0.08
927.834	0.08
928.259	0.08
928.683	0.08
929.108	0.08
929.532	0.08
929.956	0.08
930.381	0.08
930.805	0.08
931.229	0.08
931.653	0.08
932.078	0.08
932.502	0.08
932.926	0.08
933.35	0.08
933.774	0.08
934.198	0.08
934.622	0.08
935.046	0.08
935.47	0.08
935.894	0.08
936.318	0.08
936.742	0.08
937.166	0.08
937.59	0.08
938.014	0.08
938.437	0.08
938.861	0.09
939.285	0.09
939.709	0.09
940.132	0.09
940.556	0.09
940.98	0.09
941.403	0.09
941.827	0.09
942.25	0.09
942.674	0.09
943.097	0.09
943.521	0.09
943.944	0.09
944.368	0.09
944.791	0.09
945.214	0.09
945.638	0.09
946.061	0.09
946.484	0.09
946.907	0.09
947.331	0.09
947.754	0.09
948.177	0.09
948.6	0.09
949.023	0.09
949.446	0.09
949.869	0.09
950.292	0.09
950.715	0.09
951.138	0.09
951.561	0.09
951.984	0.09
952.407	0.09
952.83	0.09
953.252	0.09
953.675	0.08
954.098	0.08
954.521	0.08
954.943	0.08
955.366	0.09
955.789	0.09
956.211	0.09
956.634	0.09
957.056	0.09
957.479	0.09
957.902	0.09
958.324	0.09
958.746	0.08
959.169	0.08
959.591	0.08
960.014	0.08
960.436	0.08
960.858	0.08
961.281	0.08
961.703	0.08
962.125	0.08
962.547	0.08
962.969	0.08
963.391	0.08
963.814	0.08
964.236	0.08
964.658	0.08
965.08	0.08
965.502	0.08
965.924	0.08
966.346	0.08
966.768	0.08
967.189	0.08
967.611	0.08
968.033	0.08
968.455	0.08
968.877	0.08
969.298	0.08
969.72	0.09
970.142	0.09
970.563	0.09
970.985	0.09
971.407	0.09
971.828	0.09
972.25	0.09
972.671	0.09
973.093	0.09
973.514	0.09
973.936	0.09
974.357	0.09
974.778	0.09
975.2	0.09
975.621	0.09
976.042	0.09
976.464	0.09
976.885	0.09
977.306	0.09
977.727	0.08
978.148	0.08
978.57	0.08
978.991	0.08
979.412	0.08
979.833	0.08
980.254	0.08
980.675	0.08
981.096	0.08
981.517	0.08
981.937	0.08
982.358	0.08
982.779	0.09
983.2	0.09
983.621	0.09
984.042	0.09
984.462	0.09
984.883	0.09
985.304	0.09
985.724	0.09
986.145	0.09
986.565	0.09
986.986	0.09
987.407	0.09
987.827	0.09
988.248	0.09
988.668	0.09
989.088	0.09
989.509	0.09
989.929	0.09
990.35	0.09
990.77	0.09
991.19	0.09
991.61	0.09
992.031	0.09
992.451	0.09
992.871	0.09
993.291	0.09
993.711	0.09
994.131	0.09
994.551	0.09
994.971	0.09
995.391	0.09
995.811	0.09
996.231	0.09
996.651	0.09
997.071	0.09
997.491	0.09
997.911	0.09
998.331	0.09
998.75	0.09
999.17	0.09
999.59	0.09
1000.009	0.09
1000.429	0.09
1000.849	0.09
1001.268	0.09
1001.688	0.09
1002.107	0.09
1002.527	0.09
1002.946	0.09
1003.366	0.09
1003.785	0.09
1004.205	0.09
1004.624	0.09
1005.044	0.09
1005.463	0.09
1005.882	0.09
1006.301	0.09
1006.721	0.09
1007.14	0.09
1007.559	0.09
1007.978	0.09
1008.397	0.09
1008.816	0.09
1009.235	0.09
1009.655	0.09
1010.074	0.09
1010.492	0.09
1010.911	0.09
1011.33	0.09
1011.749	0.09
1012.168	0.09
1012.587	0.09
1013.006	0.09
1013.425	0.09
1013.843	0.09
1014.262	0.09
1014.681	0.09
1015.099	0.09
1015.518	0.09
1015.937	0.09
1016.355	0.1
1016.774	0.1
1017.192	0.1
1017.611	0.1
1018.029	0.1
1018.448	0.1
1018.866	0.1
1019.285	0.1
1019.703	0.1
1020.121	0.1
1020.54	0.1
1020.958	0.1
1021.376	0.1
1021.794	0.1
1022.213	0.1
1022.631	0.1
1023.049	0.1
1023.467	0.1
1023.885	0.1
1024.303	0.1
1024.721	0.1
1025.139	0.1
1025.557	0.1
1025.975	0.1
1026.393	0.1
1026.811	0.1
1027.229	0.1
1027.647	0.1
1028.065	0.1
1028.482	0.1
1028.9	0.1
1029.318	0.1
1029.735	0.1
1030.153	0.1
1030.571	0.1
1030.988	0.1
1031.406	0.11
1031.823	0.11
1032.241	0.11
1032.659	0.11
1033.076	0.11
1033.493	0.11
1033.911	0.11
1034.328	0.11
1034.746	0.11
1035.163	0.11
1035.58	0.11
1035.997	0.11
1036.415	0.11
1036.832	0.11
1037.249	0.12
1037.666	0.12
1038.083	0.12
1038.501	0.12
1038.918	0.12
1039.335	0.12
1039.752	0.12
1040.169	0.12
1040.586	0.12
1041.003	0.12
1041.419	0.12
1041.836	0.12
1042.253	0.12
1042.67	0.13
1043.087	0.13
1043.504	0.13
1043.92	0.13
1044.337	0.13
1044.754	0.13
1045.17	0.13
1045.587	0.13
1046.004	0.13
1046.42	0.14
1046.837	0.14
1047.253	0.14
1047.67	0.14
1048.086	0.14
1048.503	0.14
1048.919	0.14
1049.335	0.14
1049.752	0.14
1050.168	0.14
1050.584	0.14
1051.001	0.14
1051.417	0.14
1051.833	0.15
1052.249	0.15
1052.665	0.15
1053.081	0.15
1053.497	0.15
1053.914	0.15
1054.33	0.15
1054.746	0.15
1055.162	0.16
1055.578	0.16
1055.993	0.16
1056.409	0.16
1056.825	0.16
1057.241	0.16
1057.657	0.16
1058.073	0.17
1058.488	0.17
1058.904	0.17
1059.32	0.17
1059.736	0.17
1060.151	0.18
1060.567	0.18
1060.982	0.18
1061.398	0.18
1061.813	0.19
1062.229	0.19
1062.644	0.19
1063.06	0.19
1063.475	0.19
1063.891	0.19
1064.306	0.19
1064.721	0.2
1065.137	0.2
1065.552	0.2
1065.967	0.2
1066.382	0.21
1066.798	0.21
1067.213	0.21
1067.628	0.21
1068.043	0.22
1068.458	0.22
1068.873	0.22
1069.288	0.22
1069.703	0.22
1070.118	0.22
1070.533	0.23
1070.948	0.23
1071.363	0.23
1071.778	0.24
1072.193	0.24
1072.607	0.25
1073.022	0.25
1073.437	0.25
1073.852	0.26
1074.266	0.26
1074.681	0.27
1075.096	0.27
1075.51	0.27
1075.925	0.28
1076.339	0.28
1076.754	0.29
1077.168	0.29
1077.583	0.3
1077.997	0.31
1078.412	0.31
1078.826	0.32
1079.24	0.32
1079.655	0.33
1080.069	0.33
1080.483	0.34
1080.897	0.34
1081.312	0.35
1081.726	0.35
1082.14	0.36
1082.554	0.36
1082.968	0.37
1083.382	0.38
1083.796	0.39
1084.21	0.4
1084.624	0.41
1085.038	0.42
1085.452	0.43
1085.866	0.44
1086.28	0.45
1086.694	0.47
1087.108	0.48
1087.521	0.49
1087.935	0.51
1088.349	0.53
1088.763	0.55
1089.176	0.57
1089.59	0.6
1090.004	0.63
1090.417	0.67
1090.831	0.71
1091.244	0.76
1091.658	0.82
1092.071	0.89
1092.485	0.96
1092.898	1.06
1093.312	1.19
1093.725	1.39
1094.138	1.83
1094.552	-0
1094.965	-0
1095.378	-0
1095.791	-0
1096.205	-0
1096.618	-0
1097.031	-0
1097.444	-0
1097.857	-0
1098.27	-0
1098.683	-0
1099.096	-0
1099.509	-0
1099.922	-0
1100.335	-0
1100.748	-0
1101.161	-0
1101.574	-0
1101.986	-0
1102.399	-0
1102.812	-0
1103.225	-0
1103.637	-0
1104.05	-0
1104.463	-0
1104.875	-0
1105.288	-0
1105.7	-0
1106.113	-0
1106.525	-0
1106.938	-0
1107.35	-0
1107.763	-0
1108.175	-0
1108.588	-0
1109	-0
1109.412	-0
1109.824	-0
1110.237	-0
1110.649	-0
1111.061	-0
