Data from redip-kinet-2-5a_Absorbance__29__00029.txt Node

Date: Fri Apr 12 13:46:28 CEST 2024
User: Laser008
Spectrometer: MAYP115816
Trigger mode: 0
Integration Time (sec): 2.000000E-1
Scans to average: 10
Electric dark correction enabled: true
Nonlinearity correction enabled: true
Boxcar width: 5
XAxis mode: Wavelengths
Number of Pixels in Spectrum: 2068
>>>>>Begin Spectral Data<<<<<
198.914	-2.44
199.384	-2.28
199.855	-2.14
200.325	-2.02
200.796	-1.95
201.266	-1.89
201.737	-1.81
202.207	-1.75
202.677	-1.7
203.147	-1.65
203.618	-1.62
204.088	-1.59
204.558	-1.57
205.028	-1.56
205.498	-1.56
205.968	-1.55
206.439	-1.55
206.909	-1.55
207.379	-1.54
207.849	-1.54
208.319	-1.54
208.789	-1.53
209.258	-1.53
209.728	-1.53
210.198	-1.53
210.668	-1.53
211.138	-1.52
211.608	-1.52
212.077	-1.52
212.547	-1.52
213.017	-1.52
213.486	-1.52
213.956	-1.52
214.426	-1.51
214.895	-1.51
215.365	-1.51
215.834	-1.51
216.304	-1.51
216.773	-1.51
217.243	-1.5
217.712	-1.5
218.181	-1.5
218.651	-1.5
219.12	-1.5
219.589	-1.49
220.058	-1.49
220.528	-1.49
220.997	-1.48
221.466	-1.48
221.935	-1.47
222.404	-1.47
222.873	-1.46
223.342	-1.46
223.812	-1.45
224.281	-1.44
224.749	-1.43
225.218	-1.43
225.687	-1.42
226.156	-1.41
226.625	-1.39
227.094	-1.38
227.563	-1.36
228.031	-1.34
228.5	-1.32
228.969	-1.3
229.438	-1.27
229.906	-1.24
230.375	-1.2
230.844	-1.16
231.312	-1.12
231.781	-1.08
232.249	-1.03
232.718	-0.99
233.186	-0.94
233.655	-0.89
234.123	-0.84
234.591	-0.79
235.06	-0.74
235.528	-0.69
235.996	-0.64
236.465	-0.59
236.933	-0.54
237.401	-0.5
237.869	-0.46
238.337	-0.42
238.805	-0.38
239.274	-0.34
239.742	-0.31
240.21	-0.27
240.678	-0.24
241.146	-0.21
241.614	-0.19
242.081	-0.16
242.549	-0.14
243.017	-0.11
243.485	-0.09
243.953	-0.07
244.421	-0.05
244.888	-0.04
245.356	-0.02
245.824	-0.01
246.291	0.01
246.759	0.02
247.227	0.03
247.694	0.05
248.162	0.06
248.629	0.07
249.097	0.08
249.564	0.09
250.032	0.1
250.499	0.1
250.967	0.11
251.434	0.12
251.901	0.13
252.369	0.13
252.836	0.14
253.303	0.15
253.77	0.15
254.237	0.16
254.705	0.16
255.172	0.17
255.639	0.17
256.106	0.17
256.573	0.18
257.04	0.18
257.507	0.19
257.974	0.19
258.441	0.19
258.908	0.19
259.375	0.2
259.841	0.2
260.308	0.2
260.775	0.2
261.242	0.2
261.709	0.2
262.175	0.21
262.642	0.21
263.109	0.21
263.575	0.21
264.042	0.21
264.508	0.21
264.975	0.21
265.441	0.21
265.908	0.21
266.374	0.21
266.841	0.21
267.307	0.21
267.773	0.21
268.24	0.21
268.706	0.21
269.172	0.21
269.639	0.21
270.105	0.21
270.571	0.21
271.037	0.21
271.503	0.21
271.969	0.21
272.435	0.21
272.902	0.21
273.368	0.21
273.834	0.21
274.3	0.21
274.765	0.2
275.231	0.2
275.697	0.2
276.163	0.2
276.629	0.2
277.095	0.2
277.56	0.2
278.026	0.19
278.492	0.19
278.958	0.19
279.423	0.19
279.889	0.19
280.354	0.19
280.82	0.19
281.286	0.19
281.751	0.19
282.217	0.19
282.682	0.19
283.147	0.19
283.613	0.19
284.078	0.19
284.544	0.19
285.009	0.19
285.474	0.18
285.939	0.18
286.405	0.18
286.87	0.18
287.335	0.18
287.8	0.18
288.265	0.18
288.73	0.18
289.195	0.18
289.66	0.18
290.125	0.18
290.59	0.18
291.055	0.18
291.52	0.18
291.985	0.18
292.45	0.17
292.915	0.17
293.38	0.17
293.844	0.17
294.309	0.17
294.774	0.17
295.239	0.17
295.703	0.17
296.168	0.17
296.632	0.17
297.097	0.17
297.562	0.17
298.026	0.17
298.491	0.17
298.955	0.17
299.419	0.17
299.884	0.17
300.348	0.17
300.813	0.17
301.277	0.17
301.741	0.17
302.205	0.17
302.67	0.17
303.134	0.17
303.598	0.17
304.062	0.17
304.526	0.17
304.99	0.17
305.454	0.17
305.919	0.17
306.383	0.17
306.847	0.17
307.31	0.16
307.774	0.16
308.238	0.16
308.702	0.16
309.166	0.16
309.63	0.16
310.094	0.16
310.557	0.16
311.021	0.16
311.485	0.16
311.948	0.16
312.412	0.16
312.876	0.16
313.339	0.16
313.803	0.16
314.266	0.16
314.73	0.16
315.193	0.16
315.657	0.16
316.12	0.16
316.584	0.16
317.047	0.16
317.51	0.15
317.973	0.15
318.437	0.15
318.9	0.15
319.363	0.15
319.826	0.15
320.29	0.15
320.753	0.15
321.216	0.15
321.679	0.15
322.142	0.15
322.605	0.15
323.068	0.15
323.531	0.15
323.994	0.15
324.457	0.15
324.92	0.14
325.382	0.14
325.845	0.14
326.308	0.14
326.771	0.14
327.233	0.14
327.696	0.14
328.159	0.14
328.622	0.14
329.084	0.14
329.547	0.14
330.009	0.14
330.472	0.14
330.934	0.14
331.397	0.14
331.859	0.14
332.322	0.14
332.784	0.13
333.246	0.13
333.709	0.13
334.171	0.13
334.633	0.13
335.096	0.13
335.558	0.13
336.02	0.13
336.482	0.13
336.944	0.13
337.406	0.13
337.868	0.13
338.331	0.13
338.793	0.13
339.255	0.13
339.717	0.13
340.178	0.13
340.64	0.12
341.102	0.12
341.564	0.12
342.026	0.12
342.488	0.12
342.949	0.12
343.411	0.12
343.873	0.12
344.335	0.12
344.796	0.12
345.258	0.12
345.719	0.12
346.181	0.12
346.643	0.12
347.104	0.12
347.566	0.12
348.027	0.11
348.488	0.11
348.95	0.11
349.411	0.11
349.873	0.11
350.334	0.11
350.795	0.11
351.256	0.11
351.718	0.11
352.179	0.11
352.64	0.1
353.101	0.1
353.562	0.1
354.023	0.1
354.484	0.1
354.945	0.1
355.406	0.1
355.867	0.1
356.328	0.09
356.789	0.09
357.25	0.09
357.711	0.09
358.172	0.09
358.633	0.09
359.093	0.1
359.554	0.1
360.015	0.1
360.476	0.1
360.936	0.1
361.397	0.1
361.858	0.1
362.318	0.1
362.779	0.1
363.239	0.1
363.7	0.1
364.16	0.1
364.621	0.1
365.081	0.1
365.541	0.1
366.002	0.1
366.462	0.1
366.922	0.1
367.383	0.1
367.843	0.1
368.303	0.1
368.763	0.1
369.223	0.1
369.684	0.1
370.144	0.09
370.604	0.09
371.064	0.09
371.524	0.09
371.984	0.09
372.444	0.09
372.904	0.09
373.363	0.09
373.823	0.09
374.283	0.09
374.743	0.09
375.203	0.09
375.663	0.09
376.122	0.09
376.582	0.09
377.042	0.09
377.501	0.09
377.961	0.09
378.42	0.09
378.88	0.09
379.34	0.09
379.799	0.1
380.259	0.1
380.718	0.1
381.177	0.1
381.637	0.09
382.096	0.09
382.555	0.09
383.015	0.09
383.474	0.09
383.933	0.09
384.393	0.09
384.852	0.09
385.311	0.09
385.77	0.09
386.229	0.09
386.688	0.09
387.147	0.09
387.606	0.09
388.065	0.09
388.524	0.09
388.983	0.09
389.442	0.09
389.901	0.09
390.36	0.09
390.819	0.09
391.277	0.09
391.736	0.09
392.195	0.09
392.654	0.09
393.112	0.09
393.571	0.09
394.03	0.09
394.488	0.09
394.947	0.09
395.405	0.09
395.864	0.09
396.322	0.09
396.781	0.09
397.239	0.09
397.698	0.09
398.156	0.09
398.614	0.09
399.073	0.09
399.531	0.09
399.989	0.09
400.447	0.09
400.905	0.09
401.364	0.09
401.822	0.09
402.28	0.09
402.738	0.09
403.196	0.09
403.654	0.09
404.112	0.09
404.57	0.09
405.028	0.09
405.486	0.09
405.944	0.09
406.402	0.09
406.859	0.09
407.317	0.09
407.775	0.08
408.233	0.08
408.691	0.08
409.148	0.08
409.606	0.08
410.064	0.08
410.521	0.08
410.979	0.08
411.436	0.08
411.894	0.08
412.351	0.08
412.809	0.08
413.266	0.08
413.724	0.08
414.181	0.08
414.638	0.08
415.096	0.08
415.553	0.08
416.01	0.08
416.467	0.08
416.925	0.08
417.382	0.08
417.839	0.08
418.296	0.08
418.753	0.08
419.21	0.08
419.667	0.08
420.124	0.08
420.581	0.08
421.038	0.08
421.495	0.08
421.952	0.08
422.409	0.08
422.866	0.08
423.322	0.08
423.779	0.08
424.236	0.08
424.693	0.08
425.149	0.08
425.606	0.08
426.063	0.08
426.519	0.08
426.976	0.08
427.433	0.08
427.889	0.08
428.346	0.08
428.802	0.08
429.258	0.08
429.715	0.08
430.171	0.08
430.628	0.08
431.084	0.08
431.54	0.08
431.997	0.08
432.453	0.08
432.909	0.08
433.365	0.08
433.821	0.08
434.277	0.08
434.734	0.08
435.19	0.08
435.646	0.08
436.102	0.08
436.558	0.08
437.014	0.08
437.47	0.08
437.925	0.08
438.381	0.08
438.837	0.07
439.293	0.07
439.749	0.07
440.205	0.07
440.66	0.07
441.116	0.07
441.572	0.07
442.027	0.07
442.483	0.08
442.939	0.08
443.394	0.08
443.85	0.08
444.305	0.08
444.761	0.08
445.216	0.08
445.672	0.08
446.127	0.08
446.582	0.08
447.038	0.08
447.493	0.08
447.948	0.08
448.403	0.08
448.859	0.08
449.314	0.07
449.769	0.07
450.224	0.07
450.679	0.07
451.134	0.07
451.589	0.07
452.044	0.07
452.499	0.07
452.954	0.07
453.409	0.07
453.864	0.07
454.319	0.07
454.774	0.06
455.229	0.06
455.684	0.06
456.138	0.06
456.593	0.06
457.048	0.06
457.503	0.06
457.957	0.06
458.412	0.06
458.866	0.06
459.321	0.06
459.776	0.06
460.23	0.06
460.685	0.06
461.139	0.06
461.593	0.06
462.048	0.06
462.502	0.06
462.957	0.06
463.411	0.06
463.865	0.06
464.319	0.06
464.774	0.06
465.228	0.06
465.682	0.06
466.136	0.06
466.59	0.06
467.044	0.06
467.499	0.06
467.953	0.05
468.407	0.05
468.861	0.05
469.315	0.05
469.768	0.04
470.222	0.04
470.676	0.04
471.13	0.04
471.584	0.04
472.038	0.04
472.491	0.04
472.945	0.04
473.399	0.04
473.852	0.04
474.306	0.05
474.76	0.05
475.213	0.05
475.667	0.05
476.12	0.05
476.574	0.05
477.027	0.05
477.481	0.05
477.934	0.05
478.388	0.05
478.841	0.05
479.294	0.05
479.748	0.05
480.201	0.05
480.654	0.05
481.107	0.05
481.561	0.05
482.014	0.05
482.467	0.05
482.92	0.06
483.373	0.06
483.826	0.06
484.279	0.07
484.732	0.07
485.185	0.07
485.638	0.07
486.091	0.07
486.544	0.07
486.997	0.07
487.449	0.07
487.902	0.07
488.355	0.07
488.808	0.06
489.26	0.06
489.713	0.06
490.166	0.05
490.618	0.05
491.071	0.05
491.523	0.05
491.976	0.05
492.429	0.05
492.881	0.05
493.333	0.05
493.786	0.05
494.238	0.05
494.691	0.06
495.143	0.06
495.595	0.06
496.048	0.06
496.5	0.06
496.952	0.06
497.404	0.06
497.856	0.06
498.309	0.06
498.761	0.06
499.213	0.06
499.665	0.05
500.117	0.06
500.569	0.06
501.021	0.06
501.473	0.06
501.925	0.06
502.377	0.06
502.828	0.06
503.28	0.06
503.732	0.06
504.184	0.06
504.636	0.06
505.087	0.06
505.539	0.06
505.991	0.06
506.442	0.06
506.894	0.06
507.345	0.06
507.797	0.06
508.249	0.06
508.7	0.06
509.151	0.06
509.603	0.05
510.054	0.05
510.506	0.05
510.957	0.05
511.408	0.05
511.86	0.05
512.311	0.05
512.762	0.05
513.213	0.05
513.665	0.05
514.116	0.04
514.567	0.04
515.018	0.04
515.469	0.04
515.92	0.04
516.371	0.04
516.822	0.04
517.273	0.04
517.724	0.04
518.175	0.04
518.626	0.04
519.076	0.04
519.527	0.03
519.978	0.03
520.429	0.03
520.88	0.03
521.33	0.03
521.781	0.02
522.232	0.02
522.682	0.01
523.133	0.01
523.583	0.01
524.034	0.01
524.484	0.01
524.935	0.01
525.385	0.01
525.836	0.01
526.286	0.02
526.736	0.02
527.187	0.02
527.637	0.03
528.087	0.03
528.538	0.04
528.988	0.04
529.438	0.04
529.888	0.04
530.338	0.05
530.788	0.05
531.238	0.05
531.688	0.05
532.139	0.05
532.589	0.05
533.038	0.05
533.488	0.05
533.938	0.06
534.388	0.06
534.838	0.06
535.288	0.06
535.738	0.06
536.187	0.06
536.637	0.06
537.087	0.06
537.537	0.06
537.986	0.06
538.436	0.06
538.885	0.06
539.335	0.06
539.785	0.06
540.234	0.06
540.684	0.06
541.133	0.06
541.582	0.06
542.032	0.06
542.481	0.06
542.931	0.06
543.38	0.06
543.829	0.06
544.278	0.06
544.728	0.06
545.177	0.06
545.626	0.06
546.075	0.06
546.524	0.06
546.973	0.06
547.422	0.06
547.871	0.06
548.32	0.06
548.769	0.06
549.218	0.05
549.667	0.05
550.116	0.05
550.565	0.05
551.014	0.05
551.463	0.05
551.911	0.05
552.36	0.05
552.809	0.05
553.258	0.05
553.706	0.05
554.155	0.05
554.603	0.05
555.052	0.05
555.501	0.05
555.949	0.04
556.398	0.04
556.846	0.04
557.294	0.04
557.743	0.04
558.191	0.03
558.64	0.03
559.088	0.03
559.536	0.03
559.985	0.04
560.433	0.04
560.881	0.04
561.329	0.04
561.777	0.04
562.225	0.04
562.674	0.04
563.122	0.04
563.57	0.04
564.018	0.04
564.466	0.04
564.914	0.04
565.362	0.04
565.809	0.04
566.257	0.04
566.705	0.04
567.153	0.04
567.601	0.04
568.048	0.05
568.496	0.05
568.944	0.06
569.392	0.06
569.839	0.07
570.287	0.07
570.734	0.07
571.182	0.08
571.63	0.08
572.077	0.08
572.525	0.09
572.972	0.09
573.419	0.09
573.867	0.09
574.314	0.09
574.761	0.09
575.209	0.09
575.656	0.09
576.103	0.1
576.551	0.1
576.998	0.1
577.445	0.09
577.892	0.09
578.339	0.09
578.786	0.09
579.233	0.1
579.68	0.1
580.127	0.1
580.574	0.1
581.021	0.1
581.468	0.09
581.915	0.09
582.362	0.09
582.809	0.09
583.255	0.1
583.702	0.1
584.149	0.09
584.596	0.09
585.042	0.09
585.489	0.09
585.936	0.09
586.382	0.09
586.829	0.09
587.275	0.09
587.722	0.08
588.168	0.08
588.615	0.08
589.061	0.07
589.508	0.07
589.954	0.07
590.4	0.07
590.847	0.07
591.293	0.07
591.739	0.07
592.185	0.07
592.632	0.07
593.078	0.07
593.524	0.07
593.97	0.07
594.416	0.07
594.862	0.07
595.308	0.07
595.754	0.07
596.2	0.07
596.646	0.07
597.092	0.07
597.538	0.07
597.984	0.07
598.43	0.07
598.876	0.08
599.321	0.08
599.767	0.08
600.213	0.08
600.659	0.08
601.104	0.07
601.55	0.07
601.995	0.07
602.441	0.07
602.887	0.07
603.332	0.07
603.778	0.07
604.223	0.07
604.668	0.07
605.114	0.07
605.559	0.07
606.005	0.08
606.45	0.07
606.895	0.07
607.341	0.07
607.786	0.07
608.231	0.07
608.676	0.07
609.121	0.07
609.566	0.07
610.012	0.07
610.457	0.07
610.902	0.07
611.347	0.07
611.792	0.07
612.237	0.07
612.682	0.07
613.127	0.07
613.571	0.07
614.016	0.07
614.461	0.07
614.906	0.07
615.351	0.07
615.795	0.07
616.24	0.06
616.685	0.06
617.129	0.06
617.574	0.06
618.019	0.06
618.463	0.05
618.908	0.05
619.352	0.05
619.797	0.05
620.241	0.05
620.686	0.05
621.13	0.05
621.574	0.05
622.019	0.06
622.463	0.06
622.907	0.06
623.352	0.06
623.796	0.06
624.24	0.06
624.684	0.06
625.128	0.06
625.572	0.06
626.016	0.06
626.461	0.05
626.905	0.05
627.349	0.05
627.793	0.05
628.236	0.05
628.68	0.05
629.124	0.05
629.568	0.05
630.012	0.05
630.456	0.05
630.9	0.05
631.343	0.05
631.787	0.05
632.231	0.05
632.674	0.04
633.118	0.04
633.562	0.04
634.005	0.04
634.449	0.05
634.892	0.05
635.336	0.05
635.779	0.05
636.223	0.05
636.666	0.05
637.109	0.05
637.553	0.05
637.996	0.06
638.439	0.06
638.883	0.06
639.326	0.06
639.769	0.06
640.212	0.06
640.655	0.06
641.099	0.06
641.542	0.06
641.985	0.06
642.428	0.06
642.871	0.06
643.314	0.06
643.757	0.07
644.2	0.07
644.643	0.07
645.085	0.07
645.528	0.07
645.971	0.08
646.414	0.08
646.857	0.08
647.299	0.09
647.742	0.09
648.185	0.09
648.627	0.09
649.07	0.09
649.513	0.1
649.955	0.1
650.398	0.1
650.84	0.1
651.283	0.1
651.725	0.1
652.168	0.1
652.61	0.1
653.052	0.11
653.495	0.11
653.937	0.09
654.379	0.08
654.821	0.09
655.264	0.09
655.706	0.09
656.148	0.1
656.59	0.1
657.032	0.1
657.474	0.1
657.916	0.1
658.358	0.1
658.8	0.12
659.242	0.14
659.684	0.13
660.126	0.13
660.568	0.13
661.01	0.13
661.452	0.13
661.894	0.13
662.335	0.14
662.777	0.14
663.219	0.14
663.661	0.14
664.102	0.15
664.544	0.15
664.985	0.15
665.427	0.15
665.869	0.15
666.31	0.15
666.752	0.16
667.193	0.16
667.634	0.16
668.076	0.16
668.517	0.16
668.959	0.16
669.4	0.17
669.841	0.17
670.282	0.18
670.724	0.18
671.165	0.18
671.606	0.18
672.047	0.18
672.488	0.18
672.929	0.18
673.37	0.18
673.811	0.18
674.252	0.18
674.693	0.18
675.134	0.18
675.575	0.18
676.016	0.18
676.457	0.18
676.898	0.19
677.339	0.19
677.78	0.19
678.22	0.19
678.661	0.2
679.102	0.2
679.542	0.2
679.983	0.2
680.424	0.2
680.864	0.2
681.305	0.2
681.745	0.2
682.186	0.2
682.626	0.2
683.067	0.21
683.507	0.21
683.948	0.21
684.388	0.21
684.828	0.21
685.269	0.21
685.709	0.22
686.149	0.22
686.589	0.22
687.029	0.22
687.47	0.22
687.91	0.22
688.35	0.21
688.79	0.21
689.23	0.22
689.67	0.22
690.11	0.22
690.55	0.22
690.99	0.22
691.43	0.22
691.87	0.22
692.31	0.22
692.749	0.22
693.189	0.22
693.629	0.22
694.069	0.22
694.508	0.22
694.948	0.22
695.388	0.22
695.827	0.22
696.267	0.22
696.706	0.22
697.146	0.22
697.586	0.22
698.025	0.22
698.464	0.22
698.904	0.22
699.343	0.22
699.783	0.22
700.222	0.21
700.661	0.21
701.101	0.21
701.54	0.21
701.979	0.21
702.418	0.21
702.857	0.21
703.297	0.21
703.736	0.21
704.175	0.21
704.614	0.21
705.053	0.21
705.492	0.21
705.931	0.21
706.37	0.21
706.809	0.21
707.248	0.21
707.687	0.21
708.125	0.21
708.564	0.21
709.003	0.2
709.442	0.2
709.88	0.2
710.319	0.2
710.758	0.19
711.196	0.19
711.635	0.19
712.074	0.19
712.512	0.19
712.951	0.19
713.389	0.19
713.828	0.19
714.266	0.18
714.705	0.18
715.143	0.18
715.581	0.18
716.02	0.18
716.458	0.18
716.896	0.17
717.334	0.17
717.773	0.17
718.211	0.17
718.649	0.16
719.087	0.16
719.525	0.16
719.963	0.16
720.401	0.16
720.839	0.16
721.277	0.15
721.715	0.15
722.153	0.15
722.591	0.15
723.029	0.15
723.467	0.15
723.905	0.15
724.342	0.15
724.78	0.14
725.218	0.14
725.656	0.14
726.093	0.14
726.531	0.14
726.969	0.14
727.406	0.14
727.844	0.14
728.281	0.14
728.719	0.14
729.156	0.14
729.594	0.13
730.031	0.13
730.469	0.13
730.906	0.13
731.343	0.13
731.781	0.13
732.218	0.13
732.655	0.13
733.092	0.12
733.53	0.12
733.967	0.12
734.404	0.12
734.841	0.11
735.278	0.11
735.715	0.11
736.152	0.11
736.589	0.1
737.026	0.1
737.463	0.1
737.9	0.1
738.337	0.1
738.774	0.09
739.211	0.09
739.647	0.09
740.084	0.09
740.521	0.08
740.958	0.08
741.394	0.08
741.831	0.07
742.268	0.06
742.704	0.06
743.141	0.06
743.577	0.05
744.014	0.05
744.45	0.05
744.887	0.05
745.323	0.05
745.76	0.04
746.196	0.05
746.632	0.05
747.069	0.05
747.505	0.05
747.941	0.05
748.378	0.05
748.814	0.05
749.25	0.05
749.686	0.05
750.122	0.05
750.558	0.05
750.994	0.05
751.43	0.05
751.866	0.05
752.302	0.05
752.738	0.05
753.174	0.05
753.61	0.05
754.046	0.05
754.482	0.05
754.918	0.05
755.354	0.05
755.789	0.05
756.225	0.05
756.661	0.05
757.096	0.05
757.532	0.05
757.968	0.05
758.403	0.05
758.839	0.05
759.274	0.05
759.71	0.05
760.145	0.04
760.581	0.04
761.016	0.04
761.452	0.03
761.887	0.03
762.322	0.03
762.758	0.03
763.193	0.03
763.628	0.02
764.063	0.02
764.499	0.02
764.934	0.01
765.369	0.01
765.804	0.01
766.239	0.01
766.674	0.01
767.109	0
767.544	0
767.979	-0
768.414	-0.01
768.849	-0.01
769.284	-0.01
769.719	-0.01
770.154	-0.01
770.588	-0.01
771.023	-0.02
771.458	-0.02
771.893	-0.02
772.327	-0.03
772.762	-0.03
773.197	-0.04
773.631	-0.04
774.066	-0.05
774.5	-0.05
774.935	-0.06
775.369	-0.06
775.804	-0.07
776.238	-0.07
776.673	-0.07
777.107	-0.07
777.541	-0.08
777.976	-0.08
778.41	-0.08
778.844	-0.08
779.279	-0.07
779.713	-0.07
780.147	-0.07
780.581	-0.06
781.015	-0.06
781.449	-0.06
781.883	-0.06
782.317	-0.06
782.751	-0.06
783.185	-0.06
783.619	-0.06
784.053	-0.06
784.487	-0.06
784.921	-0.06
785.355	-0.06
785.789	-0.06
786.223	-0.06
786.656	-0.06
787.09	-0.05
787.524	-0.05
787.957	-0.05
788.391	-0.05
788.825	-0.06
789.258	-0.06
789.692	-0.05
790.125	-0.05
790.559	-0.05
790.992	-0.05
791.426	-0.06
791.859	-0.05
792.293	-0.04
792.726	-0.04
793.159	-0.03
793.593	-0.03
794.026	-0.03
794.459	-0.04
794.892	-0.04
795.326	-0.04
795.759	-0.04
796.192	-0.05
796.625	-0.05
797.058	-0.06
797.491	-0.07
797.924	-0.07
798.357	-0.07
798.79	-0.07
799.223	-0.07
799.656	-0.07
800.089	-0.07
800.522	-0.08
800.955	-0.08
801.387	-0.08
801.82	-0.08
802.253	-0.08
802.686	-0.08
803.118	-0.08
803.551	-0.08
803.984	-0.07
804.416	-0.07
804.849	-0.07
805.281	-0.06
805.714	-0.06
806.146	-0.06
806.579	-0.06
807.011	-0.06
807.444	-0.06
807.876	-0.06
808.308	-0.06
808.741	-0.07
809.173	-0.07
809.605	-0.08
810.037	-0.08
810.47	-0.08
810.902	-0.08
811.334	-0.08
811.766	-0.08
812.198	-0.07
812.63	-0.07
813.062	-0.07
813.494	-0.07
813.926	-0.07
814.358	-0.07
814.79	-0.07
815.222	-0.07
815.654	-0.07
816.086	-0.07
816.518	-0.07
816.949	-0.07
817.381	-0.07
817.813	-0.07
818.245	-0.07
818.676	-0.06
819.108	-0.06
819.54	-0.06
819.971	-0.07
820.403	-0.07
820.834	-0.07
821.266	-0.07
821.697	-0.07
822.129	-0.07
822.56	-0.07
822.991	-0.07
823.423	-0.07
823.854	-0.08
824.286	-0.08
824.717	-0.07
825.148	-0.07
825.579	-0.06
826.01	-0.06
826.442	-0.05
826.873	-0.05
827.304	-0.04
827.735	-0.03
828.166	-0.03
828.597	-0.02
829.028	-0.02
829.459	-0.01
829.89	-0.01
830.321	-0
830.752	0
831.183	0
831.613	0.01
832.044	0.01
832.475	0.01
832.906	0.02
833.336	0.02
833.767	0.02
834.198	0.03
834.628	0.03
835.059	0.03
835.49	0.03
835.92	0.03
836.351	0.04
836.781	0.04
837.212	0.04
837.642	0.04
838.072	0.04
838.503	0.04
838.933	0.04
839.364	0.04
839.794	0.05
840.224	0.05
840.654	0.05
841.085	0.05
841.515	0.05
841.945	0.05
842.375	0.06
842.805	0.06
843.235	0.06
843.665	0.06
844.095	0.06
844.525	0.06
844.955	0.07
845.385	0.07
845.815	0.07
846.245	0.07
846.675	0.07
847.105	0.07
847.534	0.08
847.964	0.08
848.394	0.08
848.824	0.08
849.253	0.08
849.683	0.08
850.112	0.08
850.542	0.08
850.972	0.09
851.401	0.09
851.831	0.09
852.26	0.09
852.69	0.09
853.119	0.09
853.548	0.09
853.978	0.09
854.407	0.09
854.836	0.09
855.266	0.1
855.695	0.1
856.124	0.1
856.553	0.1
856.983	0.1
857.412	0.1
857.841	0.1
858.27	0.1
858.699	0.1
859.128	0.1
859.557	0.1
859.986	0.1
860.415	0.1
860.844	0.1
861.273	0.11
861.702	0.11
862.13	0.11
862.559	0.11
862.988	0.11
863.417	0.11
863.845	0.11
864.274	0.11
864.703	0.11
865.131	0.12
865.56	0.12
865.989	0.12
866.417	0.12
866.846	0.12
867.274	0.12
867.703	0.12
868.131	0.12
868.559	0.12
868.988	0.12
869.416	0.12
869.844	0.12
870.273	0.13
870.701	0.13
871.129	0.13
871.557	0.13
871.986	0.13
872.414	0.13
872.842	0.13
873.27	0.13
873.698	0.13
874.126	0.13
874.554	0.13
874.982	0.13
875.41	0.13
875.838	0.13
876.266	0.13
876.694	0.13
877.122	0.13
877.549	0.13
877.977	0.13
878.405	0.13
878.833	0.13
879.26	0.13
879.688	0.13
880.116	0.13
880.543	0.13
880.971	0.13
881.399	0.12
881.826	0.12
882.254	0.12
882.681	0.12
883.109	0.12
883.536	0.12
883.963	0.12
884.391	0.12
884.818	0.12
885.245	0.12
885.673	0.12
886.1	0.13
886.527	0.13
886.954	0.13
887.381	0.13
887.809	0.13
888.236	0.13
888.663	0.13
889.09	0.13
889.517	0.13
889.944	0.13
890.371	0.13
890.798	0.13
891.225	0.13
891.652	0.13
892.078	0.13
892.505	0.13
892.932	0.13
893.359	0.13
893.786	0.13
894.212	0.13
894.639	0.13
895.066	0.13
895.492	0.13
895.919	0.13
896.346	0.13
896.772	0.13
897.199	0.13
897.625	0.13
898.052	0.13
898.478	0.13
898.904	0.13
899.331	0.13
899.757	0.13
900.183	0.13
900.61	0.13
901.036	0.13
901.462	0.13
901.888	0.13
902.315	0.13
902.741	0.13
903.167	0.13
903.593	0.13
904.019	0.13
904.445	0.13
904.871	0.13
905.297	0.13
905.723	0.13
906.149	0.13
906.575	0.13
907.001	0.13
907.427	0.13
907.852	0.13
908.278	0.13
908.704	0.13
909.13	0.13
909.555	0.13
909.981	0.13
910.407	0.13
910.832	0.14
911.258	0.14
911.684	0.14
912.109	0.14
912.535	0.14
912.96	0.14
913.386	0.13
913.811	0.13
914.236	0.13
914.662	0.13
915.087	0.13
915.512	0.13
915.938	0.13
916.363	0.13
916.788	0.13
917.213	0.13
917.639	0.13
918.064	0.14
918.489	0.14
918.914	0.14
919.339	0.14
919.764	0.14
920.189	0.14
920.614	0.14
921.039	0.14
921.464	0.14
921.889	0.14
922.314	0.14
922.738	0.14
923.163	0.14
923.588	0.14
924.013	0.14
924.437	0.14
924.862	0.14
925.287	0.14
925.711	0.14
926.136	0.14
926.561	0.14
926.985	0.14
927.41	0.14
927.834	0.14
928.259	0.14
928.683	0.14
929.108	0.14
929.532	0.14
929.956	0.15
930.381	0.15
930.805	0.15
931.229	0.15
931.653	0.15
932.078	0.15
932.502	0.15
932.926	0.15
933.35	0.15
933.774	0.15
934.198	0.15
934.622	0.15
935.046	0.15
935.47	0.15
935.894	0.15
936.318	0.15
936.742	0.15
937.166	0.15
937.59	0.15
938.014	0.15
938.437	0.15
938.861	0.15
939.285	0.15
939.709	0.16
940.132	0.16
940.556	0.16
940.98	0.16
941.403	0.16
941.827	0.16
942.25	0.16
942.674	0.16
943.097	0.16
943.521	0.17
943.944	0.17
944.368	0.17
944.791	0.17
945.214	0.17
945.638	0.17
946.061	0.17
946.484	0.17
946.907	0.17
947.331	0.17
947.754	0.16
948.177	0.16
948.6	0.16
949.023	0.16
949.446	0.16
949.869	0.16
950.292	0.16
950.715	0.16
951.138	0.16
951.561	0.16
951.984	0.15
952.407	0.15
952.83	0.15
953.252	0.15
953.675	0.15
954.098	0.15
954.521	0.15
954.943	0.15
955.366	0.15
955.789	0.15
956.211	0.15
956.634	0.15
957.056	0.15
957.479	0.15
957.902	0.15
958.324	0.15
958.746	0.15
959.169	0.15
959.591	0.15
960.014	0.15
960.436	0.15
960.858	0.15
961.281	0.15
961.703	0.15
962.125	0.15
962.547	0.15
962.969	0.15
963.391	0.15
963.814	0.15
964.236	0.15
964.658	0.15
965.08	0.15
965.502	0.15
965.924	0.15
966.346	0.15
966.768	0.15
967.189	0.15
967.611	0.15
968.033	0.15
968.455	0.15
968.877	0.15
969.298	0.15
969.72	0.15
970.142	0.15
970.563	0.15
970.985	0.15
971.407	0.15
971.828	0.15
972.25	0.15
972.671	0.15
973.093	0.15
973.514	0.15
973.936	0.15
974.357	0.15
974.778	0.15
975.2	0.15
975.621	0.15
976.042	0.15
976.464	0.15
976.885	0.15
977.306	0.15
977.727	0.15
978.148	0.15
978.57	0.15
978.991	0.15
979.412	0.15
979.833	0.15
980.254	0.15
980.675	0.15
981.096	0.15
981.517	0.15
981.937	0.15
982.358	0.15
982.779	0.15
983.2	0.15
983.621	0.15
984.042	0.15
984.462	0.15
984.883	0.16
985.304	0.16
985.724	0.16
986.145	0.16
986.565	0.16
986.986	0.16
987.407	0.16
987.827	0.16
988.248	0.16
988.668	0.16
989.088	0.16
989.509	0.16
989.929	0.16
990.35	0.16
990.77	0.16
991.19	0.16
991.61	0.16
992.031	0.16
992.451	0.16
992.871	0.16
993.291	0.16
993.711	0.16
994.131	0.16
994.551	0.16
994.971	0.16
995.391	0.16
995.811	0.16
996.231	0.16
996.651	0.16
997.071	0.16
997.491	0.16
997.911	0.16
998.331	0.16
998.75	0.16
999.17	0.16
999.59	0.16
1000.009	0.16
1000.429	0.16
1000.849	0.16
1001.268	0.16
1001.688	0.16
1002.107	0.16
1002.527	0.16
1002.946	0.16
1003.366	0.16
1003.785	0.16
1004.205	0.16
1004.624	0.16
1005.044	0.16
1005.463	0.16
1005.882	0.16
1006.301	0.16
1006.721	0.16
1007.14	0.16
1007.559	0.16
1007.978	0.16
1008.397	0.16
1008.816	0.16
1009.235	0.16
1009.655	0.16
1010.074	0.16
1010.492	0.16
1010.911	0.16
1011.33	0.16
1011.749	0.16
1012.168	0.16
1012.587	0.16
1013.006	0.16
1013.425	0.16
1013.843	0.16
1014.262	0.17
1014.681	0.17
1015.099	0.17
1015.518	0.17
1015.937	0.17
1016.355	0.17
1016.774	0.17
1017.192	0.17
1017.611	0.17
1018.029	0.17
1018.448	0.17
1018.866	0.17
1019.285	0.17
1019.703	0.17
1020.121	0.17
1020.54	0.17
1020.958	0.17
1021.376	0.17
1021.794	0.17
1022.213	0.17
1022.631	0.17
1023.049	0.17
1023.467	0.17
1023.885	0.17
1024.303	0.17
1024.721	0.17
1025.139	0.17
1025.557	0.17
1025.975	0.18
1026.393	0.18
1026.811	0.18
1027.229	0.18
1027.647	0.18
1028.065	0.18
1028.482	0.18
1028.9	0.18
1029.318	0.18
1029.735	0.18
1030.153	0.18
1030.571	0.18
1030.988	0.18
1031.406	0.18
1031.823	0.19
1032.241	0.19
1032.659	0.19
1033.076	0.19
1033.493	0.19
1033.911	0.19
1034.328	0.19
1034.746	0.19
1035.163	0.19
1035.58	0.19
1035.997	0.2
1036.415	0.2
1036.832	0.2
1037.249	0.2
1037.666	0.2
1038.083	0.2
1038.501	0.21
1038.918	0.21
1039.335	0.21
1039.752	0.21
1040.169	0.21
1040.586	0.21
1041.003	0.21
1041.419	0.21
1041.836	0.21
1042.253	0.22
1042.67	0.22
1043.087	0.22
1043.504	0.22
1043.92	0.22
1044.337	0.22
1044.754	0.23
1045.17	0.23
1045.587	0.23
1046.004	0.23
1046.42	0.23
1046.837	0.23
1047.253	0.24
1047.67	0.24
1048.086	0.24
1048.503	0.24
1048.919	0.24
1049.335	0.24
1049.752	0.24
1050.168	0.24
1050.584	0.25
1051.001	0.25
1051.417	0.25
1051.833	0.25
1052.249	0.25
1052.665	0.26
1053.081	0.26
1053.497	0.26
1053.914	0.27
1054.33	0.27
1054.746	0.27
1055.162	0.27
1055.578	0.27
1055.993	0.28
1056.409	0.28
1056.825	0.28
1057.241	0.28
1057.657	0.29
1058.073	0.29
1058.488	0.29
1058.904	0.3
1059.32	0.3
1059.736	0.31
1060.151	0.31
1060.567	0.31
1060.982	0.32
1061.398	0.32
1061.813	0.32
1062.229	0.32
1062.644	0.33
1063.06	0.33
1063.475	0.33
1063.891	0.34
1064.306	0.34
1064.721	0.34
1065.137	0.35
1065.552	0.35
1065.967	0.36
1066.382	0.36
1066.798	0.37
1067.213	0.37
1067.628	0.38
1068.043	0.38
1068.458	0.38
1068.873	0.39
1069.288	0.39
1069.703	0.4
1070.118	0.4
1070.533	0.41
1070.948	0.42
1071.363	0.42
1071.778	0.43
1072.193	0.44
1072.607	0.45
1073.022	0.46
1073.437	0.47
1073.852	0.47
1074.266	0.48
1074.681	0.49
1075.096	0.5
1075.51	0.51
1075.925	0.52
1076.339	0.53
1076.754	0.55
1077.168	0.56
1077.583	0.58
1077.997	0.59
1078.412	0.61
1078.826	0.62
1079.24	0.64
1079.655	0.65
1080.069	0.67
1080.483	0.68
1080.897	0.7
1081.312	0.71
1081.726	0.73
1082.14	0.75
1082.554	0.77
1082.968	0.8
1083.382	0.84
1083.796	0.87
1084.21	0.91
1084.624	0.96
1085.038	1.01
1085.452	1.08
1085.866	1.15
1086.28	1.23
1086.694	1.34
1087.108	1.51
1087.521	1.79
1087.935	3.22
1088.349	-0
1088.763	-0
1089.176	-0
1089.59	-0
1090.004	-0
1090.417	-0
1090.831	-0
1091.244	-0
1091.658	-0
1092.071	-0
1092.485	-0
1092.898	-0
1093.312	-0
1093.725	-0
1094.138	-0
1094.552	-0
1094.965	-0
1095.378	-0
1095.791	-0
1096.205	-0
1096.618	-0
1097.031	-0
1097.444	-0
1097.857	-0
1098.27	-0
1098.683	-0
1099.096	-0
1099.509	-0
1099.922	-0
1100.335	-0
1100.748	-0
1101.161	-0
1101.574	-0
1101.986	-0
1102.399	-0
1102.812	-0
1103.225	-0
1103.637	-0
1104.05	-0
1104.463	-0
1104.875	-0
1105.288	-0
1105.7	-0
1106.113	-0
1106.525	-0
1106.938	-0
1107.35	-0
1107.763	-0
1108.175	-0
1108.588	-0
1109	-0
1109.412	-0
1109.824	-0
1110.237	-0
1110.649	-0
1111.061	-0
