Data from redip-kinet-2-5a_Absorbance__38__00038.txt Node

Date: Fri Apr 12 13:46:46 CEST 2024
User: Laser008
Spectrometer: MAYP115816
Trigger mode: 0
Integration Time (sec): 2.000000E-1
Scans to average: 10
Electric dark correction enabled: true
Nonlinearity correction enabled: true
Boxcar width: 5
XAxis mode: Wavelengths
Number of Pixels in Spectrum: 2068
>>>>>Begin Spectral Data<<<<<
198.914	-2.26
199.384	-2.09
199.855	-1.95
200.325	-1.84
200.796	-1.76
201.266	-1.71
201.737	-1.63
202.207	-1.57
202.677	-1.52
203.147	-1.47
203.618	-1.44
204.088	-1.41
204.558	-1.39
205.028	-1.38
205.498	-1.38
205.968	-1.37
206.439	-1.37
206.909	-1.37
207.379	-1.36
207.849	-1.36
208.319	-1.36
208.789	-1.35
209.258	-1.35
209.728	-1.35
210.198	-1.35
210.668	-1.35
211.138	-1.34
211.608	-1.34
212.077	-1.34
212.547	-1.34
213.017	-1.34
213.486	-1.34
213.956	-1.34
214.426	-1.34
214.895	-1.33
215.365	-1.33
215.834	-1.33
216.304	-1.33
216.773	-1.33
217.243	-1.33
217.712	-1.32
218.181	-1.32
218.651	-1.32
219.12	-1.32
219.589	-1.31
220.058	-1.31
220.528	-1.31
220.997	-1.3
221.466	-1.3
221.935	-1.29
222.404	-1.29
222.873	-1.28
223.342	-1.28
223.812	-1.27
224.281	-1.26
224.749	-1.25
225.218	-1.25
225.687	-1.24
226.156	-1.23
226.625	-1.21
227.094	-1.2
227.563	-1.18
228.031	-1.16
228.5	-1.14
228.969	-1.11
229.438	-1.08
229.906	-1.05
230.375	-1.02
230.844	-0.98
231.312	-0.94
231.781	-0.9
232.249	-0.85
232.718	-0.8
233.186	-0.75
233.655	-0.7
234.123	-0.65
234.591	-0.6
235.06	-0.55
235.528	-0.5
235.996	-0.45
236.465	-0.41
236.933	-0.36
237.401	-0.31
237.869	-0.27
238.337	-0.23
238.805	-0.19
239.274	-0.15
239.742	-0.12
240.21	-0.09
240.678	-0.05
241.146	-0.03
241.614	0
242.081	0.03
242.549	0.05
243.017	0.08
243.485	0.1
243.953	0.12
244.421	0.14
244.888	0.15
245.356	0.17
245.824	0.18
246.291	0.2
246.759	0.21
247.227	0.22
247.694	0.24
248.162	0.25
248.629	0.26
249.097	0.27
249.564	0.28
250.032	0.29
250.499	0.29
250.967	0.3
251.434	0.31
251.901	0.32
252.369	0.32
252.836	0.33
253.303	0.34
253.77	0.34
254.237	0.35
254.705	0.35
255.172	0.36
255.639	0.36
256.106	0.37
256.573	0.37
257.04	0.37
257.507	0.38
257.974	0.38
258.441	0.38
258.908	0.38
259.375	0.39
259.841	0.39
260.308	0.39
260.775	0.39
261.242	0.39
261.709	0.39
262.175	0.4
262.642	0.4
263.109	0.4
263.575	0.4
264.042	0.4
264.508	0.4
264.975	0.4
265.441	0.4
265.908	0.4
266.374	0.4
266.841	0.4
267.307	0.4
267.773	0.4
268.24	0.4
268.706	0.4
269.172	0.4
269.639	0.4
270.105	0.4
270.571	0.4
271.037	0.39
271.503	0.39
271.969	0.39
272.435	0.39
272.902	0.39
273.368	0.39
273.834	0.39
274.3	0.39
274.765	0.39
275.231	0.38
275.697	0.38
276.163	0.38
276.629	0.38
277.095	0.38
277.56	0.37
278.026	0.37
278.492	0.37
278.958	0.37
279.423	0.37
279.889	0.36
280.354	0.36
280.82	0.36
281.286	0.36
281.751	0.36
282.217	0.36
282.682	0.36
283.147	0.36
283.613	0.36
284.078	0.36
284.544	0.35
285.009	0.35
285.474	0.35
285.939	0.35
286.405	0.35
286.87	0.35
287.335	0.35
287.8	0.34
288.265	0.34
288.73	0.34
289.195	0.34
289.66	0.34
290.125	0.34
290.59	0.34
291.055	0.33
291.52	0.33
291.985	0.33
292.45	0.33
292.915	0.33
293.38	0.33
293.844	0.33
294.309	0.33
294.774	0.33
295.239	0.32
295.703	0.32
296.168	0.32
296.632	0.32
297.097	0.32
297.562	0.32
298.026	0.32
298.491	0.32
298.955	0.32
299.419	0.32
299.884	0.32
300.348	0.32
300.813	0.31
301.277	0.31
301.741	0.31
302.205	0.31
302.67	0.31
303.134	0.31
303.598	0.31
304.062	0.31
304.526	0.31
304.99	0.31
305.454	0.31
305.919	0.31
306.383	0.3
306.847	0.3
307.31	0.3
307.774	0.3
308.238	0.3
308.702	0.3
309.166	0.3
309.63	0.3
310.094	0.3
310.557	0.3
311.021	0.3
311.485	0.3
311.948	0.29
312.412	0.29
312.876	0.29
313.339	0.29
313.803	0.29
314.266	0.29
314.73	0.29
315.193	0.29
315.657	0.29
316.12	0.29
316.584	0.29
317.047	0.28
317.51	0.28
317.973	0.28
318.437	0.28
318.9	0.28
319.363	0.28
319.826	0.28
320.29	0.28
320.753	0.28
321.216	0.28
321.679	0.27
322.142	0.27
322.605	0.27
323.068	0.27
323.531	0.27
323.994	0.27
324.457	0.27
324.92	0.27
325.382	0.27
325.845	0.27
326.308	0.27
326.771	0.26
327.233	0.26
327.696	0.26
328.159	0.26
328.622	0.26
329.084	0.26
329.547	0.26
330.009	0.26
330.472	0.26
330.934	0.26
331.397	0.26
331.859	0.25
332.322	0.25
332.784	0.25
333.246	0.25
333.709	0.25
334.171	0.25
334.633	0.25
335.096	0.25
335.558	0.25
336.02	0.25
336.482	0.25
336.944	0.25
337.406	0.25
337.868	0.24
338.331	0.24
338.793	0.24
339.255	0.24
339.717	0.24
340.178	0.24
340.64	0.24
341.102	0.24
341.564	0.24
342.026	0.24
342.488	0.24
342.949	0.24
343.411	0.24
343.873	0.24
344.335	0.23
344.796	0.23
345.258	0.23
345.719	0.23
346.181	0.23
346.643	0.23
347.104	0.23
347.566	0.23
348.027	0.23
348.488	0.23
348.95	0.23
349.411	0.23
349.873	0.22
350.334	0.22
350.795	0.22
351.256	0.22
351.718	0.22
352.179	0.22
352.64	0.22
353.101	0.22
353.562	0.22
354.023	0.21
354.484	0.21
354.945	0.21
355.406	0.21
355.867	0.21
356.328	0.21
356.789	0.21
357.25	0.21
357.711	0.21
358.172	0.21
358.633	0.21
359.093	0.21
359.554	0.21
360.015	0.21
360.476	0.21
360.936	0.21
361.397	0.21
361.858	0.21
362.318	0.22
362.779	0.22
363.239	0.21
363.7	0.21
364.16	0.21
364.621	0.21
365.081	0.21
365.541	0.21
366.002	0.21
366.462	0.21
366.922	0.21
367.383	0.21
367.843	0.21
368.303	0.21
368.763	0.21
369.223	0.21
369.684	0.21
370.144	0.21
370.604	0.21
371.064	0.21
371.524	0.2
371.984	0.2
372.444	0.2
372.904	0.2
373.363	0.2
373.823	0.2
374.283	0.2
374.743	0.2
375.203	0.2
375.663	0.2
376.122	0.2
376.582	0.2
377.042	0.2
377.501	0.2
377.961	0.2
378.42	0.2
378.88	0.2
379.34	0.2
379.799	0.2
380.259	0.2
380.718	0.2
381.177	0.2
381.637	0.2
382.096	0.2
382.555	0.2
383.015	0.2
383.474	0.2
383.933	0.2
384.393	0.2
384.852	0.2
385.311	0.2
385.77	0.2
386.229	0.2
386.688	0.2
387.147	0.2
387.606	0.2
388.065	0.2
388.524	0.2
388.983	0.2
389.442	0.2
389.901	0.2
390.36	0.2
390.819	0.2
391.277	0.2
391.736	0.2
392.195	0.2
392.654	0.2
393.112	0.2
393.571	0.2
394.03	0.2
394.488	0.2
394.947	0.2
395.405	0.2
395.864	0.2
396.322	0.2
396.781	0.2
397.239	0.2
397.698	0.2
398.156	0.2
398.614	0.2
399.073	0.2
399.531	0.2
399.989	0.2
400.447	0.2
400.905	0.2
401.364	0.19
401.822	0.19
402.28	0.19
402.738	0.19
403.196	0.19
403.654	0.19
404.112	0.19
404.57	0.19
405.028	0.19
405.486	0.19
405.944	0.19
406.402	0.19
406.859	0.19
407.317	0.19
407.775	0.19
408.233	0.19
408.691	0.19
409.148	0.18
409.606	0.18
410.064	0.18
410.521	0.18
410.979	0.18
411.436	0.18
411.894	0.18
412.351	0.18
412.809	0.18
413.266	0.18
413.724	0.18
414.181	0.18
414.638	0.18
415.096	0.18
415.553	0.18
416.01	0.18
416.467	0.18
416.925	0.18
417.382	0.18
417.839	0.18
418.296	0.18
418.753	0.18
419.21	0.18
419.667	0.18
420.124	0.18
420.581	0.18
421.038	0.18
421.495	0.18
421.952	0.18
422.409	0.18
422.866	0.18
423.322	0.18
423.779	0.18
424.236	0.18
424.693	0.18
425.149	0.18
425.606	0.18
426.063	0.18
426.519	0.18
426.976	0.18
427.433	0.18
427.889	0.18
428.346	0.18
428.802	0.18
429.258	0.18
429.715	0.18
430.171	0.18
430.628	0.18
431.084	0.18
431.54	0.18
431.997	0.18
432.453	0.18
432.909	0.18
433.365	0.18
433.821	0.18
434.277	0.17
434.734	0.17
435.19	0.17
435.646	0.17
436.102	0.18
436.558	0.18
437.014	0.18
437.47	0.17
437.925	0.17
438.381	0.17
438.837	0.17
439.293	0.17
439.749	0.17
440.205	0.17
440.66	0.17
441.116	0.17
441.572	0.17
442.027	0.17
442.483	0.17
442.939	0.17
443.394	0.17
443.85	0.17
444.305	0.17
444.761	0.17
445.216	0.17
445.672	0.17
446.127	0.17
446.582	0.17
447.038	0.17
447.493	0.17
447.948	0.17
448.403	0.17
448.859	0.17
449.314	0.17
449.769	0.17
450.224	0.17
450.679	0.17
451.134	0.17
451.589	0.17
452.044	0.17
452.499	0.17
452.954	0.17
453.409	0.17
453.864	0.17
454.319	0.17
454.774	0.16
455.229	0.16
455.684	0.16
456.138	0.16
456.593	0.16
457.048	0.16
457.503	0.16
457.957	0.16
458.412	0.16
458.866	0.16
459.321	0.16
459.776	0.16
460.23	0.16
460.685	0.16
461.139	0.16
461.593	0.16
462.048	0.16
462.502	0.16
462.957	0.16
463.411	0.16
463.865	0.16
464.319	0.16
464.774	0.16
465.228	0.16
465.682	0.16
466.136	0.16
466.59	0.16
467.044	0.16
467.499	0.16
467.953	0.16
468.407	0.16
468.861	0.15
469.315	0.15
469.768	0.15
470.222	0.15
470.676	0.15
471.13	0.15
471.584	0.15
472.038	0.15
472.491	0.15
472.945	0.15
473.399	0.15
473.852	0.15
474.306	0.16
474.76	0.16
475.213	0.16
475.667	0.16
476.12	0.16
476.574	0.16
477.027	0.16
477.481	0.16
477.934	0.16
478.388	0.16
478.841	0.16
479.294	0.16
479.748	0.16
480.201	0.16
480.654	0.16
481.107	0.17
481.561	0.17
482.014	0.17
482.467	0.17
482.92	0.17
483.373	0.17
483.826	0.18
484.279	0.18
484.732	0.19
485.185	0.19
485.638	0.19
486.091	0.19
486.544	0.19
486.997	0.19
487.449	0.19
487.902	0.19
488.355	0.19
488.808	0.18
489.26	0.18
489.713	0.18
490.166	0.18
490.618	0.18
491.071	0.18
491.523	0.18
491.976	0.18
492.429	0.18
492.881	0.18
493.333	0.18
493.786	0.18
494.238	0.18
494.691	0.19
495.143	0.19
495.595	0.19
496.048	0.19
496.5	0.19
496.952	0.19
497.404	0.19
497.856	0.19
498.309	0.19
498.761	0.19
499.213	0.19
499.665	0.19
500.117	0.2
500.569	0.2
501.021	0.2
501.473	0.2
501.925	0.2
502.377	0.2
502.828	0.21
503.28	0.21
503.732	0.21
504.184	0.21
504.636	0.21
505.087	0.21
505.539	0.21
505.991	0.21
506.442	0.21
506.894	0.21
507.345	0.21
507.797	0.21
508.249	0.21
508.7	0.21
509.151	0.21
509.603	0.21
510.054	0.21
510.506	0.21
510.957	0.21
511.408	0.21
511.86	0.21
512.311	0.21
512.762	0.21
513.213	0.21
513.665	0.21
514.116	0.21
514.567	0.21
515.018	0.21
515.469	0.21
515.92	0.21
516.371	0.2
516.822	0.2
517.273	0.2
517.724	0.21
518.175	0.21
518.626	0.21
519.076	0.2
519.527	0.2
519.978	0.2
520.429	0.2
520.88	0.2
521.33	0.19
521.781	0.19
522.232	0.19
522.682	0.18
523.133	0.18
523.583	0.18
524.034	0.18
524.484	0.18
524.935	0.18
525.385	0.18
525.836	0.18
526.286	0.18
526.736	0.19
527.187	0.19
527.637	0.2
528.087	0.2
528.538	0.2
528.988	0.21
529.438	0.21
529.888	0.21
530.338	0.21
530.788	0.21
531.238	0.21
531.688	0.21
532.139	0.21
532.589	0.21
533.038	0.22
533.488	0.22
533.938	0.22
534.388	0.22
534.838	0.22
535.288	0.22
535.738	0.22
536.187	0.22
536.637	0.22
537.087	0.22
537.537	0.22
537.986	0.22
538.436	0.21
538.885	0.21
539.335	0.21
539.785	0.21
540.234	0.21
540.684	0.21
541.133	0.21
541.582	0.21
542.032	0.21
542.481	0.21
542.931	0.21
543.38	0.21
543.829	0.21
544.278	0.2
544.728	0.2
545.177	0.2
545.626	0.2
546.075	0.2
546.524	0.2
546.973	0.2
547.422	0.2
547.871	0.19
548.32	0.19
548.769	0.19
549.218	0.18
549.667	0.18
550.116	0.18
550.565	0.18
551.014	0.17
551.463	0.17
551.911	0.17
552.36	0.17
552.809	0.17
553.258	0.16
553.706	0.16
554.155	0.16
554.603	0.16
555.052	0.16
555.501	0.15
555.949	0.15
556.398	0.15
556.846	0.14
557.294	0.14
557.743	0.14
558.191	0.14
558.64	0.13
559.088	0.13
559.536	0.13
559.985	0.13
560.433	0.13
560.881	0.13
561.329	0.13
561.777	0.13
562.225	0.13
562.674	0.13
563.122	0.13
563.57	0.13
564.018	0.12
564.466	0.12
564.914	0.12
565.362	0.12
565.809	0.11
566.257	0.11
566.705	0.11
567.153	0.11
567.601	0.11
568.048	0.12
568.496	0.12
568.944	0.12
569.392	0.12
569.839	0.13
570.287	0.13
570.734	0.13
571.182	0.13
571.63	0.13
572.077	0.13
572.525	0.13
572.972	0.13
573.419	0.13
573.867	0.13
574.314	0.13
574.761	0.13
575.209	0.13
575.656	0.13
576.103	0.13
576.551	0.13
576.998	0.13
577.445	0.13
577.892	0.13
578.339	0.13
578.786	0.13
579.233	0.13
579.68	0.13
580.127	0.13
580.574	0.12
581.021	0.12
581.468	0.12
581.915	0.12
582.362	0.12
582.809	0.12
583.255	0.12
583.702	0.12
584.149	0.11
584.596	0.11
585.042	0.11
585.489	0.11
585.936	0.11
586.382	0.11
586.829	0.11
587.275	0.1
587.722	0.1
588.168	0.1
588.615	0.1
589.061	0.09
589.508	0.09
589.954	0.09
590.4	0.09
590.847	0.09
591.293	0.09
591.739	0.09
592.185	0.09
592.632	0.09
593.078	0.09
593.524	0.09
593.97	0.09
594.416	0.09
594.862	0.09
595.308	0.09
595.754	0.08
596.2	0.08
596.646	0.08
597.092	0.08
597.538	0.08
597.984	0.08
598.43	0.08
598.876	0.09
599.321	0.09
599.767	0.09
600.213	0.09
600.659	0.08
601.104	0.08
601.55	0.08
601.995	0.08
602.441	0.08
602.887	0.08
603.332	0.08
603.778	0.08
604.223	0.08
604.668	0.08
605.114	0.08
605.559	0.08
606.005	0.08
606.45	0.08
606.895	0.08
607.341	0.08
607.786	0.08
608.231	0.08
608.676	0.08
609.121	0.08
609.566	0.08
610.012	0.08
610.457	0.08
610.902	0.08
611.347	0.08
611.792	0.08
612.237	0.08
612.682	0.08
613.127	0.08
613.571	0.08
614.016	0.08
614.461	0.08
614.906	0.08
615.351	0.08
615.795	0.08
616.24	0.08
616.685	0.08
617.129	0.08
617.574	0.07
618.019	0.07
618.463	0.07
618.908	0.07
619.352	0.07
619.797	0.07
620.241	0.07
620.686	0.07
621.13	0.08
621.574	0.08
622.019	0.08
622.463	0.08
622.907	0.08
623.352	0.08
623.796	0.08
624.24	0.08
624.684	0.08
625.128	0.08
625.572	0.08
626.016	0.08
626.461	0.08
626.905	0.08
627.349	0.08
627.793	0.08
628.236	0.08
628.68	0.08
629.124	0.08
629.568	0.08
630.012	0.08
630.456	0.08
630.9	0.08
631.343	0.08
631.787	0.08
632.231	0.08
632.674	0.08
633.118	0.08
633.562	0.08
634.005	0.08
634.449	0.08
634.892	0.09
635.336	0.09
635.779	0.09
636.223	0.09
636.666	0.09
637.109	0.09
637.553	0.1
637.996	0.1
638.439	0.1
638.883	0.1
639.326	0.1
639.769	0.1
640.212	0.1
640.655	0.11
641.099	0.11
641.542	0.11
641.985	0.11
642.428	0.11
642.871	0.12
643.314	0.12
643.757	0.12
644.2	0.12
644.643	0.13
645.085	0.13
645.528	0.13
645.971	0.13
646.414	0.14
646.857	0.14
647.299	0.15
647.742	0.15
648.185	0.15
648.627	0.15
649.07	0.16
649.513	0.16
649.955	0.16
650.398	0.16
650.84	0.17
651.283	0.17
651.725	0.17
652.168	0.17
652.61	0.18
653.052	0.18
653.495	0.18
653.937	0.15
654.379	0.12
654.821	0.13
655.264	0.13
655.706	0.14
656.148	0.14
656.59	0.14
657.032	0.14
657.474	0.14
657.916	0.14
658.358	0.15
658.8	0.18
659.242	0.22
659.684	0.22
660.126	0.22
660.568	0.22
661.01	0.23
661.452	0.23
661.894	0.23
662.335	0.23
662.777	0.24
663.219	0.24
663.661	0.24
664.102	0.25
664.544	0.25
664.985	0.25
665.427	0.26
665.869	0.26
666.31	0.26
666.752	0.26
667.193	0.27
667.634	0.27
668.076	0.27
668.517	0.28
668.959	0.28
669.4	0.28
669.841	0.29
670.282	0.29
670.724	0.29
671.165	0.3
671.606	0.3
672.047	0.3
672.488	0.3
672.929	0.3
673.37	0.3
673.811	0.3
674.252	0.3
674.693	0.3
675.134	0.3
675.575	0.31
676.016	0.31
676.457	0.31
676.898	0.31
677.339	0.32
677.78	0.32
678.22	0.32
678.661	0.32
679.102	0.33
679.542	0.33
679.983	0.33
680.424	0.33
680.864	0.33
681.305	0.33
681.745	0.33
682.186	0.33
682.626	0.34
683.067	0.34
683.507	0.34
683.948	0.34
684.388	0.34
684.828	0.34
685.269	0.35
685.709	0.35
686.149	0.35
686.589	0.35
687.029	0.35
687.47	0.35
687.91	0.35
688.35	0.35
688.79	0.35
689.23	0.35
689.67	0.35
690.11	0.35
690.55	0.35
690.99	0.35
691.43	0.35
691.87	0.35
692.31	0.35
692.749	0.35
693.189	0.35
693.629	0.35
694.069	0.35
694.508	0.35
694.948	0.35
695.388	0.35
695.827	0.35
696.267	0.34
696.706	0.34
697.146	0.34
697.586	0.34
698.025	0.34
698.464	0.34
698.904	0.34
699.343	0.34
699.783	0.33
700.222	0.33
700.661	0.33
701.101	0.33
701.54	0.33
701.979	0.33
702.418	0.32
702.857	0.32
703.297	0.32
703.736	0.32
704.175	0.32
704.614	0.32
705.053	0.32
705.492	0.32
705.931	0.31
706.37	0.31
706.809	0.31
707.248	0.31
707.687	0.31
708.125	0.31
708.564	0.3
709.003	0.3
709.442	0.3
709.88	0.29
710.319	0.29
710.758	0.29
711.196	0.28
711.635	0.28
712.074	0.28
712.512	0.28
712.951	0.28
713.389	0.27
713.828	0.27
714.266	0.27
714.705	0.27
715.143	0.26
715.581	0.26
716.02	0.26
716.458	0.25
716.896	0.25
717.334	0.25
717.773	0.24
718.211	0.24
718.649	0.24
719.087	0.23
719.525	0.23
719.963	0.23
720.401	0.23
720.839	0.22
721.277	0.22
721.715	0.22
722.153	0.22
722.591	0.21
723.029	0.21
723.467	0.21
723.905	0.21
724.342	0.21
724.78	0.2
725.218	0.2
725.656	0.2
726.093	0.2
726.531	0.19
726.969	0.19
727.406	0.19
727.844	0.19
728.281	0.19
728.719	0.18
729.156	0.18
729.594	0.18
730.031	0.18
730.469	0.18
730.906	0.18
731.343	0.17
731.781	0.17
732.218	0.17
732.655	0.17
733.092	0.16
733.53	0.16
733.967	0.16
734.404	0.16
734.841	0.15
735.278	0.15
735.715	0.15
736.152	0.14
736.589	0.14
737.026	0.14
737.463	0.14
737.9	0.13
738.337	0.13
738.774	0.13
739.211	0.12
739.647	0.12
740.084	0.12
740.521	0.12
740.958	0.11
741.394	0.11
741.831	0.1
742.268	0.1
742.704	0.09
743.141	0.09
743.577	0.09
744.014	0.08
744.45	0.08
744.887	0.08
745.323	0.08
745.76	0.08
746.196	0.08
746.632	0.08
747.069	0.07
747.505	0.07
747.941	0.07
748.378	0.07
748.814	0.07
749.25	0.07
749.686	0.07
750.122	0.07
750.558	0.07
750.994	0.07
751.43	0.07
751.866	0.07
752.302	0.07
752.738	0.07
753.174	0.06
753.61	0.06
754.046	0.06
754.482	0.06
754.918	0.06
755.354	0.06
755.789	0.06
756.225	0.06
756.661	0.06
757.096	0.06
757.532	0.06
757.968	0.06
758.403	0.06
758.839	0.06
759.274	0.06
759.71	0.05
760.145	0.05
760.581	0.05
761.016	0.04
761.452	0.04
761.887	0.04
762.322	0.04
762.758	0.04
763.193	0.03
763.628	0.03
764.063	0.03
764.499	0.03
764.934	0.02
765.369	0.02
765.804	0.02
766.239	0.02
766.674	0.02
767.109	0.01
767.544	0.01
767.979	0.01
768.414	0.01
768.849	0
769.284	0
769.719	0
770.154	-0
770.588	-0
771.023	-0.01
771.458	-0.01
771.893	-0.01
772.327	-0.02
772.762	-0.02
773.197	-0.02
773.631	-0.03
774.066	-0.03
774.5	-0.03
774.935	-0.04
775.369	-0.04
775.804	-0.05
776.238	-0.05
776.673	-0.06
777.107	-0.06
777.541	-0.06
777.976	-0.07
778.41	-0.07
778.844	-0.07
779.279	-0.07
779.713	-0.07
780.147	-0.07
780.581	-0.07
781.015	-0.07
781.449	-0.07
781.883	-0.07
782.317	-0.07
782.751	-0.07
783.185	-0.06
783.619	-0.06
784.053	-0.07
784.487	-0.07
784.921	-0.07
785.355	-0.07
785.789	-0.07
786.223	-0.07
786.656	-0.07
787.09	-0.06
787.524	-0.06
787.957	-0.06
788.391	-0.06
788.825	-0.06
789.258	-0.06
789.692	-0.06
790.125	-0.06
790.559	-0.06
790.992	-0.06
791.426	-0.06
791.859	-0.06
792.293	-0.05
792.726	-0.05
793.159	-0.04
793.593	-0.04
794.026	-0.04
794.459	-0.05
794.892	-0.05
795.326	-0.05
795.759	-0.05
796.192	-0.05
796.625	-0.06
797.058	-0.07
797.491	-0.08
797.924	-0.08
798.357	-0.08
798.79	-0.08
799.223	-0.08
799.656	-0.08
800.089	-0.08
800.522	-0.08
800.955	-0.08
801.387	-0.08
801.82	-0.08
802.253	-0.09
802.686	-0.09
803.118	-0.09
803.551	-0.09
803.984	-0.08
804.416	-0.08
804.849	-0.07
805.281	-0.07
805.714	-0.07
806.146	-0.07
806.579	-0.07
807.011	-0.07
807.444	-0.07
807.876	-0.07
808.308	-0.07
808.741	-0.07
809.173	-0.08
809.605	-0.08
810.037	-0.08
810.47	-0.09
810.902	-0.09
811.334	-0.09
811.766	-0.09
812.198	-0.08
812.63	-0.08
813.062	-0.08
813.494	-0.08
813.926	-0.08
814.358	-0.08
814.79	-0.08
815.222	-0.07
815.654	-0.07
816.086	-0.07
816.518	-0.08
816.949	-0.08
817.381	-0.08
817.813	-0.08
818.245	-0.08
818.676	-0.07
819.108	-0.07
819.54	-0.07
819.971	-0.07
820.403	-0.08
820.834	-0.08
821.266	-0.08
821.697	-0.08
822.129	-0.08
822.56	-0.08
822.991	-0.08
823.423	-0.08
823.854	-0.08
824.286	-0.08
824.717	-0.08
825.148	-0.07
825.579	-0.07
826.01	-0.06
826.442	-0.06
826.873	-0.05
827.304	-0.05
827.735	-0.04
828.166	-0.03
828.597	-0.03
829.028	-0.03
829.459	-0.02
829.89	-0.02
830.321	-0.02
830.752	-0.01
831.183	-0.01
831.613	-0.01
832.044	-0.01
832.475	-0.01
832.906	-0
833.336	-0
833.767	-0
834.198	0
834.628	0
835.059	0
835.49	0
835.92	0
836.351	0.01
836.781	0.01
837.212	0.01
837.642	0.01
838.072	0.01
838.503	0.01
838.933	0.01
839.364	0.01
839.794	0.01
840.224	0.01
840.654	0.01
841.085	0.02
841.515	0.02
841.945	0.02
842.375	0.02
842.805	0.02
843.235	0.02
843.665	0.02
844.095	0.02
844.525	0.02
844.955	0.02
845.385	0.02
845.815	0.02
846.245	0.02
846.675	0.02
847.105	0.03
847.534	0.03
847.964	0.03
848.394	0.03
848.824	0.03
849.253	0.03
849.683	0.03
850.112	0.03
850.542	0.03
850.972	0.03
851.401	0.03
851.831	0.03
852.26	0.03
852.69	0.03
853.119	0.03
853.548	0.03
853.978	0.03
854.407	0.03
854.836	0.03
855.266	0.04
855.695	0.04
856.124	0.04
856.553	0.04
856.983	0.04
857.412	0.04
857.841	0.04
858.27	0.04
858.699	0.04
859.128	0.04
859.557	0.04
859.986	0.04
860.415	0.04
860.844	0.04
861.273	0.04
861.702	0.04
862.13	0.04
862.559	0.04
862.988	0.04
863.417	0.04
863.845	0.05
864.274	0.05
864.703	0.05
865.131	0.05
865.56	0.05
865.989	0.05
866.417	0.05
866.846	0.05
867.274	0.05
867.703	0.05
868.131	0.05
868.559	0.05
868.988	0.05
869.416	0.05
869.844	0.05
870.273	0.05
870.701	0.05
871.129	0.05
871.557	0.05
871.986	0.05
872.414	0.06
872.842	0.06
873.27	0.06
873.698	0.06
874.126	0.06
874.554	0.06
874.982	0.06
875.41	0.06
875.838	0.06
876.266	0.06
876.694	0.06
877.122	0.06
877.549	0.06
877.977	0.06
878.405	0.06
878.833	0.06
879.26	0.06
879.688	0.06
880.116	0.06
880.543	0.06
880.971	0.06
881.399	0.05
881.826	0.05
882.254	0.05
882.681	0.05
883.109	0.05
883.536	0.05
883.963	0.05
884.391	0.05
884.818	0.05
885.245	0.05
885.673	0.05
886.1	0.05
886.527	0.05
886.954	0.05
887.381	0.06
887.809	0.06
888.236	0.06
888.663	0.06
889.09	0.06
889.517	0.06
889.944	0.06
890.371	0.06
890.798	0.06
891.225	0.06
891.652	0.06
892.078	0.06
892.505	0.06
892.932	0.06
893.359	0.06
893.786	0.06
894.212	0.05
894.639	0.05
895.066	0.05
895.492	0.05
895.919	0.05
896.346	0.05
896.772	0.06
897.199	0.06
897.625	0.06
898.052	0.06
898.478	0.06
898.904	0.06
899.331	0.06
899.757	0.06
900.183	0.06
900.61	0.06
901.036	0.06
901.462	0.06
901.888	0.06
902.315	0.06
902.741	0.06
903.167	0.06
903.593	0.06
904.019	0.06
904.445	0.06
904.871	0.06
905.297	0.06
905.723	0.06
906.149	0.06
906.575	0.06
907.001	0.06
907.427	0.06
907.852	0.06
908.278	0.06
908.704	0.06
909.13	0.06
909.555	0.06
909.981	0.06
910.407	0.06
910.832	0.06
911.258	0.06
911.684	0.06
912.109	0.06
912.535	0.06
912.96	0.06
913.386	0.06
913.811	0.06
914.236	0.06
914.662	0.06
915.087	0.06
915.512	0.06
915.938	0.06
916.363	0.06
916.788	0.06
917.213	0.06
917.639	0.06
918.064	0.06
918.489	0.06
918.914	0.06
919.339	0.06
919.764	0.06
920.189	0.06
920.614	0.06
921.039	0.06
921.464	0.06
921.889	0.06
922.314	0.06
922.738	0.06
923.163	0.06
923.588	0.06
924.013	0.06
924.437	0.06
924.862	0.06
925.287	0.06
925.711	0.06
926.136	0.06
926.561	0.06
926.985	0.06
927.41	0.06
927.834	0.07
928.259	0.07
928.683	0.07
929.108	0.07
929.532	0.07
929.956	0.07
930.381	0.07
930.805	0.07
931.229	0.07
931.653	0.07
932.078	0.07
932.502	0.07
932.926	0.07
933.35	0.07
933.774	0.07
934.198	0.07
934.622	0.07
935.046	0.07
935.47	0.07
935.894	0.07
936.318	0.07
936.742	0.07
937.166	0.07
937.59	0.07
938.014	0.07
938.437	0.07
938.861	0.07
939.285	0.07
939.709	0.07
940.132	0.07
940.556	0.07
940.98	0.07
941.403	0.07
941.827	0.07
942.25	0.07
942.674	0.08
943.097	0.08
943.521	0.08
943.944	0.08
944.368	0.08
944.791	0.08
945.214	0.08
945.638	0.08
946.061	0.08
946.484	0.08
946.907	0.08
947.331	0.08
947.754	0.08
948.177	0.08
948.6	0.08
949.023	0.07
949.446	0.07
949.869	0.07
950.292	0.07
950.715	0.07
951.138	0.07
951.561	0.07
951.984	0.07
952.407	0.07
952.83	0.07
953.252	0.07
953.675	0.07
954.098	0.07
954.521	0.07
954.943	0.07
955.366	0.07
955.789	0.07
956.211	0.07
956.634	0.07
957.056	0.07
957.479	0.07
957.902	0.07
958.324	0.07
958.746	0.07
959.169	0.07
959.591	0.07
960.014	0.07
960.436	0.07
960.858	0.07
961.281	0.07
961.703	0.07
962.125	0.07
962.547	0.07
962.969	0.07
963.391	0.07
963.814	0.07
964.236	0.07
964.658	0.07
965.08	0.07
965.502	0.07
965.924	0.07
966.346	0.07
966.768	0.07
967.189	0.07
967.611	0.07
968.033	0.07
968.455	0.07
968.877	0.07
969.298	0.07
969.72	0.07
970.142	0.07
970.563	0.07
970.985	0.07
971.407	0.07
971.828	0.07
972.25	0.07
972.671	0.07
973.093	0.07
973.514	0.07
973.936	0.07
974.357	0.07
974.778	0.07
975.2	0.07
975.621	0.07
976.042	0.07
976.464	0.07
976.885	0.07
977.306	0.07
977.727	0.07
978.148	0.07
978.57	0.07
978.991	0.07
979.412	0.07
979.833	0.07
980.254	0.07
980.675	0.07
981.096	0.07
981.517	0.07
981.937	0.07
982.358	0.07
982.779	0.07
983.2	0.07
983.621	0.07
984.042	0.07
984.462	0.07
984.883	0.07
985.304	0.07
985.724	0.07
986.145	0.07
986.565	0.07
986.986	0.07
987.407	0.07
987.827	0.07
988.248	0.08
988.668	0.08
989.088	0.08
989.509	0.08
989.929	0.08
990.35	0.08
990.77	0.08
991.19	0.08
991.61	0.08
992.031	0.08
992.451	0.08
992.871	0.08
993.291	0.08
993.711	0.08
994.131	0.08
994.551	0.08
994.971	0.08
995.391	0.08
995.811	0.08
996.231	0.08
996.651	0.08
997.071	0.08
997.491	0.08
997.911	0.08
998.331	0.08
998.75	0.08
999.17	0.08
999.59	0.08
1000.009	0.08
1000.429	0.08
1000.849	0.08
1001.268	0.08
1001.688	0.08
1002.107	0.08
1002.527	0.08
1002.946	0.08
1003.366	0.08
1003.785	0.08
1004.205	0.08
1004.624	0.07
1005.044	0.07
1005.463	0.07
1005.882	0.07
1006.301	0.07
1006.721	0.07
1007.14	0.07
1007.559	0.07
1007.978	0.07
1008.397	0.07
1008.816	0.07
1009.235	0.07
1009.655	0.07
1010.074	0.07
1010.492	0.07
1010.911	0.07
1011.33	0.07
1011.749	0.07
1012.168	0.08
1012.587	0.08
1013.006	0.08
1013.425	0.08
1013.843	0.08
1014.262	0.08
1014.681	0.08
1015.099	0.08
1015.518	0.08
1015.937	0.08
1016.355	0.08
1016.774	0.08
1017.192	0.08
1017.611	0.08
1018.029	0.08
1018.448	0.08
1018.866	0.08
1019.285	0.08
1019.703	0.08
1020.121	0.08
1020.54	0.08
1020.958	0.08
1021.376	0.08
1021.794	0.08
1022.213	0.08
1022.631	0.08
1023.049	0.08
1023.467	0.08
1023.885	0.08
1024.303	0.08
1024.721	0.08
1025.139	0.08
1025.557	0.08
1025.975	0.08
1026.393	0.08
1026.811	0.08
1027.229	0.08
1027.647	0.08
1028.065	0.08
1028.482	0.08
1028.9	0.09
1029.318	0.09
1029.735	0.09
1030.153	0.09
1030.571	0.09
1030.988	0.09
1031.406	0.09
1031.823	0.09
1032.241	0.09
1032.659	0.09
1033.076	0.09
1033.493	0.09
1033.911	0.09
1034.328	0.09
1034.746	0.09
1035.163	0.09
1035.58	0.09
1035.997	0.09
1036.415	0.09
1036.832	0.1
1037.249	0.1
1037.666	0.1
1038.083	0.1
1038.501	0.1
1038.918	0.1
1039.335	0.1
1039.752	0.1
1040.169	0.1
1040.586	0.1
1041.003	0.1
1041.419	0.1
1041.836	0.1
1042.253	0.11
1042.67	0.11
1043.087	0.11
1043.504	0.11
1043.92	0.11
1044.337	0.11
1044.754	0.11
1045.17	0.11
1045.587	0.11
1046.004	0.11
1046.42	0.11
1046.837	0.12
1047.253	0.12
1047.67	0.12
1048.086	0.12
1048.503	0.12
1048.919	0.12
1049.335	0.12
1049.752	0.12
1050.168	0.12
1050.584	0.12
1051.001	0.12
1051.417	0.12
1051.833	0.12
1052.249	0.12
1052.665	0.12
1053.081	0.13
1053.497	0.13
1053.914	0.13
1054.33	0.13
1054.746	0.13
1055.162	0.13
1055.578	0.13
1055.993	0.13
1056.409	0.13
1056.825	0.13
1057.241	0.14
1057.657	0.14
1058.073	0.14
1058.488	0.14
1058.904	0.14
1059.32	0.14
1059.736	0.15
1060.151	0.15
1060.567	0.15
1060.982	0.15
1061.398	0.15
1061.813	0.16
1062.229	0.16
1062.644	0.16
1063.06	0.16
1063.475	0.16
1063.891	0.16
1064.306	0.16
1064.721	0.17
1065.137	0.17
1065.552	0.17
1065.967	0.17
1066.382	0.17
1066.798	0.18
1067.213	0.18
1067.628	0.18
1068.043	0.18
1068.458	0.18
1068.873	0.18
1069.288	0.19
1069.703	0.19
1070.118	0.19
1070.533	0.19
1070.948	0.19
1071.363	0.2
1071.778	0.2
1072.193	0.2
1072.607	0.21
1073.022	0.21
1073.437	0.21
1073.852	0.22
1074.266	0.22
1074.681	0.22
1075.096	0.23
1075.51	0.23
1075.925	0.24
1076.339	0.24
1076.754	0.24
1077.168	0.25
1077.583	0.25
1077.997	0.26
1078.412	0.26
1078.826	0.27
1079.24	0.27
1079.655	0.28
1080.069	0.28
1080.483	0.28
1080.897	0.29
1081.312	0.29
1081.726	0.29
1082.14	0.3
1082.554	0.3
1082.968	0.31
1083.382	0.32
1083.796	0.32
1084.21	0.33
1084.624	0.34
1085.038	0.35
1085.452	0.36
1085.866	0.36
1086.28	0.37
1086.694	0.38
1087.108	0.39
1087.521	0.4
1087.935	0.41
1088.349	0.43
1088.763	0.44
1089.176	0.46
1089.59	0.48
1090.004	0.5
1090.417	0.52
1090.831	0.55
1091.244	0.58
1091.658	0.62
1092.071	0.65
1092.485	0.7
1092.898	0.74
1093.312	0.8
1093.725	0.86
1094.138	0.94
1094.552	1.04
1094.965	1.19
1095.378	1.44
1095.791	2.13
1096.205	-0
1096.618	-0
1097.031	-0
1097.444	-0
1097.857	-0
1098.27	-0
1098.683	-0
1099.096	-0
1099.509	-0
1099.922	-0
1100.335	-0
1100.748	-0
1101.161	-0
1101.574	-0
1101.986	-0
1102.399	-0
1102.812	-0
1103.225	-0
1103.637	-0
1104.05	-0
1104.463	-0
1104.875	-0
1105.288	-0
1105.7	-0
1106.113	-0
1106.525	-0
1106.938	-0
1107.35	-0
1107.763	-0
1108.175	-0
1108.588	-0
1109	-0
1109.412	-0
1109.824	-0
1110.237	-0
1110.649	-0
1111.061	-0
