Data from redip-kinet-2-5a_Absorbance__32__00032.txt Node

Date: Fri Apr 12 13:46:34 CEST 2024
User: Laser008
Spectrometer: MAYP115816
Trigger mode: 0
Integration Time (sec): 2.000000E-1
Scans to average: 10
Electric dark correction enabled: true
Nonlinearity correction enabled: true
Boxcar width: 5
XAxis mode: Wavelengths
Number of Pixels in Spectrum: 2068
>>>>>Begin Spectral Data<<<<<
198.914	-2.32
199.384	-2.16
199.855	-2.02
200.325	-1.91
200.796	-1.83
201.266	-1.78
201.737	-1.7
202.207	-1.64
202.677	-1.58
203.147	-1.54
203.618	-1.51
204.088	-1.48
204.558	-1.46
205.028	-1.45
205.498	-1.44
205.968	-1.44
206.439	-1.44
206.909	-1.43
207.379	-1.43
207.849	-1.43
208.319	-1.42
208.789	-1.42
209.258	-1.42
209.728	-1.42
210.198	-1.42
210.668	-1.41
211.138	-1.41
211.608	-1.41
212.077	-1.41
212.547	-1.41
213.017	-1.41
213.486	-1.41
213.956	-1.41
214.426	-1.4
214.895	-1.4
215.365	-1.4
215.834	-1.4
216.304	-1.4
216.773	-1.4
217.243	-1.39
217.712	-1.39
218.181	-1.39
218.651	-1.39
219.12	-1.38
219.589	-1.38
220.058	-1.38
220.528	-1.37
220.997	-1.37
221.466	-1.37
221.935	-1.36
222.404	-1.36
222.873	-1.35
223.342	-1.35
223.812	-1.34
224.281	-1.33
224.749	-1.32
225.218	-1.32
225.687	-1.31
226.156	-1.29
226.625	-1.28
227.094	-1.26
227.563	-1.25
228.031	-1.23
228.5	-1.21
228.969	-1.18
229.438	-1.15
229.906	-1.12
230.375	-1.09
230.844	-1.05
231.312	-1.01
231.781	-0.97
232.249	-0.92
232.718	-0.87
233.186	-0.82
233.655	-0.77
234.123	-0.72
234.591	-0.67
235.06	-0.62
235.528	-0.57
235.996	-0.52
236.465	-0.48
236.933	-0.43
237.401	-0.39
237.869	-0.34
238.337	-0.3
238.805	-0.27
239.274	-0.23
239.742	-0.19
240.21	-0.16
240.678	-0.13
241.146	-0.1
241.614	-0.07
242.081	-0.05
242.549	-0.02
243.017	-0
243.485	0.02
243.953	0.04
244.421	0.06
244.888	0.07
245.356	0.09
245.824	0.1
246.291	0.12
246.759	0.13
247.227	0.14
247.694	0.16
248.162	0.17
248.629	0.18
249.097	0.19
249.564	0.2
250.032	0.2
250.499	0.21
250.967	0.22
251.434	0.23
251.901	0.23
252.369	0.24
252.836	0.25
253.303	0.25
253.77	0.26
254.237	0.26
254.705	0.27
255.172	0.27
255.639	0.28
256.106	0.28
256.573	0.29
257.04	0.29
257.507	0.29
257.974	0.3
258.441	0.3
258.908	0.3
259.375	0.3
259.841	0.31
260.308	0.31
260.775	0.31
261.242	0.31
261.709	0.31
262.175	0.31
262.642	0.31
263.109	0.31
263.575	0.32
264.042	0.32
264.508	0.32
264.975	0.32
265.441	0.32
265.908	0.32
266.374	0.32
266.841	0.32
267.307	0.32
267.773	0.32
268.24	0.32
268.706	0.32
269.172	0.32
269.639	0.32
270.105	0.32
270.571	0.31
271.037	0.31
271.503	0.31
271.969	0.31
272.435	0.31
272.902	0.31
273.368	0.31
273.834	0.31
274.3	0.3
274.765	0.3
275.231	0.3
275.697	0.3
276.163	0.3
276.629	0.3
277.095	0.29
277.56	0.29
278.026	0.29
278.492	0.29
278.958	0.29
279.423	0.29
279.889	0.28
280.354	0.28
280.82	0.28
281.286	0.28
281.751	0.28
282.217	0.28
282.682	0.28
283.147	0.28
283.613	0.28
284.078	0.28
284.544	0.28
285.009	0.28
285.474	0.27
285.939	0.27
286.405	0.27
286.87	0.27
287.335	0.27
287.8	0.27
288.265	0.27
288.73	0.27
289.195	0.27
289.66	0.26
290.125	0.26
290.59	0.26
291.055	0.26
291.52	0.26
291.985	0.26
292.45	0.26
292.915	0.26
293.38	0.26
293.844	0.26
294.309	0.26
294.774	0.26
295.239	0.25
295.703	0.25
296.168	0.25
296.632	0.25
297.097	0.25
297.562	0.25
298.026	0.25
298.491	0.25
298.955	0.25
299.419	0.25
299.884	0.25
300.348	0.25
300.813	0.25
301.277	0.25
301.741	0.25
302.205	0.25
302.67	0.25
303.134	0.24
303.598	0.24
304.062	0.24
304.526	0.24
304.99	0.24
305.454	0.24
305.919	0.24
306.383	0.24
306.847	0.24
307.31	0.24
307.774	0.24
308.238	0.24
308.702	0.24
309.166	0.24
309.63	0.24
310.094	0.24
310.557	0.24
311.021	0.23
311.485	0.23
311.948	0.23
312.412	0.23
312.876	0.23
313.339	0.23
313.803	0.23
314.266	0.23
314.73	0.23
315.193	0.23
315.657	0.23
316.12	0.23
316.584	0.23
317.047	0.23
317.51	0.22
317.973	0.22
318.437	0.22
318.9	0.22
319.363	0.22
319.826	0.22
320.29	0.22
320.753	0.22
321.216	0.22
321.679	0.22
322.142	0.22
322.605	0.22
323.068	0.22
323.531	0.21
323.994	0.21
324.457	0.21
324.92	0.21
325.382	0.21
325.845	0.21
326.308	0.21
326.771	0.21
327.233	0.21
327.696	0.21
328.159	0.21
328.622	0.21
329.084	0.21
329.547	0.2
330.009	0.2
330.472	0.2
330.934	0.2
331.397	0.2
331.859	0.2
332.322	0.2
332.784	0.2
333.246	0.2
333.709	0.2
334.171	0.2
334.633	0.2
335.096	0.2
335.558	0.2
336.02	0.2
336.482	0.19
336.944	0.19
337.406	0.19
337.868	0.19
338.331	0.19
338.793	0.19
339.255	0.19
339.717	0.19
340.178	0.19
340.64	0.19
341.102	0.19
341.564	0.19
342.026	0.19
342.488	0.19
342.949	0.19
343.411	0.19
343.873	0.18
344.335	0.18
344.796	0.18
345.258	0.18
345.719	0.18
346.181	0.18
346.643	0.18
347.104	0.18
347.566	0.18
348.027	0.18
348.488	0.18
348.95	0.18
349.411	0.17
349.873	0.17
350.334	0.17
350.795	0.17
351.256	0.17
351.718	0.17
352.179	0.17
352.64	0.17
353.101	0.17
353.562	0.17
354.023	0.16
354.484	0.16
354.945	0.16
355.406	0.16
355.867	0.16
356.328	0.16
356.789	0.16
357.25	0.16
357.711	0.16
358.172	0.16
358.633	0.16
359.093	0.16
359.554	0.16
360.015	0.16
360.476	0.16
360.936	0.16
361.397	0.17
361.858	0.17
362.318	0.17
362.779	0.17
363.239	0.17
363.7	0.17
364.16	0.16
364.621	0.16
365.081	0.16
365.541	0.16
366.002	0.16
366.462	0.16
366.922	0.16
367.383	0.16
367.843	0.16
368.303	0.16
368.763	0.16
369.223	0.16
369.684	0.16
370.144	0.16
370.604	0.16
371.064	0.16
371.524	0.16
371.984	0.16
372.444	0.16
372.904	0.15
373.363	0.15
373.823	0.15
374.283	0.15
374.743	0.15
375.203	0.15
375.663	0.15
376.122	0.16
376.582	0.16
377.042	0.16
377.501	0.16
377.961	0.16
378.42	0.16
378.88	0.16
379.34	0.16
379.799	0.16
380.259	0.16
380.718	0.16
381.177	0.16
381.637	0.16
382.096	0.16
382.555	0.16
383.015	0.16
383.474	0.15
383.933	0.15
384.393	0.15
384.852	0.15
385.311	0.15
385.77	0.15
386.229	0.15
386.688	0.15
387.147	0.15
387.606	0.15
388.065	0.15
388.524	0.15
388.983	0.15
389.442	0.15
389.901	0.15
390.36	0.15
390.819	0.15
391.277	0.15
391.736	0.15
392.195	0.15
392.654	0.15
393.112	0.15
393.571	0.15
394.03	0.15
394.488	0.15
394.947	0.15
395.405	0.15
395.864	0.15
396.322	0.15
396.781	0.15
397.239	0.15
397.698	0.15
398.156	0.15
398.614	0.15
399.073	0.15
399.531	0.15
399.989	0.15
400.447	0.15
400.905	0.15
401.364	0.15
401.822	0.15
402.28	0.15
402.738	0.15
403.196	0.15
403.654	0.15
404.112	0.15
404.57	0.15
405.028	0.15
405.486	0.15
405.944	0.14
406.402	0.14
406.859	0.14
407.317	0.14
407.775	0.14
408.233	0.14
408.691	0.14
409.148	0.14
409.606	0.14
410.064	0.14
410.521	0.14
410.979	0.14
411.436	0.14
411.894	0.14
412.351	0.14
412.809	0.14
413.266	0.14
413.724	0.14
414.181	0.14
414.638	0.14
415.096	0.14
415.553	0.14
416.01	0.14
416.467	0.14
416.925	0.14
417.382	0.14
417.839	0.14
418.296	0.14
418.753	0.14
419.21	0.14
419.667	0.14
420.124	0.14
420.581	0.14
421.038	0.14
421.495	0.14
421.952	0.14
422.409	0.14
422.866	0.14
423.322	0.14
423.779	0.14
424.236	0.14
424.693	0.14
425.149	0.14
425.606	0.14
426.063	0.14
426.519	0.14
426.976	0.14
427.433	0.14
427.889	0.14
428.346	0.14
428.802	0.14
429.258	0.14
429.715	0.14
430.171	0.14
430.628	0.14
431.084	0.14
431.54	0.14
431.997	0.14
432.453	0.14
432.909	0.14
433.365	0.13
433.821	0.13
434.277	0.13
434.734	0.13
435.19	0.13
435.646	0.13
436.102	0.13
436.558	0.13
437.014	0.13
437.47	0.13
437.925	0.13
438.381	0.13
438.837	0.13
439.293	0.13
439.749	0.13
440.205	0.13
440.66	0.13
441.116	0.13
441.572	0.13
442.027	0.13
442.483	0.13
442.939	0.13
443.394	0.13
443.85	0.13
444.305	0.13
444.761	0.13
445.216	0.13
445.672	0.13
446.127	0.13
446.582	0.13
447.038	0.13
447.493	0.13
447.948	0.13
448.403	0.13
448.859	0.13
449.314	0.13
449.769	0.13
450.224	0.13
450.679	0.13
451.134	0.13
451.589	0.13
452.044	0.13
452.499	0.13
452.954	0.13
453.409	0.13
453.864	0.12
454.319	0.12
454.774	0.12
455.229	0.12
455.684	0.12
456.138	0.12
456.593	0.12
457.048	0.12
457.503	0.12
457.957	0.12
458.412	0.12
458.866	0.12
459.321	0.12
459.776	0.12
460.23	0.12
460.685	0.12
461.139	0.12
461.593	0.12
462.048	0.12
462.502	0.12
462.957	0.12
463.411	0.12
463.865	0.12
464.319	0.12
464.774	0.12
465.228	0.12
465.682	0.12
466.136	0.12
466.59	0.12
467.044	0.12
467.499	0.12
467.953	0.12
468.407	0.11
468.861	0.11
469.315	0.11
469.768	0.11
470.222	0.11
470.676	0.11
471.13	0.1
471.584	0.1
472.038	0.1
472.491	0.1
472.945	0.11
473.399	0.11
473.852	0.11
474.306	0.11
474.76	0.11
475.213	0.11
475.667	0.11
476.12	0.11
476.574	0.11
477.027	0.11
477.481	0.11
477.934	0.11
478.388	0.11
478.841	0.11
479.294	0.11
479.748	0.11
480.201	0.12
480.654	0.12
481.107	0.12
481.561	0.12
482.014	0.12
482.467	0.12
482.92	0.12
483.373	0.13
483.826	0.13
484.279	0.13
484.732	0.14
485.185	0.14
485.638	0.14
486.091	0.14
486.544	0.14
486.997	0.14
487.449	0.14
487.902	0.14
488.355	0.14
488.808	0.13
489.26	0.13
489.713	0.13
490.166	0.13
490.618	0.12
491.071	0.12
491.523	0.12
491.976	0.12
492.429	0.12
492.881	0.12
493.333	0.13
493.786	0.13
494.238	0.13
494.691	0.13
495.143	0.13
495.595	0.13
496.048	0.13
496.5	0.13
496.952	0.13
497.404	0.14
497.856	0.14
498.309	0.14
498.761	0.14
499.213	0.14
499.665	0.14
500.117	0.14
500.569	0.14
501.021	0.14
501.473	0.14
501.925	0.14
502.377	0.14
502.828	0.14
503.28	0.15
503.732	0.15
504.184	0.15
504.636	0.15
505.087	0.15
505.539	0.15
505.991	0.15
506.442	0.15
506.894	0.15
507.345	0.15
507.797	0.15
508.249	0.15
508.7	0.15
509.151	0.15
509.603	0.15
510.054	0.15
510.506	0.15
510.957	0.15
511.408	0.14
511.86	0.14
512.311	0.14
512.762	0.14
513.213	0.14
513.665	0.14
514.116	0.14
514.567	0.14
515.018	0.14
515.469	0.14
515.92	0.13
516.371	0.13
516.822	0.13
517.273	0.13
517.724	0.13
518.175	0.13
518.626	0.13
519.076	0.13
519.527	0.13
519.978	0.13
520.429	0.13
520.88	0.13
521.33	0.12
521.781	0.12
522.232	0.12
522.682	0.11
523.133	0.11
523.583	0.11
524.034	0.11
524.484	0.1
524.935	0.11
525.385	0.11
525.836	0.11
526.286	0.11
526.736	0.12
527.187	0.12
527.637	0.12
528.087	0.13
528.538	0.13
528.988	0.13
529.438	0.14
529.888	0.14
530.338	0.14
530.788	0.14
531.238	0.14
531.688	0.14
532.139	0.14
532.589	0.14
533.038	0.15
533.488	0.15
533.938	0.15
534.388	0.15
534.838	0.15
535.288	0.15
535.738	0.15
536.187	0.15
536.637	0.15
537.087	0.15
537.537	0.15
537.986	0.15
538.436	0.15
538.885	0.15
539.335	0.15
539.785	0.15
540.234	0.15
540.684	0.15
541.133	0.15
541.582	0.15
542.032	0.14
542.481	0.14
542.931	0.14
543.38	0.14
543.829	0.14
544.278	0.14
544.728	0.14
545.177	0.14
545.626	0.14
546.075	0.14
546.524	0.14
546.973	0.14
547.422	0.14
547.871	0.14
548.32	0.13
548.769	0.13
549.218	0.13
549.667	0.13
550.116	0.13
550.565	0.12
551.014	0.12
551.463	0.12
551.911	0.12
552.36	0.12
552.809	0.12
553.258	0.12
553.706	0.12
554.155	0.12
554.603	0.11
555.052	0.11
555.501	0.11
555.949	0.11
556.398	0.1
556.846	0.1
557.294	0.1
557.743	0.1
558.191	0.09
558.64	0.09
559.088	0.09
559.536	0.09
559.985	0.09
560.433	0.09
560.881	0.09
561.329	0.09
561.777	0.1
562.225	0.1
562.674	0.1
563.122	0.09
563.57	0.09
564.018	0.09
564.466	0.09
564.914	0.08
565.362	0.08
565.809	0.08
566.257	0.08
566.705	0.08
567.153	0.08
567.601	0.09
568.048	0.09
568.496	0.09
568.944	0.1
569.392	0.1
569.839	0.1
570.287	0.11
570.734	0.11
571.182	0.11
571.63	0.11
572.077	0.11
572.525	0.11
572.972	0.11
573.419	0.11
573.867	0.11
574.314	0.11
574.761	0.11
575.209	0.11
575.656	0.12
576.103	0.12
576.551	0.12
576.998	0.12
577.445	0.11
577.892	0.11
578.339	0.11
578.786	0.11
579.233	0.11
579.68	0.12
580.127	0.12
580.574	0.11
581.021	0.11
581.468	0.11
581.915	0.11
582.362	0.11
582.809	0.11
583.255	0.11
583.702	0.11
584.149	0.11
584.596	0.1
585.042	0.1
585.489	0.1
585.936	0.1
586.382	0.1
586.829	0.1
587.275	0.1
587.722	0.09
588.168	0.09
588.615	0.09
589.061	0.09
589.508	0.08
589.954	0.08
590.4	0.08
590.847	0.08
591.293	0.08
591.739	0.08
592.185	0.08
592.632	0.08
593.078	0.08
593.524	0.08
593.97	0.08
594.416	0.08
594.862	0.08
595.308	0.08
595.754	0.08
596.2	0.07
596.646	0.07
597.092	0.08
597.538	0.08
597.984	0.08
598.43	0.08
598.876	0.08
599.321	0.08
599.767	0.08
600.213	0.08
600.659	0.08
601.104	0.08
601.55	0.08
601.995	0.08
602.441	0.08
602.887	0.07
603.332	0.07
603.778	0.07
604.223	0.07
604.668	0.08
605.114	0.08
605.559	0.08
606.005	0.08
606.45	0.08
606.895	0.08
607.341	0.08
607.786	0.08
608.231	0.08
608.676	0.08
609.121	0.08
609.566	0.08
610.012	0.07
610.457	0.07
610.902	0.07
611.347	0.07
611.792	0.07
612.237	0.08
612.682	0.08
613.127	0.08
613.571	0.08
614.016	0.08
614.461	0.08
614.906	0.07
615.351	0.07
615.795	0.07
616.24	0.07
616.685	0.07
617.129	0.07
617.574	0.07
618.019	0.06
618.463	0.06
618.908	0.06
619.352	0.06
619.797	0.06
620.241	0.06
620.686	0.06
621.13	0.07
621.574	0.07
622.019	0.07
622.463	0.07
622.907	0.07
623.352	0.07
623.796	0.07
624.24	0.07
624.684	0.07
625.128	0.07
625.572	0.07
626.016	0.07
626.461	0.07
626.905	0.07
627.349	0.07
627.793	0.07
628.236	0.07
628.68	0.07
629.124	0.07
629.568	0.07
630.012	0.07
630.456	0.07
630.9	0.07
631.343	0.07
631.787	0.07
632.231	0.07
632.674	0.07
633.118	0.06
633.562	0.07
634.005	0.07
634.449	0.07
634.892	0.07
635.336	0.07
635.779	0.07
636.223	0.07
636.666	0.08
637.109	0.08
637.553	0.08
637.996	0.08
638.439	0.08
638.883	0.08
639.326	0.08
639.769	0.08
640.212	0.08
640.655	0.08
641.099	0.09
641.542	0.09
641.985	0.09
642.428	0.09
642.871	0.09
643.314	0.09
643.757	0.1
644.2	0.1
644.643	0.1
645.085	0.1
645.528	0.11
645.971	0.11
646.414	0.11
646.857	0.12
647.299	0.12
647.742	0.12
648.185	0.13
648.627	0.13
649.07	0.13
649.513	0.13
649.955	0.13
650.398	0.14
650.84	0.14
651.283	0.14
651.725	0.14
652.168	0.14
652.61	0.14
653.052	0.15
653.495	0.15
653.937	0.12
654.379	0.1
654.821	0.11
655.264	0.11
655.706	0.12
656.148	0.12
656.59	0.12
657.032	0.12
657.474	0.12
657.916	0.12
658.358	0.13
658.8	0.15
659.242	0.18
659.684	0.18
660.126	0.18
660.568	0.18
661.01	0.18
661.452	0.18
661.894	0.19
662.335	0.19
662.777	0.19
663.219	0.2
663.661	0.2
664.102	0.2
664.544	0.2
664.985	0.21
665.427	0.21
665.869	0.21
666.31	0.21
666.752	0.21
667.193	0.22
667.634	0.22
668.076	0.22
668.517	0.22
668.959	0.23
669.4	0.23
669.841	0.23
670.282	0.24
670.724	0.24
671.165	0.24
671.606	0.24
672.047	0.24
672.488	0.24
672.929	0.25
673.37	0.25
673.811	0.25
674.252	0.25
674.693	0.25
675.134	0.25
675.575	0.25
676.016	0.25
676.457	0.25
676.898	0.25
677.339	0.26
677.78	0.26
678.22	0.26
678.661	0.26
679.102	0.26
679.542	0.27
679.983	0.27
680.424	0.27
680.864	0.27
681.305	0.27
681.745	0.27
682.186	0.27
682.626	0.27
683.067	0.27
683.507	0.28
683.948	0.28
684.388	0.28
684.828	0.28
685.269	0.28
685.709	0.28
686.149	0.28
686.589	0.28
687.029	0.28
687.47	0.28
687.91	0.28
688.35	0.28
688.79	0.28
689.23	0.28
689.67	0.28
690.11	0.28
690.55	0.29
690.99	0.29
691.43	0.29
691.87	0.29
692.31	0.29
692.749	0.29
693.189	0.29
693.629	0.29
694.069	0.28
694.508	0.28
694.948	0.28
695.388	0.29
695.827	0.29
696.267	0.28
696.706	0.28
697.146	0.28
697.586	0.28
698.025	0.28
698.464	0.28
698.904	0.28
699.343	0.28
699.783	0.28
700.222	0.27
700.661	0.27
701.101	0.27
701.54	0.27
701.979	0.27
702.418	0.27
702.857	0.27
703.297	0.27
703.736	0.27
704.175	0.26
704.614	0.26
705.053	0.26
705.492	0.26
705.931	0.26
706.37	0.26
706.809	0.26
707.248	0.26
707.687	0.26
708.125	0.26
708.564	0.25
709.003	0.25
709.442	0.25
709.88	0.25
710.319	0.24
710.758	0.24
711.196	0.24
711.635	0.24
712.074	0.24
712.512	0.23
712.951	0.23
713.389	0.23
713.828	0.23
714.266	0.23
714.705	0.22
715.143	0.22
715.581	0.22
716.02	0.22
716.458	0.21
716.896	0.21
717.334	0.21
717.773	0.21
718.211	0.2
718.649	0.2
719.087	0.2
719.525	0.2
719.963	0.2
720.401	0.19
720.839	0.19
721.277	0.19
721.715	0.19
722.153	0.18
722.591	0.18
723.029	0.18
723.467	0.18
723.905	0.18
724.342	0.18
724.78	0.17
725.218	0.17
725.656	0.17
726.093	0.17
726.531	0.17
726.969	0.17
727.406	0.17
727.844	0.16
728.281	0.16
728.719	0.16
729.156	0.16
729.594	0.16
730.031	0.16
730.469	0.16
730.906	0.15
731.343	0.15
731.781	0.15
732.218	0.15
732.655	0.15
733.092	0.14
733.53	0.14
733.967	0.14
734.404	0.14
734.841	0.13
735.278	0.13
735.715	0.13
736.152	0.12
736.589	0.12
737.026	0.12
737.463	0.12
737.9	0.12
738.337	0.11
738.774	0.11
739.211	0.11
739.647	0.11
740.084	0.1
740.521	0.1
740.958	0.1
741.394	0.09
741.831	0.09
742.268	0.08
742.704	0.08
743.141	0.08
743.577	0.07
744.014	0.07
744.45	0.07
744.887	0.07
745.323	0.06
745.76	0.06
746.196	0.06
746.632	0.06
747.069	0.06
747.505	0.06
747.941	0.06
748.378	0.06
748.814	0.06
749.25	0.06
749.686	0.06
750.122	0.06
750.558	0.06
750.994	0.06
751.43	0.06
751.866	0.06
752.302	0.06
752.738	0.06
753.174	0.06
753.61	0.06
754.046	0.06
754.482	0.06
754.918	0.06
755.354	0.06
755.789	0.06
756.225	0.06
756.661	0.06
757.096	0.06
757.532	0.06
757.968	0.06
758.403	0.05
758.839	0.05
759.274	0.05
759.71	0.05
760.145	0.05
760.581	0.04
761.016	0.04
761.452	0.04
761.887	0.04
762.322	0.03
762.758	0.03
763.193	0.03
763.628	0.03
764.063	0.02
764.499	0.02
764.934	0.02
765.369	0.02
765.804	0.01
766.239	0.01
766.674	0.01
767.109	0.01
767.544	0.01
767.979	0
768.414	0
768.849	-0
769.284	-0
769.719	-0
770.154	-0
770.588	-0.01
771.023	-0.01
771.458	-0.01
771.893	-0.02
772.327	-0.02
772.762	-0.02
773.197	-0.03
773.631	-0.03
774.066	-0.04
774.5	-0.04
774.935	-0.04
775.369	-0.05
775.804	-0.05
776.238	-0.06
776.673	-0.06
777.107	-0.07
777.541	-0.07
777.976	-0.07
778.41	-0.08
778.844	-0.08
779.279	-0.07
779.713	-0.07
780.147	-0.07
780.581	-0.07
781.015	-0.07
781.449	-0.06
781.883	-0.06
782.317	-0.06
782.751	-0.06
783.185	-0.06
783.619	-0.06
784.053	-0.06
784.487	-0.07
784.921	-0.07
785.355	-0.07
785.789	-0.07
786.223	-0.07
786.656	-0.06
787.09	-0.06
787.524	-0.06
787.957	-0.06
788.391	-0.06
788.825	-0.06
789.258	-0.06
789.692	-0.06
790.125	-0.06
790.559	-0.06
790.992	-0.06
791.426	-0.06
791.859	-0.06
792.293	-0.05
792.726	-0.04
793.159	-0.04
793.593	-0.04
794.026	-0.04
794.459	-0.04
794.892	-0.05
795.326	-0.05
795.759	-0.05
796.192	-0.05
796.625	-0.06
797.058	-0.07
797.491	-0.07
797.924	-0.08
798.357	-0.08
798.79	-0.08
799.223	-0.08
799.656	-0.08
800.089	-0.08
800.522	-0.08
800.955	-0.08
801.387	-0.08
801.82	-0.08
802.253	-0.08
802.686	-0.08
803.118	-0.08
803.551	-0.08
803.984	-0.08
804.416	-0.07
804.849	-0.07
805.281	-0.07
805.714	-0.07
806.146	-0.07
806.579	-0.07
807.011	-0.07
807.444	-0.07
807.876	-0.07
808.308	-0.07
808.741	-0.07
809.173	-0.08
809.605	-0.08
810.037	-0.08
810.47	-0.09
810.902	-0.09
811.334	-0.09
811.766	-0.08
812.198	-0.08
812.63	-0.08
813.062	-0.08
813.494	-0.08
813.926	-0.08
814.358	-0.08
814.79	-0.08
815.222	-0.07
815.654	-0.07
816.086	-0.07
816.518	-0.07
816.949	-0.08
817.381	-0.08
817.813	-0.08
818.245	-0.07
818.676	-0.07
819.108	-0.07
819.54	-0.07
819.971	-0.07
820.403	-0.07
820.834	-0.07
821.266	-0.07
821.697	-0.07
822.129	-0.07
822.56	-0.07
822.991	-0.08
823.423	-0.08
823.854	-0.08
824.286	-0.08
824.717	-0.08
825.148	-0.07
825.579	-0.07
826.01	-0.06
826.442	-0.06
826.873	-0.05
827.304	-0.04
827.735	-0.04
828.166	-0.03
828.597	-0.03
829.028	-0.02
829.459	-0.02
829.89	-0.02
830.321	-0.01
830.752	-0.01
831.183	-0.01
831.613	-0
832.044	-0
832.475	0
832.906	0
833.336	0
833.767	0.01
834.198	0.01
834.628	0.01
835.059	0.01
835.49	0.01
835.92	0.01
836.351	0.02
836.781	0.02
837.212	0.02
837.642	0.02
838.072	0.02
838.503	0.02
838.933	0.02
839.364	0.02
839.794	0.02
840.224	0.02
840.654	0.03
841.085	0.03
841.515	0.03
841.945	0.03
842.375	0.03
842.805	0.03
843.235	0.03
843.665	0.03
844.095	0.03
844.525	0.04
844.955	0.04
845.385	0.04
845.815	0.04
846.245	0.04
846.675	0.04
847.105	0.04
847.534	0.04
847.964	0.04
848.394	0.04
848.824	0.05
849.253	0.05
849.683	0.05
850.112	0.05
850.542	0.05
850.972	0.05
851.401	0.05
851.831	0.05
852.26	0.05
852.69	0.05
853.119	0.05
853.548	0.05
853.978	0.05
854.407	0.05
854.836	0.05
855.266	0.05
855.695	0.06
856.124	0.06
856.553	0.06
856.983	0.06
857.412	0.06
857.841	0.06
858.27	0.06
858.699	0.06
859.128	0.06
859.557	0.06
859.986	0.06
860.415	0.06
860.844	0.06
861.273	0.06
861.702	0.06
862.13	0.06
862.559	0.06
862.988	0.06
863.417	0.07
863.845	0.07
864.274	0.07
864.703	0.07
865.131	0.07
865.56	0.07
865.989	0.07
866.417	0.07
866.846	0.07
867.274	0.07
867.703	0.07
868.131	0.07
868.559	0.07
868.988	0.08
869.416	0.08
869.844	0.08
870.273	0.08
870.701	0.08
871.129	0.08
871.557	0.08
871.986	0.08
872.414	0.08
872.842	0.08
873.27	0.08
873.698	0.08
874.126	0.08
874.554	0.08
874.982	0.08
875.41	0.08
875.838	0.08
876.266	0.08
876.694	0.08
877.122	0.08
877.549	0.08
877.977	0.08
878.405	0.08
878.833	0.08
879.26	0.08
879.688	0.08
880.116	0.08
880.543	0.08
880.971	0.08
881.399	0.08
881.826	0.07
882.254	0.07
882.681	0.07
883.109	0.07
883.536	0.07
883.963	0.07
884.391	0.07
884.818	0.07
885.245	0.07
885.673	0.07
886.1	0.08
886.527	0.08
886.954	0.08
887.381	0.08
887.809	0.08
888.236	0.08
888.663	0.08
889.09	0.08
889.517	0.08
889.944	0.08
890.371	0.08
890.798	0.08
891.225	0.08
891.652	0.08
892.078	0.08
892.505	0.08
892.932	0.08
893.359	0.08
893.786	0.08
894.212	0.08
894.639	0.08
895.066	0.08
895.492	0.08
895.919	0.08
896.346	0.08
896.772	0.08
897.199	0.08
897.625	0.08
898.052	0.08
898.478	0.08
898.904	0.08
899.331	0.08
899.757	0.08
900.183	0.08
900.61	0.08
901.036	0.08
901.462	0.08
901.888	0.08
902.315	0.08
902.741	0.08
903.167	0.08
903.593	0.08
904.019	0.08
904.445	0.08
904.871	0.08
905.297	0.08
905.723	0.08
906.149	0.08
906.575	0.08
907.001	0.08
907.427	0.08
907.852	0.08
908.278	0.08
908.704	0.08
909.13	0.08
909.555	0.08
909.981	0.08
910.407	0.08
910.832	0.08
911.258	0.08
911.684	0.08
912.109	0.08
912.535	0.08
912.96	0.08
913.386	0.08
913.811	0.08
914.236	0.08
914.662	0.08
915.087	0.08
915.512	0.08
915.938	0.08
916.363	0.08
916.788	0.08
917.213	0.08
917.639	0.08
918.064	0.08
918.489	0.08
918.914	0.08
919.339	0.08
919.764	0.08
920.189	0.09
920.614	0.09
921.039	0.09
921.464	0.09
921.889	0.09
922.314	0.09
922.738	0.09
923.163	0.09
923.588	0.09
924.013	0.09
924.437	0.09
924.862	0.09
925.287	0.09
925.711	0.09
926.136	0.09
926.561	0.09
926.985	0.09
927.41	0.09
927.834	0.09
928.259	0.09
928.683	0.09
929.108	0.09
929.532	0.09
929.956	0.09
930.381	0.09
930.805	0.09
931.229	0.09
931.653	0.09
932.078	0.09
932.502	0.09
932.926	0.09
933.35	0.09
933.774	0.09
934.198	0.09
934.622	0.09
935.046	0.09
935.47	0.09
935.894	0.09
936.318	0.09
936.742	0.09
937.166	0.09
937.59	0.09
938.014	0.09
938.437	0.09
938.861	0.09
939.285	0.1
939.709	0.1
940.132	0.1
940.556	0.1
940.98	0.1
941.403	0.1
941.827	0.1
942.25	0.1
942.674	0.1
943.097	0.1
943.521	0.1
943.944	0.1
944.368	0.1
944.791	0.1
945.214	0.1
945.638	0.1
946.061	0.1
946.484	0.1
946.907	0.1
947.331	0.1
947.754	0.1
948.177	0.1
948.6	0.1
949.023	0.1
949.446	0.1
949.869	0.1
950.292	0.1
950.715	0.1
951.138	0.1
951.561	0.1
951.984	0.1
952.407	0.1
952.83	0.1
953.252	0.09
953.675	0.09
954.098	0.09
954.521	0.09
954.943	0.09
955.366	0.09
955.789	0.1
956.211	0.1
956.634	0.1
957.056	0.1
957.479	0.1
957.902	0.1
958.324	0.1
958.746	0.09
959.169	0.09
959.591	0.09
960.014	0.09
960.436	0.09
960.858	0.09
961.281	0.09
961.703	0.09
962.125	0.09
962.547	0.09
962.969	0.09
963.391	0.09
963.814	0.09
964.236	0.09
964.658	0.09
965.08	0.09
965.502	0.09
965.924	0.09
966.346	0.09
966.768	0.09
967.189	0.09
967.611	0.09
968.033	0.09
968.455	0.09
968.877	0.09
969.298	0.09
969.72	0.09
970.142	0.1
970.563	0.1
970.985	0.1
971.407	0.1
971.828	0.1
972.25	0.1
972.671	0.1
973.093	0.1
973.514	0.1
973.936	0.1
974.357	0.1
974.778	0.1
975.2	0.1
975.621	0.1
976.042	0.1
976.464	0.1
976.885	0.09
977.306	0.09
977.727	0.09
978.148	0.09
978.57	0.09
978.991	0.09
979.412	0.09
979.833	0.09
980.254	0.09
980.675	0.09
981.096	0.09
981.517	0.09
981.937	0.09
982.358	0.09
982.779	0.09
983.2	0.1
983.621	0.1
984.042	0.1
984.462	0.1
984.883	0.1
985.304	0.1
985.724	0.1
986.145	0.1
986.565	0.1
986.986	0.1
987.407	0.1
987.827	0.1
988.248	0.1
988.668	0.1
989.088	0.1
989.509	0.1
989.929	0.1
990.35	0.1
990.77	0.1
991.19	0.1
991.61	0.1
992.031	0.1
992.451	0.1
992.871	0.1
993.291	0.1
993.711	0.1
994.131	0.1
994.551	0.1
994.971	0.1
995.391	0.1
995.811	0.1
996.231	0.1
996.651	0.1
997.071	0.1
997.491	0.1
997.911	0.1
998.331	0.1
998.75	0.1
999.17	0.1
999.59	0.1
1000.009	0.1
1000.429	0.1
1000.849	0.1
1001.268	0.1
1001.688	0.1
1002.107	0.1
1002.527	0.1
1002.946	0.1
1003.366	0.1
1003.785	0.1
1004.205	0.1
1004.624	0.1
1005.044	0.1
1005.463	0.1
1005.882	0.1
1006.301	0.1
1006.721	0.1
1007.14	0.1
1007.559	0.1
1007.978	0.1
1008.397	0.1
1008.816	0.1
1009.235	0.1
1009.655	0.1
1010.074	0.1
1010.492	0.1
1010.911	0.1
1011.33	0.1
1011.749	0.1
1012.168	0.1
1012.587	0.1
1013.006	0.1
1013.425	0.1
1013.843	0.1
1014.262	0.1
1014.681	0.1
1015.099	0.1
1015.518	0.1
1015.937	0.1
1016.355	0.11
1016.774	0.11
1017.192	0.11
1017.611	0.11
1018.029	0.11
1018.448	0.11
1018.866	0.11
1019.285	0.11
1019.703	0.11
1020.121	0.11
1020.54	0.11
1020.958	0.11
1021.376	0.11
1021.794	0.11
1022.213	0.11
1022.631	0.11
1023.049	0.11
1023.467	0.11
1023.885	0.11
1024.303	0.11
1024.721	0.11
1025.139	0.11
1025.557	0.11
1025.975	0.11
1026.393	0.11
1026.811	0.11
1027.229	0.11
1027.647	0.11
1028.065	0.11
1028.482	0.11
1028.9	0.11
1029.318	0.11
1029.735	0.11
1030.153	0.11
1030.571	0.11
1030.988	0.12
1031.406	0.12
1031.823	0.12
1032.241	0.12
1032.659	0.12
1033.076	0.12
1033.493	0.12
1033.911	0.12
1034.328	0.12
1034.746	0.12
1035.163	0.12
1035.58	0.12
1035.997	0.12
1036.415	0.12
1036.832	0.13
1037.249	0.13
1037.666	0.13
1038.083	0.13
1038.501	0.13
1038.918	0.13
1039.335	0.13
1039.752	0.13
1040.169	0.13
1040.586	0.13
1041.003	0.13
1041.419	0.14
1041.836	0.14
1042.253	0.14
1042.67	0.14
1043.087	0.14
1043.504	0.14
1043.92	0.14
1044.337	0.14
1044.754	0.14
1045.17	0.15
1045.587	0.15
1046.004	0.15
1046.42	0.15
1046.837	0.15
1047.253	0.15
1047.67	0.15
1048.086	0.15
1048.503	0.15
1048.919	0.15
1049.335	0.15
1049.752	0.15
1050.168	0.16
1050.584	0.16
1051.001	0.16
1051.417	0.16
1051.833	0.16
1052.249	0.16
1052.665	0.16
1053.081	0.16
1053.497	0.17
1053.914	0.17
1054.33	0.17
1054.746	0.17
1055.162	0.17
1055.578	0.17
1055.993	0.17
1056.409	0.17
1056.825	0.18
1057.241	0.18
1057.657	0.18
1058.073	0.18
1058.488	0.18
1058.904	0.19
1059.32	0.19
1059.736	0.19
1060.151	0.19
1060.567	0.2
1060.982	0.2
1061.398	0.2
1061.813	0.2
1062.229	0.2
1062.644	0.21
1063.06	0.21
1063.475	0.21
1063.891	0.21
1064.306	0.21
1064.721	0.22
1065.137	0.22
1065.552	0.22
1065.967	0.22
1066.382	0.23
1066.798	0.23
1067.213	0.23
1067.628	0.23
1068.043	0.24
1068.458	0.24
1068.873	0.24
1069.288	0.24
1069.703	0.24
1070.118	0.25
1070.533	0.25
1070.948	0.25
1071.363	0.26
1071.778	0.26
1072.193	0.27
1072.607	0.27
1073.022	0.28
1073.437	0.28
1073.852	0.28
1074.266	0.29
1074.681	0.29
1075.096	0.3
1075.51	0.3
1075.925	0.31
1076.339	0.31
1076.754	0.32
1077.168	0.32
1077.583	0.33
1077.997	0.34
1078.412	0.34
1078.826	0.35
1079.24	0.36
1079.655	0.36
1080.069	0.37
1080.483	0.37
1080.897	0.38
1081.312	0.38
1081.726	0.39
1082.14	0.4
1082.554	0.41
1082.968	0.41
1083.382	0.42
1083.796	0.43
1084.21	0.44
1084.624	0.46
1085.038	0.47
1085.452	0.48
1085.866	0.5
1086.28	0.51
1086.694	0.53
1087.108	0.54
1087.521	0.56
1087.935	0.58
1088.349	0.6
1088.763	0.63
1089.176	0.66
1089.59	0.69
1090.004	0.74
1090.417	0.79
1090.831	0.85
1091.244	0.92
1091.658	1.01
1092.071	1.12
1092.485	1.28
1092.898	1.54
1093.312	2.36
1093.725	-0
1094.138	-0
1094.552	-0
1094.965	-0
1095.378	-0
1095.791	-0
1096.205	-0
1096.618	-0
1097.031	-0
1097.444	-0
1097.857	-0
1098.27	-0
1098.683	-0
1099.096	-0
1099.509	-0
1099.922	-0
1100.335	-0
1100.748	-0
1101.161	-0
1101.574	-0
1101.986	-0
1102.399	-0
1102.812	-0
1103.225	-0
1103.637	-0
1104.05	-0
1104.463	-0
1104.875	-0
1105.288	-0
1105.7	-0
1106.113	-0
1106.525	-0
1106.938	-0
1107.35	-0
1107.763	-0
1108.175	-0
1108.588	-0
1109	-0
1109.412	-0
1109.824	-0
1110.237	-0
1110.649	-0
1111.061	-0
