Data from redip-kinet-2-5a_Absorbance__28__00028.txt Node

Date: Fri Apr 12 13:46:26 CEST 2024
User: Laser008
Spectrometer: MAYP115816
Trigger mode: 0
Integration Time (sec): 2.000000E-1
Scans to average: 10
Electric dark correction enabled: true
Nonlinearity correction enabled: true
Boxcar width: 5
XAxis mode: Wavelengths
Number of Pixels in Spectrum: 2068
>>>>>Begin Spectral Data<<<<<
198.914	-2.48
199.384	-2.32
199.855	-2.18
200.325	-2.07
200.796	-1.99
201.266	-1.94
201.737	-1.86
202.207	-1.79
202.677	-1.74
203.147	-1.69
203.618	-1.66
204.088	-1.64
204.558	-1.62
205.028	-1.6
205.498	-1.6
205.968	-1.59
206.439	-1.59
206.909	-1.59
207.379	-1.59
207.849	-1.58
208.319	-1.58
208.789	-1.58
209.258	-1.58
209.728	-1.57
210.198	-1.57
210.668	-1.57
211.138	-1.57
211.608	-1.56
212.077	-1.56
212.547	-1.56
213.017	-1.56
213.486	-1.56
213.956	-1.56
214.426	-1.56
214.895	-1.56
215.365	-1.56
215.834	-1.55
216.304	-1.55
216.773	-1.55
217.243	-1.55
217.712	-1.54
218.181	-1.54
218.651	-1.54
219.12	-1.54
219.589	-1.54
220.058	-1.53
220.528	-1.53
220.997	-1.53
221.466	-1.52
221.935	-1.52
222.404	-1.51
222.873	-1.51
223.342	-1.5
223.812	-1.49
224.281	-1.49
224.749	-1.48
225.218	-1.47
225.687	-1.46
226.156	-1.45
226.625	-1.43
227.094	-1.42
227.563	-1.4
228.031	-1.38
228.5	-1.36
228.969	-1.34
229.438	-1.31
229.906	-1.28
230.375	-1.24
230.844	-1.2
231.312	-1.16
231.781	-1.12
232.249	-1.07
232.718	-1.03
233.186	-0.98
233.655	-0.93
234.123	-0.88
234.591	-0.83
235.06	-0.78
235.528	-0.73
235.996	-0.68
236.465	-0.63
236.933	-0.58
237.401	-0.54
237.869	-0.5
238.337	-0.46
238.805	-0.42
239.274	-0.38
239.742	-0.35
240.21	-0.31
240.678	-0.28
241.146	-0.25
241.614	-0.22
242.081	-0.2
242.549	-0.17
243.017	-0.15
243.485	-0.13
243.953	-0.11
244.421	-0.09
244.888	-0.08
245.356	-0.06
245.824	-0.04
246.291	-0.03
246.759	-0.02
247.227	-0
247.694	0.01
248.162	0.02
248.629	0.03
249.097	0.04
249.564	0.05
250.032	0.06
250.499	0.06
250.967	0.07
251.434	0.08
251.901	0.09
252.369	0.09
252.836	0.1
253.303	0.11
253.77	0.11
254.237	0.12
254.705	0.12
255.172	0.13
255.639	0.13
256.106	0.14
256.573	0.14
257.04	0.14
257.507	0.15
257.974	0.15
258.441	0.15
258.908	0.16
259.375	0.16
259.841	0.16
260.308	0.16
260.775	0.16
261.242	0.16
261.709	0.17
262.175	0.17
262.642	0.17
263.109	0.17
263.575	0.17
264.042	0.17
264.508	0.17
264.975	0.17
265.441	0.17
265.908	0.17
266.374	0.18
266.841	0.18
267.307	0.18
267.773	0.18
268.24	0.18
268.706	0.18
269.172	0.17
269.639	0.17
270.105	0.17
270.571	0.17
271.037	0.17
271.503	0.17
271.969	0.17
272.435	0.17
272.902	0.17
273.368	0.17
273.834	0.17
274.3	0.17
274.765	0.17
275.231	0.16
275.697	0.16
276.163	0.16
276.629	0.16
277.095	0.16
277.56	0.16
278.026	0.16
278.492	0.15
278.958	0.15
279.423	0.15
279.889	0.15
280.354	0.15
280.82	0.15
281.286	0.15
281.751	0.15
282.217	0.15
282.682	0.15
283.147	0.15
283.613	0.15
284.078	0.15
284.544	0.15
285.009	0.15
285.474	0.15
285.939	0.15
286.405	0.15
286.87	0.15
287.335	0.15
287.8	0.15
288.265	0.15
288.73	0.14
289.195	0.14
289.66	0.14
290.125	0.14
290.59	0.14
291.055	0.14
291.52	0.14
291.985	0.14
292.45	0.14
292.915	0.14
293.38	0.14
293.844	0.14
294.309	0.14
294.774	0.14
295.239	0.14
295.703	0.14
296.168	0.14
296.632	0.14
297.097	0.14
297.562	0.14
298.026	0.14
298.491	0.14
298.955	0.14
299.419	0.14
299.884	0.14
300.348	0.14
300.813	0.14
301.277	0.14
301.741	0.14
302.205	0.14
302.67	0.14
303.134	0.14
303.598	0.14
304.062	0.14
304.526	0.14
304.99	0.14
305.454	0.13
305.919	0.13
306.383	0.13
306.847	0.13
307.31	0.13
307.774	0.13
308.238	0.13
308.702	0.13
309.166	0.13
309.63	0.13
310.094	0.13
310.557	0.13
311.021	0.13
311.485	0.13
311.948	0.13
312.412	0.13
312.876	0.13
313.339	0.13
313.803	0.13
314.266	0.13
314.73	0.13
315.193	0.13
315.657	0.13
316.12	0.13
316.584	0.13
317.047	0.13
317.51	0.12
317.973	0.12
318.437	0.12
318.9	0.12
319.363	0.12
319.826	0.12
320.29	0.12
320.753	0.12
321.216	0.12
321.679	0.12
322.142	0.12
322.605	0.12
323.068	0.12
323.531	0.12
323.994	0.12
324.457	0.12
324.92	0.12
325.382	0.12
325.845	0.11
326.308	0.11
326.771	0.11
327.233	0.11
327.696	0.11
328.159	0.11
328.622	0.11
329.084	0.11
329.547	0.11
330.009	0.11
330.472	0.11
330.934	0.11
331.397	0.11
331.859	0.11
332.322	0.11
332.784	0.11
333.246	0.11
333.709	0.11
334.171	0.1
334.633	0.1
335.096	0.1
335.558	0.1
336.02	0.1
336.482	0.1
336.944	0.1
337.406	0.1
337.868	0.1
338.331	0.1
338.793	0.1
339.255	0.1
339.717	0.1
340.178	0.1
340.64	0.1
341.102	0.1
341.564	0.1
342.026	0.09
342.488	0.09
342.949	0.09
343.411	0.09
343.873	0.09
344.335	0.09
344.796	0.09
345.258	0.09
345.719	0.09
346.181	0.09
346.643	0.09
347.104	0.09
347.566	0.09
348.027	0.09
348.488	0.09
348.95	0.08
349.411	0.08
349.873	0.08
350.334	0.08
350.795	0.08
351.256	0.08
351.718	0.08
352.179	0.08
352.64	0.08
353.101	0.07
353.562	0.07
354.023	0.07
354.484	0.07
354.945	0.07
355.406	0.07
355.867	0.07
356.328	0.07
356.789	0.07
357.25	0.07
357.711	0.07
358.172	0.07
358.633	0.07
359.093	0.07
359.554	0.07
360.015	0.07
360.476	0.07
360.936	0.07
361.397	0.07
361.858	0.07
362.318	0.08
362.779	0.08
363.239	0.07
363.7	0.07
364.16	0.07
364.621	0.07
365.081	0.07
365.541	0.07
366.002	0.07
366.462	0.07
366.922	0.07
367.383	0.07
367.843	0.07
368.303	0.07
368.763	0.07
369.223	0.07
369.684	0.07
370.144	0.07
370.604	0.07
371.064	0.07
371.524	0.07
371.984	0.06
372.444	0.06
372.904	0.06
373.363	0.06
373.823	0.06
374.283	0.06
374.743	0.06
375.203	0.06
375.663	0.06
376.122	0.07
376.582	0.07
377.042	0.07
377.501	0.07
377.961	0.07
378.42	0.07
378.88	0.07
379.34	0.07
379.799	0.07
380.259	0.07
380.718	0.07
381.177	0.07
381.637	0.07
382.096	0.07
382.555	0.07
383.015	0.07
383.474	0.07
383.933	0.07
384.393	0.07
384.852	0.07
385.311	0.07
385.77	0.07
386.229	0.07
386.688	0.07
387.147	0.07
387.606	0.07
388.065	0.07
388.524	0.07
388.983	0.07
389.442	0.07
389.901	0.07
390.36	0.07
390.819	0.07
391.277	0.07
391.736	0.07
392.195	0.07
392.654	0.07
393.112	0.07
393.571	0.07
394.03	0.07
394.488	0.07
394.947	0.07
395.405	0.07
395.864	0.07
396.322	0.07
396.781	0.07
397.239	0.07
397.698	0.07
398.156	0.07
398.614	0.07
399.073	0.07
399.531	0.07
399.989	0.07
400.447	0.07
400.905	0.07
401.364	0.07
401.822	0.07
402.28	0.06
402.738	0.06
403.196	0.06
403.654	0.06
404.112	0.06
404.57	0.06
405.028	0.06
405.486	0.06
405.944	0.06
406.402	0.06
406.859	0.06
407.317	0.06
407.775	0.06
408.233	0.06
408.691	0.06
409.148	0.06
409.606	0.06
410.064	0.06
410.521	0.06
410.979	0.06
411.436	0.06
411.894	0.06
412.351	0.06
412.809	0.06
413.266	0.06
413.724	0.06
414.181	0.06
414.638	0.06
415.096	0.06
415.553	0.05
416.01	0.05
416.467	0.05
416.925	0.05
417.382	0.05
417.839	0.05
418.296	0.05
418.753	0.05
419.21	0.05
419.667	0.06
420.124	0.06
420.581	0.06
421.038	0.06
421.495	0.06
421.952	0.06
422.409	0.06
422.866	0.06
423.322	0.06
423.779	0.06
424.236	0.06
424.693	0.06
425.149	0.06
425.606	0.06
426.063	0.05
426.519	0.05
426.976	0.05
427.433	0.05
427.889	0.06
428.346	0.06
428.802	0.06
429.258	0.06
429.715	0.06
430.171	0.06
430.628	0.06
431.084	0.06
431.54	0.06
431.997	0.06
432.453	0.06
432.909	0.05
433.365	0.05
433.821	0.05
434.277	0.05
434.734	0.05
435.19	0.05
435.646	0.05
436.102	0.05
436.558	0.05
437.014	0.05
437.47	0.05
437.925	0.05
438.381	0.05
438.837	0.05
439.293	0.05
439.749	0.05
440.205	0.05
440.66	0.05
441.116	0.05
441.572	0.05
442.027	0.05
442.483	0.05
442.939	0.05
443.394	0.05
443.85	0.05
444.305	0.05
444.761	0.05
445.216	0.05
445.672	0.05
446.127	0.05
446.582	0.05
447.038	0.05
447.493	0.05
447.948	0.05
448.403	0.05
448.859	0.05
449.314	0.05
449.769	0.05
450.224	0.05
450.679	0.05
451.134	0.05
451.589	0.05
452.044	0.05
452.499	0.04
452.954	0.04
453.409	0.04
453.864	0.04
454.319	0.04
454.774	0.04
455.229	0.04
455.684	0.04
456.138	0.04
456.593	0.04
457.048	0.04
457.503	0.04
457.957	0.04
458.412	0.04
458.866	0.04
459.321	0.04
459.776	0.04
460.23	0.04
460.685	0.04
461.139	0.03
461.593	0.03
462.048	0.03
462.502	0.03
462.957	0.03
463.411	0.03
463.865	0.03
464.319	0.03
464.774	0.03
465.228	0.03
465.682	0.03
466.136	0.03
466.59	0.03
467.044	0.03
467.499	0.03
467.953	0.03
468.407	0.03
468.861	0.02
469.315	0.02
469.768	0.02
470.222	0.02
470.676	0.01
471.13	0.01
471.584	0.01
472.038	0.01
472.491	0.01
472.945	0.01
473.399	0.02
473.852	0.02
474.306	0.02
474.76	0.02
475.213	0.02
475.667	0.02
476.12	0.02
476.574	0.02
477.027	0.02
477.481	0.02
477.934	0.02
478.388	0.02
478.841	0.02
479.294	0.02
479.748	0.02
480.201	0.02
480.654	0.02
481.107	0.02
481.561	0.02
482.014	0.02
482.467	0.02
482.92	0.03
483.373	0.03
483.826	0.03
484.279	0.04
484.732	0.04
485.185	0.04
485.638	0.04
486.091	0.04
486.544	0.04
486.997	0.04
487.449	0.04
487.902	0.04
488.355	0.04
488.808	0.03
489.26	0.03
489.713	0.02
490.166	0.02
490.618	0.02
491.071	0.02
491.523	0.02
491.976	0.02
492.429	0.02
492.881	0.02
493.333	0.02
493.786	0.02
494.238	0.02
494.691	0.02
495.143	0.02
495.595	0.02
496.048	0.02
496.5	0.02
496.952	0.02
497.404	0.02
497.856	0.02
498.309	0.02
498.761	0.02
499.213	0.02
499.665	0.02
500.117	0.02
500.569	0.02
501.021	0.02
501.473	0.02
501.925	0.03
502.377	0.03
502.828	0.03
503.28	0.03
503.732	0.03
504.184	0.03
504.636	0.03
505.087	0.03
505.539	0.03
505.991	0.02
506.442	0.02
506.894	0.02
507.345	0.02
507.797	0.02
508.249	0.02
508.7	0.02
509.151	0.02
509.603	0.02
510.054	0.02
510.506	0.02
510.957	0.02
511.408	0.02
511.86	0.01
512.311	0.01
512.762	0.01
513.213	0.01
513.665	0.01
514.116	0.01
514.567	0.01
515.018	0
515.469	0
515.92	0
516.371	-0
516.822	-0
517.273	-0
517.724	-0
518.175	-0
518.626	-0
519.076	-0
519.527	-0.01
519.978	-0.01
520.429	-0.01
520.88	-0.01
521.33	-0.01
521.781	-0.02
522.232	-0.02
522.682	-0.03
523.133	-0.03
523.583	-0.03
524.034	-0.03
524.484	-0.03
524.935	-0.03
525.385	-0.03
525.836	-0.03
526.286	-0.02
526.736	-0.02
527.187	-0.02
527.637	-0.01
528.087	-0.01
528.538	-0
528.988	-0
529.438	0
529.888	0
530.338	0.01
530.788	0.01
531.238	0.01
531.688	0.01
532.139	0.01
532.589	0.01
533.038	0.01
533.488	0.02
533.938	0.02
534.388	0.02
534.838	0.02
535.288	0.02
535.738	0.02
536.187	0.02
536.637	0.02
537.087	0.02
537.537	0.02
537.986	0.02
538.436	0.02
538.885	0.02
539.335	0.02
539.785	0.03
540.234	0.03
540.684	0.03
541.133	0.03
541.582	0.03
542.032	0.02
542.481	0.02
542.931	0.03
543.38	0.03
543.829	0.03
544.278	0.03
544.728	0.03
545.177	0.03
545.626	0.03
546.075	0.03
546.524	0.03
546.973	0.03
547.422	0.03
547.871	0.03
548.32	0.03
548.769	0.02
549.218	0.02
549.667	0.02
550.116	0.02
550.565	0.02
551.014	0.02
551.463	0.02
551.911	0.02
552.36	0.02
552.809	0.02
553.258	0.02
553.706	0.02
554.155	0.02
554.603	0.02
555.052	0.02
555.501	0.02
555.949	0.01
556.398	0.01
556.846	0.01
557.294	0.01
557.743	0.01
558.191	0.01
558.64	0.01
559.088	0.01
559.536	0.01
559.985	0.01
560.433	0.01
560.881	0.01
561.329	0.02
561.777	0.02
562.225	0.02
562.674	0.02
563.122	0.02
563.57	0.02
564.018	0.02
564.466	0.01
564.914	0.01
565.362	0.01
565.809	0.01
566.257	0.01
566.705	0.02
567.153	0.02
567.601	0.02
568.048	0.03
568.496	0.03
568.944	0.04
569.392	0.04
569.839	0.05
570.287	0.05
570.734	0.06
571.182	0.06
571.63	0.06
572.077	0.07
572.525	0.07
572.972	0.07
573.419	0.07
573.867	0.07
574.314	0.07
574.761	0.08
575.209	0.08
575.656	0.08
576.103	0.08
576.551	0.08
576.998	0.08
577.445	0.08
577.892	0.08
578.339	0.08
578.786	0.08
579.233	0.09
579.68	0.09
580.127	0.09
580.574	0.09
581.021	0.09
581.468	0.08
581.915	0.08
582.362	0.08
582.809	0.09
583.255	0.09
583.702	0.09
584.149	0.08
584.596	0.08
585.042	0.08
585.489	0.08
585.936	0.08
586.382	0.08
586.829	0.08
587.275	0.08
587.722	0.07
588.168	0.07
588.615	0.07
589.061	0.07
589.508	0.06
589.954	0.06
590.4	0.06
590.847	0.06
591.293	0.06
591.739	0.06
592.185	0.07
592.632	0.07
593.078	0.07
593.524	0.07
593.97	0.07
594.416	0.07
594.862	0.06
595.308	0.06
595.754	0.06
596.2	0.06
596.646	0.06
597.092	0.06
597.538	0.06
597.984	0.07
598.43	0.07
598.876	0.07
599.321	0.07
599.767	0.07
600.213	0.07
600.659	0.07
601.104	0.07
601.55	0.07
601.995	0.07
602.441	0.06
602.887	0.06
603.332	0.06
603.778	0.06
604.223	0.06
604.668	0.06
605.114	0.07
605.559	0.07
606.005	0.07
606.45	0.07
606.895	0.07
607.341	0.07
607.786	0.07
608.231	0.07
608.676	0.07
609.121	0.06
609.566	0.06
610.012	0.06
610.457	0.06
610.902	0.06
611.347	0.06
611.792	0.06
612.237	0.06
612.682	0.06
613.127	0.06
613.571	0.07
614.016	0.06
614.461	0.06
614.906	0.06
615.351	0.06
615.795	0.06
616.24	0.06
616.685	0.06
617.129	0.05
617.574	0.05
618.019	0.05
618.463	0.05
618.908	0.04
619.352	0.04
619.797	0.04
620.241	0.04
620.686	0.05
621.13	0.05
621.574	0.05
622.019	0.05
622.463	0.05
622.907	0.05
623.352	0.05
623.796	0.05
624.24	0.05
624.684	0.05
625.128	0.05
625.572	0.05
626.016	0.05
626.461	0.04
626.905	0.04
627.349	0.04
627.793	0.04
628.236	0.04
628.68	0.04
629.124	0.04
629.568	0.04
630.012	0.04
630.456	0.04
630.9	0.04
631.343	0.04
631.787	0.03
632.231	0.03
632.674	0.03
633.118	0.03
633.562	0.03
634.005	0.03
634.449	0.03
634.892	0.03
635.336	0.04
635.779	0.04
636.223	0.04
636.666	0.04
637.109	0.04
637.553	0.04
637.996	0.04
638.439	0.04
638.883	0.04
639.326	0.04
639.769	0.04
640.212	0.04
640.655	0.04
641.099	0.04
641.542	0.04
641.985	0.04
642.428	0.05
642.871	0.05
643.314	0.05
643.757	0.05
644.2	0.05
644.643	0.05
645.085	0.05
645.528	0.06
645.971	0.06
646.414	0.06
646.857	0.06
647.299	0.07
647.742	0.07
648.185	0.07
648.627	0.07
649.07	0.08
649.513	0.08
649.955	0.08
650.398	0.08
650.84	0.08
651.283	0.08
651.725	0.08
652.168	0.08
652.61	0.08
653.052	0.09
653.495	0.09
653.937	0.08
654.379	0.07
654.821	0.08
655.264	0.08
655.706	0.08
656.148	0.08
656.59	0.08
657.032	0.09
657.474	0.09
657.916	0.08
658.358	0.09
658.8	0.1
659.242	0.11
659.684	0.11
660.126	0.11
660.568	0.11
661.01	0.11
661.452	0.11
661.894	0.11
662.335	0.11
662.777	0.11
663.219	0.12
663.661	0.12
664.102	0.12
664.544	0.12
664.985	0.12
665.427	0.12
665.869	0.13
666.31	0.13
666.752	0.13
667.193	0.13
667.634	0.13
668.076	0.13
668.517	0.13
668.959	0.14
669.4	0.14
669.841	0.14
670.282	0.15
670.724	0.15
671.165	0.15
671.606	0.15
672.047	0.15
672.488	0.15
672.929	0.15
673.37	0.15
673.811	0.15
674.252	0.15
674.693	0.15
675.134	0.15
675.575	0.15
676.016	0.15
676.457	0.15
676.898	0.15
677.339	0.16
677.78	0.16
678.22	0.16
678.661	0.16
679.102	0.17
679.542	0.17
679.983	0.17
680.424	0.17
680.864	0.17
681.305	0.17
681.745	0.17
682.186	0.17
682.626	0.17
683.067	0.18
683.507	0.18
683.948	0.18
684.388	0.18
684.828	0.18
685.269	0.18
685.709	0.18
686.149	0.19
686.589	0.19
687.029	0.19
687.47	0.19
687.91	0.18
688.35	0.18
688.79	0.18
689.23	0.18
689.67	0.19
690.11	0.19
690.55	0.19
690.99	0.19
691.43	0.19
691.87	0.19
692.31	0.19
692.749	0.19
693.189	0.19
693.629	0.19
694.069	0.19
694.508	0.19
694.948	0.19
695.388	0.19
695.827	0.19
696.267	0.19
696.706	0.19
697.146	0.19
697.586	0.19
698.025	0.19
698.464	0.19
698.904	0.19
699.343	0.19
699.783	0.19
700.222	0.19
700.661	0.19
701.101	0.19
701.54	0.19
701.979	0.19
702.418	0.19
702.857	0.18
703.297	0.18
703.736	0.18
704.175	0.18
704.614	0.18
705.053	0.18
705.492	0.18
705.931	0.18
706.37	0.18
706.809	0.18
707.248	0.18
707.687	0.18
708.125	0.18
708.564	0.18
709.003	0.18
709.442	0.18
709.88	0.17
710.319	0.17
710.758	0.17
711.196	0.17
711.635	0.17
712.074	0.17
712.512	0.17
712.951	0.17
713.389	0.17
713.828	0.17
714.266	0.16
714.705	0.16
715.143	0.16
715.581	0.16
716.02	0.16
716.458	0.16
716.896	0.15
717.334	0.15
717.773	0.15
718.211	0.15
718.649	0.14
719.087	0.14
719.525	0.14
719.963	0.14
720.401	0.14
720.839	0.14
721.277	0.14
721.715	0.14
722.153	0.13
722.591	0.13
723.029	0.13
723.467	0.13
723.905	0.13
724.342	0.13
724.78	0.13
725.218	0.13
725.656	0.13
726.093	0.13
726.531	0.12
726.969	0.12
727.406	0.12
727.844	0.12
728.281	0.12
728.719	0.12
729.156	0.12
729.594	0.12
730.031	0.12
730.469	0.12
730.906	0.12
731.343	0.12
731.781	0.12
732.218	0.12
732.655	0.11
733.092	0.11
733.53	0.11
733.967	0.11
734.404	0.1
734.841	0.1
735.278	0.1
735.715	0.1
736.152	0.09
736.589	0.09
737.026	0.09
737.463	0.09
737.9	0.09
738.337	0.09
738.774	0.08
739.211	0.08
739.647	0.08
740.084	0.07
740.521	0.07
740.958	0.07
741.394	0.06
741.831	0.06
742.268	0.05
742.704	0.05
743.141	0.04
743.577	0.04
744.014	0.04
744.45	0.04
744.887	0.04
745.323	0.03
745.76	0.03
746.196	0.03
746.632	0.03
747.069	0.04
747.505	0.04
747.941	0.04
748.378	0.04
748.814	0.04
749.25	0.04
749.686	0.04
750.122	0.04
750.558	0.04
750.994	0.04
751.43	0.04
751.866	0.04
752.302	0.04
752.738	0.04
753.174	0.04
753.61	0.04
754.046	0.04
754.482	0.04
754.918	0.04
755.354	0.05
755.789	0.05
756.225	0.05
756.661	0.05
757.096	0.05
757.532	0.05
757.968	0.05
758.403	0.05
758.839	0.05
759.274	0.04
759.71	0.04
760.145	0.04
760.581	0.03
761.016	0.03
761.452	0.03
761.887	0.02
762.322	0.02
762.758	0.02
763.193	0.02
763.628	0.02
764.063	0.01
764.499	0.01
764.934	0.01
765.369	0
765.804	0
766.239	0
766.674	0
767.109	-0
767.544	-0.01
767.979	-0.01
768.414	-0.01
768.849	-0.01
769.284	-0.01
769.719	-0.01
770.154	-0.02
770.588	-0.02
771.023	-0.02
771.458	-0.03
771.893	-0.03
772.327	-0.04
772.762	-0.04
773.197	-0.04
773.631	-0.05
774.066	-0.05
774.5	-0.06
774.935	-0.06
775.369	-0.07
775.804	-0.07
776.238	-0.07
776.673	-0.08
777.107	-0.08
777.541	-0.08
777.976	-0.08
778.41	-0.08
778.844	-0.08
779.279	-0.07
779.713	-0.07
780.147	-0.06
780.581	-0.06
781.015	-0.06
781.449	-0.06
781.883	-0.06
782.317	-0.06
782.751	-0.06
783.185	-0.05
783.619	-0.05
784.053	-0.06
784.487	-0.06
784.921	-0.06
785.355	-0.06
785.789	-0.06
786.223	-0.06
786.656	-0.05
787.09	-0.05
787.524	-0.05
787.957	-0.05
788.391	-0.05
788.825	-0.05
789.258	-0.05
789.692	-0.05
790.125	-0.05
790.559	-0.05
790.992	-0.05
791.426	-0.05
791.859	-0.05
792.293	-0.04
792.726	-0.03
793.159	-0.03
793.593	-0.03
794.026	-0.03
794.459	-0.04
794.892	-0.04
795.326	-0.04
795.759	-0.04
796.192	-0.04
796.625	-0.05
797.058	-0.06
797.491	-0.06
797.924	-0.07
798.357	-0.07
798.79	-0.07
799.223	-0.07
799.656	-0.07
800.089	-0.07
800.522	-0.07
800.955	-0.07
801.387	-0.07
801.82	-0.07
802.253	-0.07
802.686	-0.08
803.118	-0.08
803.551	-0.08
803.984	-0.07
804.416	-0.07
804.849	-0.06
805.281	-0.06
805.714	-0.06
806.146	-0.06
806.579	-0.06
807.011	-0.06
807.444	-0.06
807.876	-0.06
808.308	-0.06
808.741	-0.06
809.173	-0.07
809.605	-0.07
810.037	-0.07
810.47	-0.08
810.902	-0.08
811.334	-0.08
811.766	-0.07
812.198	-0.07
812.63	-0.07
813.062	-0.07
813.494	-0.07
813.926	-0.07
814.358	-0.07
814.79	-0.07
815.222	-0.06
815.654	-0.06
816.086	-0.06
816.518	-0.07
816.949	-0.07
817.381	-0.07
817.813	-0.07
818.245	-0.07
818.676	-0.06
819.108	-0.06
819.54	-0.06
819.971	-0.06
820.403	-0.07
820.834	-0.07
821.266	-0.07
821.697	-0.06
822.129	-0.06
822.56	-0.06
822.991	-0.07
823.423	-0.07
823.854	-0.07
824.286	-0.07
824.717	-0.07
825.148	-0.06
825.579	-0.06
826.01	-0.06
826.442	-0.05
826.873	-0.05
827.304	-0.04
827.735	-0.03
828.166	-0.03
828.597	-0.02
829.028	-0.02
829.459	-0.01
829.89	-0.01
830.321	-0.01
830.752	-0
831.183	0.01
831.613	0.01
832.044	0.01
832.475	0.02
832.906	0.02
833.336	0.02
833.767	0.03
834.198	0.03
834.628	0.03
835.059	0.03
835.49	0.04
835.92	0.04
836.351	0.04
836.781	0.04
837.212	0.04
837.642	0.04
838.072	0.04
838.503	0.05
838.933	0.05
839.364	0.05
839.794	0.05
840.224	0.05
840.654	0.05
841.085	0.06
841.515	0.06
841.945	0.06
842.375	0.06
842.805	0.06
843.235	0.07
843.665	0.07
844.095	0.07
844.525	0.07
844.955	0.07
845.385	0.08
845.815	0.08
846.245	0.08
846.675	0.08
847.105	0.08
847.534	0.09
847.964	0.09
848.394	0.09
848.824	0.09
849.253	0.09
849.683	0.09
850.112	0.1
850.542	0.1
850.972	0.1
851.401	0.1
851.831	0.1
852.26	0.1
852.69	0.1
853.119	0.1
853.548	0.1
853.978	0.1
854.407	0.11
854.836	0.11
855.266	0.11
855.695	0.11
856.124	0.11
856.553	0.11
856.983	0.11
857.412	0.12
857.841	0.12
858.27	0.12
858.699	0.12
859.128	0.12
859.557	0.12
859.986	0.12
860.415	0.12
860.844	0.12
861.273	0.12
861.702	0.12
862.13	0.12
862.559	0.12
862.988	0.12
863.417	0.13
863.845	0.13
864.274	0.13
864.703	0.13
865.131	0.13
865.56	0.13
865.989	0.13
866.417	0.13
866.846	0.14
867.274	0.14
867.703	0.14
868.131	0.14
868.559	0.14
868.988	0.14
869.416	0.14
869.844	0.14
870.273	0.14
870.701	0.14
871.129	0.14
871.557	0.14
871.986	0.14
872.414	0.14
872.842	0.14
873.27	0.14
873.698	0.14
874.126	0.14
874.554	0.14
874.982	0.15
875.41	0.15
875.838	0.15
876.266	0.15
876.694	0.15
877.122	0.15
877.549	0.15
877.977	0.15
878.405	0.15
878.833	0.15
879.26	0.15
879.688	0.15
880.116	0.14
880.543	0.14
880.971	0.14
881.399	0.14
881.826	0.14
882.254	0.14
882.681	0.14
883.109	0.14
883.536	0.14
883.963	0.14
884.391	0.14
884.818	0.14
885.245	0.14
885.673	0.14
886.1	0.14
886.527	0.15
886.954	0.15
887.381	0.15
887.809	0.15
888.236	0.15
888.663	0.15
889.09	0.15
889.517	0.15
889.944	0.15
890.371	0.15
890.798	0.15
891.225	0.15
891.652	0.15
892.078	0.15
892.505	0.15
892.932	0.15
893.359	0.15
893.786	0.15
894.212	0.15
894.639	0.15
895.066	0.15
895.492	0.15
895.919	0.15
896.346	0.15
896.772	0.15
897.199	0.15
897.625	0.15
898.052	0.15
898.478	0.15
898.904	0.15
899.331	0.15
899.757	0.15
900.183	0.15
900.61	0.15
901.036	0.15
901.462	0.15
901.888	0.15
902.315	0.15
902.741	0.15
903.167	0.15
903.593	0.15
904.019	0.15
904.445	0.15
904.871	0.15
905.297	0.15
905.723	0.15
906.149	0.15
906.575	0.15
907.001	0.15
907.427	0.15
907.852	0.15
908.278	0.15
908.704	0.15
909.13	0.15
909.555	0.15
909.981	0.15
910.407	0.15
910.832	0.16
911.258	0.16
911.684	0.16
912.109	0.16
912.535	0.16
912.96	0.16
913.386	0.16
913.811	0.15
914.236	0.15
914.662	0.15
915.087	0.15
915.512	0.15
915.938	0.15
916.363	0.15
916.788	0.15
917.213	0.15
917.639	0.16
918.064	0.16
918.489	0.16
918.914	0.16
919.339	0.16
919.764	0.16
920.189	0.16
920.614	0.16
921.039	0.16
921.464	0.16
921.889	0.16
922.314	0.16
922.738	0.16
923.163	0.16
923.588	0.16
924.013	0.16
924.437	0.16
924.862	0.16
925.287	0.16
925.711	0.16
926.136	0.16
926.561	0.16
926.985	0.16
927.41	0.16
927.834	0.16
928.259	0.17
928.683	0.17
929.108	0.17
929.532	0.17
929.956	0.17
930.381	0.17
930.805	0.17
931.229	0.17
931.653	0.17
932.078	0.17
932.502	0.17
932.926	0.17
933.35	0.17
933.774	0.17
934.198	0.17
934.622	0.17
935.046	0.17
935.47	0.17
935.894	0.17
936.318	0.17
936.742	0.17
937.166	0.17
937.59	0.17
938.014	0.18
938.437	0.18
938.861	0.18
939.285	0.18
939.709	0.18
940.132	0.18
940.556	0.19
940.98	0.19
941.403	0.19
941.827	0.19
942.25	0.19
942.674	0.19
943.097	0.19
943.521	0.19
943.944	0.19
944.368	0.19
944.791	0.19
945.214	0.19
945.638	0.19
946.061	0.19
946.484	0.19
946.907	0.19
947.331	0.19
947.754	0.19
948.177	0.19
948.6	0.19
949.023	0.19
949.446	0.19
949.869	0.19
950.292	0.18
950.715	0.18
951.138	0.18
951.561	0.18
951.984	0.18
952.407	0.18
952.83	0.18
953.252	0.18
953.675	0.18
954.098	0.18
954.521	0.18
954.943	0.18
955.366	0.18
955.789	0.18
956.211	0.18
956.634	0.18
957.056	0.18
957.479	0.18
957.902	0.18
958.324	0.18
958.746	0.17
959.169	0.17
959.591	0.17
960.014	0.17
960.436	0.17
960.858	0.17
961.281	0.17
961.703	0.17
962.125	0.17
962.547	0.17
962.969	0.17
963.391	0.17
963.814	0.17
964.236	0.17
964.658	0.17
965.08	0.17
965.502	0.17
965.924	0.17
966.346	0.17
966.768	0.17
967.189	0.17
967.611	0.17
968.033	0.17
968.455	0.17
968.877	0.17
969.298	0.17
969.72	0.17
970.142	0.17
970.563	0.17
970.985	0.17
971.407	0.17
971.828	0.17
972.25	0.18
972.671	0.18
973.093	0.18
973.514	0.18
973.936	0.18
974.357	0.18
974.778	0.18
975.2	0.18
975.621	0.18
976.042	0.17
976.464	0.17
976.885	0.17
977.306	0.17
977.727	0.17
978.148	0.17
978.57	0.17
978.991	0.17
979.412	0.17
979.833	0.17
980.254	0.17
980.675	0.17
981.096	0.17
981.517	0.17
981.937	0.18
982.358	0.18
982.779	0.18
983.2	0.18
983.621	0.18
984.042	0.18
984.462	0.18
984.883	0.18
985.304	0.18
985.724	0.18
986.145	0.18
986.565	0.18
986.986	0.18
987.407	0.18
987.827	0.18
988.248	0.18
988.668	0.18
989.088	0.18
989.509	0.18
989.929	0.18
990.35	0.18
990.77	0.18
991.19	0.18
991.61	0.18
992.031	0.18
992.451	0.18
992.871	0.18
993.291	0.18
993.711	0.18
994.131	0.18
994.551	0.18
994.971	0.18
995.391	0.18
995.811	0.18
996.231	0.18
996.651	0.18
997.071	0.18
997.491	0.18
997.911	0.18
998.331	0.19
998.75	0.19
999.17	0.19
999.59	0.19
1000.009	0.19
1000.429	0.19
1000.849	0.19
1001.268	0.19
1001.688	0.19
1002.107	0.19
1002.527	0.19
1002.946	0.19
1003.366	0.19
1003.785	0.18
1004.205	0.18
1004.624	0.18
1005.044	0.18
1005.463	0.18
1005.882	0.18
1006.301	0.18
1006.721	0.18
1007.14	0.18
1007.559	0.18
1007.978	0.18
1008.397	0.18
1008.816	0.19
1009.235	0.19
1009.655	0.19
1010.074	0.19
1010.492	0.19
1010.911	0.19
1011.33	0.19
1011.749	0.19
1012.168	0.19
1012.587	0.19
1013.006	0.19
1013.425	0.19
1013.843	0.19
1014.262	0.19
1014.681	0.19
1015.099	0.19
1015.518	0.19
1015.937	0.19
1016.355	0.2
1016.774	0.2
1017.192	0.2
1017.611	0.2
1018.029	0.2
1018.448	0.2
1018.866	0.2
1019.285	0.2
1019.703	0.2
1020.121	0.2
1020.54	0.2
1020.958	0.2
1021.376	0.2
1021.794	0.2
1022.213	0.2
1022.631	0.2
1023.049	0.2
1023.467	0.2
1023.885	0.2
1024.303	0.2
1024.721	0.2
1025.139	0.2
1025.557	0.2
1025.975	0.2
1026.393	0.21
1026.811	0.21
1027.229	0.21
1027.647	0.21
1028.065	0.21
1028.482	0.21
1028.9	0.21
1029.318	0.21
1029.735	0.21
1030.153	0.21
1030.571	0.21
1030.988	0.21
1031.406	0.22
1031.823	0.22
1032.241	0.22
1032.659	0.22
1033.076	0.22
1033.493	0.22
1033.911	0.22
1034.328	0.22
1034.746	0.22
1035.163	0.23
1035.58	0.23
1035.997	0.23
1036.415	0.23
1036.832	0.23
1037.249	0.24
1037.666	0.24
1038.083	0.24
1038.501	0.24
1038.918	0.24
1039.335	0.25
1039.752	0.25
1040.169	0.25
1040.586	0.25
1041.003	0.25
1041.419	0.25
1041.836	0.25
1042.253	0.25
1042.67	0.26
1043.087	0.26
1043.504	0.26
1043.92	0.26
1044.337	0.26
1044.754	0.27
1045.17	0.27
1045.587	0.27
1046.004	0.27
1046.42	0.28
1046.837	0.28
1047.253	0.28
1047.67	0.28
1048.086	0.28
1048.503	0.28
1048.919	0.29
1049.335	0.29
1049.752	0.29
1050.168	0.29
1050.584	0.29
1051.001	0.29
1051.417	0.3
1051.833	0.3
1052.249	0.3
1052.665	0.31
1053.081	0.31
1053.497	0.32
1053.914	0.32
1054.33	0.32
1054.746	0.33
1055.162	0.33
1055.578	0.33
1055.993	0.33
1056.409	0.33
1056.825	0.34
1057.241	0.34
1057.657	0.35
1058.073	0.35
1058.488	0.35
1058.904	0.36
1059.32	0.36
1059.736	0.37
1060.151	0.38
1060.567	0.38
1060.982	0.39
1061.398	0.39
1061.813	0.39
1062.229	0.4
1062.644	0.4
1063.06	0.4
1063.475	0.41
1063.891	0.41
1064.306	0.42
1064.721	0.42
1065.137	0.43
1065.552	0.43
1065.967	0.44
1066.382	0.45
1066.798	0.45
1067.213	0.46
1067.628	0.47
1068.043	0.47
1068.458	0.48
1068.873	0.48
1069.288	0.49
1069.703	0.5
1070.118	0.51
1070.533	0.51
1070.948	0.52
1071.363	0.53
1071.778	0.55
1072.193	0.56
1072.607	0.57
1073.022	0.59
1073.437	0.6
1073.852	0.61
1074.266	0.62
1074.681	0.64
1075.096	0.65
1075.51	0.67
1075.925	0.69
1076.339	0.71
1076.754	0.73
1077.168	0.75
1077.583	0.78
1077.997	0.81
1078.412	0.84
1078.826	0.87
1079.24	0.9
1079.655	0.94
1080.069	0.97
1080.483	1
1080.897	1.04
1081.312	1.08
1081.726	1.13
1082.14	1.2
1082.554	1.28
1082.968	1.4
1083.382	1.57
1083.796	1.85
1084.21	4.38
1084.624	-0
1085.038	-0
1085.452	-0
1085.866	-0
1086.28	-0
1086.694	-0
1087.108	-0
1087.521	-0
1087.935	-0
1088.349	-0
1088.763	-0
1089.176	-0
1089.59	-0
1090.004	-0
1090.417	-0
1090.831	-0
1091.244	-0
1091.658	-0
1092.071	-0
1092.485	-0
1092.898	-0
1093.312	-0
1093.725	-0
1094.138	-0
1094.552	-0
1094.965	-0
1095.378	-0
1095.791	-0
1096.205	-0
1096.618	-0
1097.031	-0
1097.444	-0
1097.857	-0
1098.27	-0
1098.683	-0
1099.096	-0
1099.509	-0
1099.922	-0
1100.335	-0
1100.748	-0
1101.161	-0
1101.574	-0
1101.986	-0
1102.399	-0
1102.812	-0
1103.225	-0
1103.637	-0
1104.05	-0
1104.463	-0
1104.875	-0
1105.288	-0
1105.7	-0
1106.113	-0
1106.525	-0
1106.938	-0
1107.35	-0
1107.763	-0
1108.175	-0
1108.588	-0
1109	-0
1109.412	-0
1109.824	-0
1110.237	-0
1110.649	-0
1111.061	-0
