Data from redip-kinet-2-5a_Absorbance__31__00031.txt Node

Date: Fri Apr 12 13:46:32 CEST 2024
User: Laser008
Spectrometer: MAYP115816
Trigger mode: 0
Integration Time (sec): 2.000000E-1
Scans to average: 10
Electric dark correction enabled: true
Nonlinearity correction enabled: true
Boxcar width: 5
XAxis mode: Wavelengths
Number of Pixels in Spectrum: 2068
>>>>>Begin Spectral Data<<<<<
198.914	-2.35
199.384	-2.19
199.855	-2.05
200.325	-1.94
200.796	-1.86
201.266	-1.81
201.737	-1.73
202.207	-1.67
202.677	-1.62
203.147	-1.57
203.618	-1.54
204.088	-1.51
204.558	-1.49
205.028	-1.48
205.498	-1.47
205.968	-1.47
206.439	-1.47
206.909	-1.46
207.379	-1.46
207.849	-1.46
208.319	-1.45
208.789	-1.45
209.258	-1.45
209.728	-1.45
210.198	-1.45
210.668	-1.44
211.138	-1.44
211.608	-1.44
212.077	-1.44
212.547	-1.44
213.017	-1.44
213.486	-1.44
213.956	-1.44
214.426	-1.43
214.895	-1.43
215.365	-1.43
215.834	-1.43
216.304	-1.43
216.773	-1.43
217.243	-1.42
217.712	-1.42
218.181	-1.42
218.651	-1.42
219.12	-1.42
219.589	-1.41
220.058	-1.41
220.528	-1.4
220.997	-1.4
221.466	-1.4
221.935	-1.39
222.404	-1.39
222.873	-1.38
223.342	-1.38
223.812	-1.37
224.281	-1.36
224.749	-1.35
225.218	-1.35
225.687	-1.34
226.156	-1.33
226.625	-1.31
227.094	-1.3
227.563	-1.28
228.031	-1.26
228.5	-1.24
228.969	-1.21
229.438	-1.19
229.906	-1.15
230.375	-1.12
230.844	-1.08
231.312	-1.04
231.781	-1
232.249	-0.95
232.718	-0.9
233.186	-0.86
233.655	-0.81
234.123	-0.75
234.591	-0.7
235.06	-0.65
235.528	-0.6
235.996	-0.56
236.465	-0.51
236.933	-0.46
237.401	-0.42
237.869	-0.37
238.337	-0.33
238.805	-0.3
239.274	-0.26
239.742	-0.22
240.21	-0.19
240.678	-0.16
241.146	-0.13
241.614	-0.1
242.081	-0.08
242.549	-0.06
243.017	-0.03
243.485	-0.01
243.953	0.01
244.421	0.03
244.888	0.04
245.356	0.06
245.824	0.07
246.291	0.09
246.759	0.1
247.227	0.11
247.694	0.13
248.162	0.14
248.629	0.15
249.097	0.16
249.564	0.17
250.032	0.17
250.499	0.18
250.967	0.19
251.434	0.2
251.901	0.21
252.369	0.21
252.836	0.22
253.303	0.23
253.77	0.23
254.237	0.24
254.705	0.24
255.172	0.25
255.639	0.25
256.106	0.25
256.573	0.26
257.04	0.26
257.507	0.26
257.974	0.27
258.441	0.27
258.908	0.27
259.375	0.27
259.841	0.28
260.308	0.28
260.775	0.28
261.242	0.28
261.709	0.28
262.175	0.28
262.642	0.29
263.109	0.29
263.575	0.29
264.042	0.29
264.508	0.29
264.975	0.29
265.441	0.29
265.908	0.29
266.374	0.29
266.841	0.29
267.307	0.29
267.773	0.29
268.24	0.29
268.706	0.29
269.172	0.29
269.639	0.29
270.105	0.29
270.571	0.29
271.037	0.28
271.503	0.28
271.969	0.28
272.435	0.28
272.902	0.28
273.368	0.28
273.834	0.28
274.3	0.28
274.765	0.28
275.231	0.28
275.697	0.27
276.163	0.27
276.629	0.27
277.095	0.27
277.56	0.27
278.026	0.26
278.492	0.26
278.958	0.26
279.423	0.26
279.889	0.26
280.354	0.26
280.82	0.26
281.286	0.26
281.751	0.26
282.217	0.26
282.682	0.26
283.147	0.26
283.613	0.26
284.078	0.25
284.544	0.25
285.009	0.25
285.474	0.25
285.939	0.25
286.405	0.25
286.87	0.25
287.335	0.25
287.8	0.25
288.265	0.25
288.73	0.24
289.195	0.24
289.66	0.24
290.125	0.24
290.59	0.24
291.055	0.24
291.52	0.24
291.985	0.24
292.45	0.24
292.915	0.24
293.38	0.24
293.844	0.24
294.309	0.23
294.774	0.23
295.239	0.23
295.703	0.23
296.168	0.23
296.632	0.23
297.097	0.23
297.562	0.23
298.026	0.23
298.491	0.23
298.955	0.23
299.419	0.23
299.884	0.23
300.348	0.23
300.813	0.23
301.277	0.23
301.741	0.23
302.205	0.23
302.67	0.23
303.134	0.23
303.598	0.22
304.062	0.22
304.526	0.22
304.99	0.22
305.454	0.22
305.919	0.22
306.383	0.22
306.847	0.22
307.31	0.22
307.774	0.22
308.238	0.22
308.702	0.22
309.166	0.22
309.63	0.22
310.094	0.22
310.557	0.22
311.021	0.22
311.485	0.22
311.948	0.22
312.412	0.21
312.876	0.21
313.339	0.21
313.803	0.21
314.266	0.21
314.73	0.21
315.193	0.21
315.657	0.21
316.12	0.21
316.584	0.21
317.047	0.21
317.51	0.21
317.973	0.21
318.437	0.21
318.9	0.2
319.363	0.2
319.826	0.2
320.29	0.2
320.753	0.2
321.216	0.2
321.679	0.2
322.142	0.2
322.605	0.2
323.068	0.2
323.531	0.2
323.994	0.2
324.457	0.2
324.92	0.2
325.382	0.19
325.845	0.19
326.308	0.19
326.771	0.19
327.233	0.19
327.696	0.19
328.159	0.19
328.622	0.19
329.084	0.19
329.547	0.19
330.009	0.19
330.472	0.19
330.934	0.19
331.397	0.19
331.859	0.18
332.322	0.18
332.784	0.18
333.246	0.18
333.709	0.18
334.171	0.18
334.633	0.18
335.096	0.18
335.558	0.18
336.02	0.18
336.482	0.18
336.944	0.18
337.406	0.18
337.868	0.18
338.331	0.18
338.793	0.18
339.255	0.17
339.717	0.17
340.178	0.17
340.64	0.17
341.102	0.17
341.564	0.17
342.026	0.17
342.488	0.17
342.949	0.17
343.411	0.17
343.873	0.17
344.335	0.17
344.796	0.17
345.258	0.17
345.719	0.17
346.181	0.17
346.643	0.16
347.104	0.16
347.566	0.16
348.027	0.16
348.488	0.16
348.95	0.16
349.411	0.16
349.873	0.16
350.334	0.16
350.795	0.16
351.256	0.16
351.718	0.15
352.179	0.15
352.64	0.15
353.101	0.15
353.562	0.15
354.023	0.15
354.484	0.15
354.945	0.15
355.406	0.14
355.867	0.14
356.328	0.14
356.789	0.14
357.25	0.14
357.711	0.14
358.172	0.14
358.633	0.14
359.093	0.14
359.554	0.15
360.015	0.15
360.476	0.15
360.936	0.15
361.397	0.15
361.858	0.15
362.318	0.15
362.779	0.15
363.239	0.15
363.7	0.15
364.16	0.15
364.621	0.15
365.081	0.15
365.541	0.15
366.002	0.15
366.462	0.15
366.922	0.15
367.383	0.15
367.843	0.14
368.303	0.14
368.763	0.14
369.223	0.14
369.684	0.14
370.144	0.14
370.604	0.14
371.064	0.14
371.524	0.14
371.984	0.14
372.444	0.14
372.904	0.14
373.363	0.14
373.823	0.14
374.283	0.14
374.743	0.14
375.203	0.14
375.663	0.14
376.122	0.14
376.582	0.14
377.042	0.14
377.501	0.14
377.961	0.14
378.42	0.14
378.88	0.14
379.34	0.14
379.799	0.14
380.259	0.14
380.718	0.14
381.177	0.14
381.637	0.14
382.096	0.14
382.555	0.14
383.015	0.14
383.474	0.14
383.933	0.14
384.393	0.14
384.852	0.14
385.311	0.14
385.77	0.14
386.229	0.14
386.688	0.14
387.147	0.14
387.606	0.14
388.065	0.14
388.524	0.14
388.983	0.14
389.442	0.14
389.901	0.14
390.36	0.14
390.819	0.14
391.277	0.14
391.736	0.14
392.195	0.14
392.654	0.14
393.112	0.14
393.571	0.14
394.03	0.14
394.488	0.14
394.947	0.14
395.405	0.14
395.864	0.14
396.322	0.14
396.781	0.14
397.239	0.14
397.698	0.14
398.156	0.14
398.614	0.14
399.073	0.14
399.531	0.14
399.989	0.14
400.447	0.14
400.905	0.14
401.364	0.14
401.822	0.13
402.28	0.13
402.738	0.13
403.196	0.13
403.654	0.13
404.112	0.13
404.57	0.13
405.028	0.13
405.486	0.13
405.944	0.13
406.402	0.13
406.859	0.13
407.317	0.13
407.775	0.13
408.233	0.13
408.691	0.13
409.148	0.13
409.606	0.13
410.064	0.13
410.521	0.13
410.979	0.13
411.436	0.13
411.894	0.13
412.351	0.13
412.809	0.13
413.266	0.13
413.724	0.13
414.181	0.12
414.638	0.12
415.096	0.12
415.553	0.12
416.01	0.12
416.467	0.12
416.925	0.12
417.382	0.12
417.839	0.12
418.296	0.12
418.753	0.12
419.21	0.12
419.667	0.12
420.124	0.13
420.581	0.13
421.038	0.13
421.495	0.13
421.952	0.13
422.409	0.13
422.866	0.13
423.322	0.13
423.779	0.13
424.236	0.13
424.693	0.13
425.149	0.12
425.606	0.12
426.063	0.12
426.519	0.12
426.976	0.12
427.433	0.12
427.889	0.12
428.346	0.12
428.802	0.12
429.258	0.13
429.715	0.13
430.171	0.13
430.628	0.12
431.084	0.12
431.54	0.12
431.997	0.12
432.453	0.12
432.909	0.12
433.365	0.12
433.821	0.12
434.277	0.12
434.734	0.12
435.19	0.12
435.646	0.12
436.102	0.12
436.558	0.12
437.014	0.12
437.47	0.12
437.925	0.12
438.381	0.12
438.837	0.12
439.293	0.12
439.749	0.12
440.205	0.12
440.66	0.12
441.116	0.12
441.572	0.12
442.027	0.12
442.483	0.12
442.939	0.12
443.394	0.12
443.85	0.12
444.305	0.12
444.761	0.12
445.216	0.12
445.672	0.12
446.127	0.12
446.582	0.12
447.038	0.12
447.493	0.12
447.948	0.12
448.403	0.12
448.859	0.12
449.314	0.12
449.769	0.12
450.224	0.12
450.679	0.12
451.134	0.12
451.589	0.11
452.044	0.11
452.499	0.11
452.954	0.11
453.409	0.11
453.864	0.11
454.319	0.11
454.774	0.11
455.229	0.11
455.684	0.11
456.138	0.11
456.593	0.11
457.048	0.11
457.503	0.11
457.957	0.11
458.412	0.11
458.866	0.11
459.321	0.11
459.776	0.11
460.23	0.11
460.685	0.11
461.139	0.1
461.593	0.1
462.048	0.1
462.502	0.1
462.957	0.1
463.411	0.1
463.865	0.1
464.319	0.11
464.774	0.11
465.228	0.11
465.682	0.11
466.136	0.1
466.59	0.1
467.044	0.1
467.499	0.1
467.953	0.1
468.407	0.1
468.861	0.1
469.315	0.09
469.768	0.09
470.222	0.09
470.676	0.09
471.13	0.09
471.584	0.09
472.038	0.09
472.491	0.09
472.945	0.09
473.399	0.09
473.852	0.09
474.306	0.09
474.76	0.1
475.213	0.1
475.667	0.1
476.12	0.1
476.574	0.1
477.027	0.1
477.481	0.1
477.934	0.1
478.388	0.1
478.841	0.1
479.294	0.1
479.748	0.1
480.201	0.1
480.654	0.1
481.107	0.1
481.561	0.1
482.014	0.1
482.467	0.1
482.92	0.11
483.373	0.11
483.826	0.11
484.279	0.12
484.732	0.12
485.185	0.12
485.638	0.12
486.091	0.12
486.544	0.12
486.997	0.12
487.449	0.12
487.902	0.12
488.355	0.12
488.808	0.12
489.26	0.11
489.713	0.11
490.166	0.11
490.618	0.11
491.071	0.11
491.523	0.11
491.976	0.11
492.429	0.11
492.881	0.11
493.333	0.11
493.786	0.11
494.238	0.11
494.691	0.11
495.143	0.11
495.595	0.11
496.048	0.11
496.5	0.12
496.952	0.12
497.404	0.12
497.856	0.12
498.309	0.12
498.761	0.12
499.213	0.12
499.665	0.12
500.117	0.12
500.569	0.12
501.021	0.12
501.473	0.12
501.925	0.12
502.377	0.12
502.828	0.12
503.28	0.12
503.732	0.13
504.184	0.13
504.636	0.13
505.087	0.13
505.539	0.13
505.991	0.13
506.442	0.12
506.894	0.12
507.345	0.12
507.797	0.12
508.249	0.12
508.7	0.12
509.151	0.12
509.603	0.12
510.054	0.12
510.506	0.12
510.957	0.12
511.408	0.12
511.86	0.12
512.311	0.12
512.762	0.12
513.213	0.12
513.665	0.12
514.116	0.11
514.567	0.11
515.018	0.11
515.469	0.11
515.92	0.11
516.371	0.11
516.822	0.11
517.273	0.11
517.724	0.11
518.175	0.11
518.626	0.11
519.076	0.11
519.527	0.11
519.978	0.1
520.429	0.1
520.88	0.1
521.33	0.1
521.781	0.09
522.232	0.09
522.682	0.09
523.133	0.08
523.583	0.08
524.034	0.08
524.484	0.08
524.935	0.08
525.385	0.08
525.836	0.08
526.286	0.09
526.736	0.09
527.187	0.1
527.637	0.1
528.087	0.1
528.538	0.11
528.988	0.11
529.438	0.11
529.888	0.11
530.338	0.12
530.788	0.12
531.238	0.12
531.688	0.12
532.139	0.12
532.589	0.12
533.038	0.12
533.488	0.12
533.938	0.12
534.388	0.12
534.838	0.12
535.288	0.12
535.738	0.12
536.187	0.13
536.637	0.13
537.087	0.13
537.537	0.13
537.986	0.13
538.436	0.13
538.885	0.13
539.335	0.13
539.785	0.13
540.234	0.13
540.684	0.13
541.133	0.13
541.582	0.12
542.032	0.12
542.481	0.12
542.931	0.12
543.38	0.12
543.829	0.12
544.278	0.12
544.728	0.12
545.177	0.12
545.626	0.12
546.075	0.12
546.524	0.12
546.973	0.12
547.422	0.12
547.871	0.12
548.32	0.11
548.769	0.11
549.218	0.11
549.667	0.11
550.116	0.11
550.565	0.11
551.014	0.1
551.463	0.1
551.911	0.1
552.36	0.1
552.809	0.1
553.258	0.1
553.706	0.1
554.155	0.1
554.603	0.1
555.052	0.1
555.501	0.09
555.949	0.09
556.398	0.09
556.846	0.09
557.294	0.08
557.743	0.08
558.191	0.08
558.64	0.08
559.088	0.08
559.536	0.08
559.985	0.08
560.433	0.08
560.881	0.08
561.329	0.08
561.777	0.08
562.225	0.08
562.674	0.08
563.122	0.08
563.57	0.08
564.018	0.08
564.466	0.07
564.914	0.07
565.362	0.07
565.809	0.07
566.257	0.07
566.705	0.07
567.153	0.07
567.601	0.08
568.048	0.08
568.496	0.08
568.944	0.09
569.392	0.09
569.839	0.1
570.287	0.1
570.734	0.1
571.182	0.1
571.63	0.1
572.077	0.11
572.525	0.11
572.972	0.11
573.419	0.11
573.867	0.11
574.314	0.11
574.761	0.11
575.209	0.11
575.656	0.11
576.103	0.11
576.551	0.11
576.998	0.11
577.445	0.11
577.892	0.11
578.339	0.11
578.786	0.11
579.233	0.11
579.68	0.11
580.127	0.11
580.574	0.11
581.021	0.11
581.468	0.11
581.915	0.11
582.362	0.11
582.809	0.11
583.255	0.11
583.702	0.11
584.149	0.1
584.596	0.1
585.042	0.1
585.489	0.1
585.936	0.1
586.382	0.1
586.829	0.1
587.275	0.1
587.722	0.09
588.168	0.09
588.615	0.09
589.061	0.08
589.508	0.08
589.954	0.08
590.4	0.08
590.847	0.08
591.293	0.08
591.739	0.08
592.185	0.08
592.632	0.08
593.078	0.08
593.524	0.08
593.97	0.08
594.416	0.08
594.862	0.08
595.308	0.08
595.754	0.08
596.2	0.07
596.646	0.07
597.092	0.08
597.538	0.08
597.984	0.08
598.43	0.08
598.876	0.08
599.321	0.08
599.767	0.08
600.213	0.08
600.659	0.08
601.104	0.08
601.55	0.08
601.995	0.08
602.441	0.08
602.887	0.07
603.332	0.07
603.778	0.07
604.223	0.07
604.668	0.08
605.114	0.08
605.559	0.08
606.005	0.08
606.45	0.08
606.895	0.08
607.341	0.08
607.786	0.08
608.231	0.08
608.676	0.08
609.121	0.08
609.566	0.08
610.012	0.07
610.457	0.07
610.902	0.07
611.347	0.07
611.792	0.07
612.237	0.07
612.682	0.08
613.127	0.08
613.571	0.08
614.016	0.08
614.461	0.08
614.906	0.07
615.351	0.07
615.795	0.07
616.24	0.07
616.685	0.07
617.129	0.07
617.574	0.07
618.019	0.06
618.463	0.06
618.908	0.06
619.352	0.06
619.797	0.06
620.241	0.06
620.686	0.06
621.13	0.06
621.574	0.06
622.019	0.07
622.463	0.07
622.907	0.07
623.352	0.07
623.796	0.07
624.24	0.07
624.684	0.07
625.128	0.07
625.572	0.07
626.016	0.07
626.461	0.07
626.905	0.07
627.349	0.07
627.793	0.07
628.236	0.07
628.68	0.07
629.124	0.07
629.568	0.07
630.012	0.06
630.456	0.06
630.9	0.06
631.343	0.06
631.787	0.06
632.231	0.06
632.674	0.06
633.118	0.06
633.562	0.06
634.005	0.06
634.449	0.06
634.892	0.07
635.336	0.07
635.779	0.07
636.223	0.07
636.666	0.07
637.109	0.07
637.553	0.07
637.996	0.07
638.439	0.08
638.883	0.08
639.326	0.08
639.769	0.08
640.212	0.08
640.655	0.08
641.099	0.08
641.542	0.08
641.985	0.08
642.428	0.08
642.871	0.09
643.314	0.09
643.757	0.09
644.2	0.09
644.643	0.09
645.085	0.1
645.528	0.1
645.971	0.1
646.414	0.11
646.857	0.11
647.299	0.11
647.742	0.12
648.185	0.12
648.627	0.12
649.07	0.12
649.513	0.13
649.955	0.13
650.398	0.13
650.84	0.13
651.283	0.13
651.725	0.13
652.168	0.13
652.61	0.14
653.052	0.14
653.495	0.14
653.937	0.12
654.379	0.1
654.821	0.11
655.264	0.11
655.706	0.11
656.148	0.11
656.59	0.12
657.032	0.12
657.474	0.12
657.916	0.12
658.358	0.12
658.8	0.14
659.242	0.17
659.684	0.17
660.126	0.17
660.568	0.17
661.01	0.17
661.452	0.17
661.894	0.17
662.335	0.18
662.777	0.18
663.219	0.18
663.661	0.19
664.102	0.19
664.544	0.19
664.985	0.19
665.427	0.19
665.869	0.2
666.31	0.2
666.752	0.2
667.193	0.2
667.634	0.2
668.076	0.21
668.517	0.21
668.959	0.21
669.4	0.21
669.841	0.22
670.282	0.22
670.724	0.23
671.165	0.23
671.606	0.23
672.047	0.23
672.488	0.23
672.929	0.23
673.37	0.23
673.811	0.23
674.252	0.23
674.693	0.23
675.134	0.23
675.575	0.23
676.016	0.23
676.457	0.23
676.898	0.24
677.339	0.24
677.78	0.24
678.22	0.24
678.661	0.25
679.102	0.25
679.542	0.25
679.983	0.25
680.424	0.25
680.864	0.25
681.305	0.25
681.745	0.25
682.186	0.25
682.626	0.26
683.067	0.26
683.507	0.26
683.948	0.26
684.388	0.26
684.828	0.26
685.269	0.27
685.709	0.27
686.149	0.27
686.589	0.27
687.029	0.27
687.47	0.27
687.91	0.27
688.35	0.27
688.79	0.27
689.23	0.27
689.67	0.27
690.11	0.27
690.55	0.27
690.99	0.27
691.43	0.27
691.87	0.27
692.31	0.27
692.749	0.27
693.189	0.27
693.629	0.27
694.069	0.27
694.508	0.27
694.948	0.27
695.388	0.27
695.827	0.27
696.267	0.27
696.706	0.27
697.146	0.27
697.586	0.27
698.025	0.27
698.464	0.27
698.904	0.26
699.343	0.26
699.783	0.26
700.222	0.26
700.661	0.26
701.101	0.26
701.54	0.26
701.979	0.26
702.418	0.26
702.857	0.25
703.297	0.25
703.736	0.25
704.175	0.25
704.614	0.25
705.053	0.25
705.492	0.25
705.931	0.25
706.37	0.25
706.809	0.25
707.248	0.25
707.687	0.25
708.125	0.24
708.564	0.24
709.003	0.24
709.442	0.24
709.88	0.24
710.319	0.23
710.758	0.23
711.196	0.23
711.635	0.23
712.074	0.22
712.512	0.22
712.951	0.22
713.389	0.22
713.828	0.22
714.266	0.22
714.705	0.22
715.143	0.21
715.581	0.21
716.02	0.21
716.458	0.21
716.896	0.2
717.334	0.2
717.773	0.2
718.211	0.19
718.649	0.19
719.087	0.19
719.525	0.19
719.963	0.19
720.401	0.19
720.839	0.18
721.277	0.18
721.715	0.18
722.153	0.18
722.591	0.17
723.029	0.17
723.467	0.17
723.905	0.17
724.342	0.17
724.78	0.17
725.218	0.17
725.656	0.16
726.093	0.16
726.531	0.16
726.969	0.16
727.406	0.16
727.844	0.16
728.281	0.16
728.719	0.16
729.156	0.15
729.594	0.15
730.031	0.15
730.469	0.15
730.906	0.15
731.343	0.15
731.781	0.15
732.218	0.14
732.655	0.14
733.092	0.14
733.53	0.14
733.967	0.14
734.404	0.13
734.841	0.13
735.278	0.13
735.715	0.12
736.152	0.12
736.589	0.12
737.026	0.12
737.463	0.12
737.9	0.11
738.337	0.11
738.774	0.11
739.211	0.11
739.647	0.1
740.084	0.1
740.521	0.1
740.958	0.09
741.394	0.09
741.831	0.08
742.268	0.08
742.704	0.07
743.141	0.07
743.577	0.07
744.014	0.07
744.45	0.06
744.887	0.06
745.323	0.06
745.76	0.06
746.196	0.06
746.632	0.06
747.069	0.06
747.505	0.06
747.941	0.06
748.378	0.06
748.814	0.06
749.25	0.06
749.686	0.06
750.122	0.06
750.558	0.06
750.994	0.06
751.43	0.06
751.866	0.06
752.302	0.06
752.738	0.06
753.174	0.06
753.61	0.06
754.046	0.05
754.482	0.05
754.918	0.06
755.354	0.06
755.789	0.06
756.225	0.06
756.661	0.06
757.096	0.06
757.532	0.06
757.968	0.06
758.403	0.06
758.839	0.05
759.274	0.05
759.71	0.05
760.145	0.05
760.581	0.04
761.016	0.04
761.452	0.04
761.887	0.04
762.322	0.03
762.758	0.03
763.193	0.03
763.628	0.03
764.063	0.02
764.499	0.02
764.934	0.02
765.369	0.02
765.804	0.01
766.239	0.01
766.674	0.01
767.109	0.01
767.544	0.01
767.979	0
768.414	0
768.849	-0
769.284	-0
769.719	-0
770.154	-0.01
770.588	-0.01
771.023	-0.01
771.458	-0.02
771.893	-0.02
772.327	-0.02
772.762	-0.03
773.197	-0.03
773.631	-0.03
774.066	-0.04
774.5	-0.04
774.935	-0.05
775.369	-0.05
775.804	-0.06
776.238	-0.06
776.673	-0.07
777.107	-0.07
777.541	-0.07
777.976	-0.07
778.41	-0.08
778.844	-0.08
779.279	-0.07
779.713	-0.07
780.147	-0.07
780.581	-0.07
781.015	-0.06
781.449	-0.06
781.883	-0.06
782.317	-0.06
782.751	-0.06
783.185	-0.06
783.619	-0.06
784.053	-0.06
784.487	-0.07
784.921	-0.07
785.355	-0.07
785.789	-0.07
786.223	-0.07
786.656	-0.06
787.09	-0.06
787.524	-0.06
787.957	-0.06
788.391	-0.06
788.825	-0.06
789.258	-0.06
789.692	-0.06
790.125	-0.06
790.559	-0.06
790.992	-0.06
791.426	-0.06
791.859	-0.06
792.293	-0.05
792.726	-0.04
793.159	-0.04
793.593	-0.04
794.026	-0.04
794.459	-0.04
794.892	-0.05
795.326	-0.05
795.759	-0.05
796.192	-0.05
796.625	-0.06
797.058	-0.07
797.491	-0.07
797.924	-0.08
798.357	-0.08
798.79	-0.08
799.223	-0.08
799.656	-0.08
800.089	-0.08
800.522	-0.08
800.955	-0.08
801.387	-0.08
801.82	-0.08
802.253	-0.08
802.686	-0.08
803.118	-0.08
803.551	-0.08
803.984	-0.08
804.416	-0.07
804.849	-0.07
805.281	-0.07
805.714	-0.07
806.146	-0.07
806.579	-0.07
807.011	-0.07
807.444	-0.07
807.876	-0.07
808.308	-0.07
808.741	-0.07
809.173	-0.08
809.605	-0.08
810.037	-0.08
810.47	-0.08
810.902	-0.09
811.334	-0.09
811.766	-0.08
812.198	-0.08
812.63	-0.08
813.062	-0.08
813.494	-0.08
813.926	-0.08
814.358	-0.08
814.79	-0.07
815.222	-0.07
815.654	-0.07
816.086	-0.07
816.518	-0.07
816.949	-0.08
817.381	-0.08
817.813	-0.08
818.245	-0.07
818.676	-0.07
819.108	-0.07
819.54	-0.07
819.971	-0.07
820.403	-0.07
820.834	-0.07
821.266	-0.07
821.697	-0.07
822.129	-0.07
822.56	-0.07
822.991	-0.07
823.423	-0.08
823.854	-0.08
824.286	-0.08
824.717	-0.08
825.148	-0.07
825.579	-0.06
826.01	-0.06
826.442	-0.06
826.873	-0.05
827.304	-0.04
827.735	-0.04
828.166	-0.03
828.597	-0.03
829.028	-0.02
829.459	-0.02
829.89	-0.01
830.321	-0.01
830.752	-0.01
831.183	-0
831.613	0
832.044	0
832.475	0
832.906	0.01
833.336	0.01
833.767	0.01
834.198	0.01
834.628	0.02
835.059	0.02
835.49	0.02
835.92	0.02
836.351	0.02
836.781	0.02
837.212	0.02
837.642	0.02
838.072	0.02
838.503	0.03
838.933	0.03
839.364	0.03
839.794	0.03
840.224	0.03
840.654	0.03
841.085	0.03
841.515	0.03
841.945	0.04
842.375	0.04
842.805	0.04
843.235	0.04
843.665	0.04
844.095	0.04
844.525	0.04
844.955	0.04
845.385	0.04
845.815	0.05
846.245	0.05
846.675	0.05
847.105	0.05
847.534	0.05
847.964	0.05
848.394	0.05
848.824	0.05
849.253	0.06
849.683	0.06
850.112	0.06
850.542	0.06
850.972	0.06
851.401	0.06
851.831	0.06
852.26	0.06
852.69	0.06
853.119	0.06
853.548	0.06
853.978	0.06
854.407	0.06
854.836	0.06
855.266	0.07
855.695	0.07
856.124	0.07
856.553	0.07
856.983	0.07
857.412	0.07
857.841	0.07
858.27	0.07
858.699	0.07
859.128	0.07
859.557	0.07
859.986	0.07
860.415	0.07
860.844	0.07
861.273	0.07
861.702	0.07
862.13	0.07
862.559	0.08
862.988	0.08
863.417	0.08
863.845	0.08
864.274	0.08
864.703	0.08
865.131	0.08
865.56	0.08
865.989	0.08
866.417	0.08
866.846	0.08
867.274	0.08
867.703	0.09
868.131	0.09
868.559	0.09
868.988	0.09
869.416	0.09
869.844	0.09
870.273	0.09
870.701	0.09
871.129	0.09
871.557	0.09
871.986	0.09
872.414	0.09
872.842	0.09
873.27	0.09
873.698	0.09
874.126	0.09
874.554	0.09
874.982	0.09
875.41	0.09
875.838	0.09
876.266	0.09
876.694	0.09
877.122	0.09
877.549	0.09
877.977	0.09
878.405	0.09
878.833	0.09
879.26	0.09
879.688	0.09
880.116	0.09
880.543	0.09
880.971	0.09
881.399	0.09
881.826	0.09
882.254	0.09
882.681	0.09
883.109	0.09
883.536	0.09
883.963	0.09
884.391	0.09
884.818	0.09
885.245	0.09
885.673	0.09
886.1	0.09
886.527	0.09
886.954	0.09
887.381	0.09
887.809	0.09
888.236	0.09
888.663	0.09
889.09	0.09
889.517	0.09
889.944	0.09
890.371	0.09
890.798	0.09
891.225	0.09
891.652	0.09
892.078	0.09
892.505	0.09
892.932	0.09
893.359	0.09
893.786	0.09
894.212	0.09
894.639	0.09
895.066	0.09
895.492	0.09
895.919	0.09
896.346	0.09
896.772	0.09
897.199	0.09
897.625	0.09
898.052	0.09
898.478	0.09
898.904	0.09
899.331	0.09
899.757	0.09
900.183	0.09
900.61	0.09
901.036	0.09
901.462	0.09
901.888	0.09
902.315	0.09
902.741	0.09
903.167	0.09
903.593	0.09
904.019	0.09
904.445	0.09
904.871	0.09
905.297	0.09
905.723	0.09
906.149	0.09
906.575	0.09
907.001	0.09
907.427	0.09
907.852	0.09
908.278	0.09
908.704	0.09
909.13	0.09
909.555	0.09
909.981	0.09
910.407	0.09
910.832	0.09
911.258	0.1
911.684	0.1
912.109	0.1
912.535	0.1
912.96	0.1
913.386	0.1
913.811	0.1
914.236	0.1
914.662	0.1
915.087	0.09
915.512	0.09
915.938	0.09
916.363	0.09
916.788	0.09
917.213	0.09
917.639	0.09
918.064	0.1
918.489	0.1
918.914	0.1
919.339	0.1
919.764	0.1
920.189	0.1
920.614	0.1
921.039	0.1
921.464	0.1
921.889	0.1
922.314	0.1
922.738	0.1
923.163	0.1
923.588	0.1
924.013	0.1
924.437	0.1
924.862	0.1
925.287	0.1
925.711	0.1
926.136	0.1
926.561	0.1
926.985	0.1
927.41	0.1
927.834	0.1
928.259	0.1
928.683	0.1
929.108	0.1
929.532	0.1
929.956	0.1
930.381	0.11
930.805	0.11
931.229	0.11
931.653	0.11
932.078	0.11
932.502	0.11
932.926	0.11
933.35	0.11
933.774	0.11
934.198	0.11
934.622	0.11
935.046	0.11
935.47	0.11
935.894	0.11
936.318	0.11
936.742	0.11
937.166	0.11
937.59	0.11
938.014	0.11
938.437	0.11
938.861	0.11
939.285	0.11
939.709	0.11
940.132	0.11
940.556	0.11
940.98	0.11
941.403	0.12
941.827	0.12
942.25	0.12
942.674	0.12
943.097	0.12
943.521	0.12
943.944	0.12
944.368	0.12
944.791	0.12
945.214	0.12
945.638	0.12
946.061	0.12
946.484	0.12
946.907	0.12
947.331	0.12
947.754	0.12
948.177	0.12
948.6	0.12
949.023	0.12
949.446	0.12
949.869	0.11
950.292	0.11
950.715	0.11
951.138	0.11
951.561	0.11
951.984	0.11
952.407	0.11
952.83	0.11
953.252	0.11
953.675	0.11
954.098	0.11
954.521	0.11
954.943	0.11
955.366	0.11
955.789	0.11
956.211	0.11
956.634	0.11
957.056	0.11
957.479	0.11
957.902	0.11
958.324	0.11
958.746	0.11
959.169	0.11
959.591	0.11
960.014	0.11
960.436	0.11
960.858	0.11
961.281	0.11
961.703	0.11
962.125	0.11
962.547	0.11
962.969	0.11
963.391	0.11
963.814	0.11
964.236	0.1
964.658	0.1
965.08	0.1
965.502	0.1
965.924	0.1
966.346	0.1
966.768	0.1
967.189	0.1
967.611	0.11
968.033	0.11
968.455	0.11
968.877	0.11
969.298	0.11
969.72	0.11
970.142	0.11
970.563	0.11
970.985	0.11
971.407	0.11
971.828	0.11
972.25	0.11
972.671	0.11
973.093	0.11
973.514	0.11
973.936	0.11
974.357	0.11
974.778	0.11
975.2	0.11
975.621	0.11
976.042	0.11
976.464	0.11
976.885	0.11
977.306	0.11
977.727	0.11
978.148	0.11
978.57	0.11
978.991	0.11
979.412	0.11
979.833	0.11
980.254	0.11
980.675	0.11
981.096	0.11
981.517	0.11
981.937	0.11
982.358	0.11
982.779	0.11
983.2	0.11
983.621	0.11
984.042	0.11
984.462	0.11
984.883	0.11
985.304	0.11
985.724	0.11
986.145	0.11
986.565	0.11
986.986	0.11
987.407	0.11
987.827	0.11
988.248	0.11
988.668	0.11
989.088	0.11
989.509	0.11
989.929	0.11
990.35	0.12
990.77	0.12
991.19	0.12
991.61	0.12
992.031	0.12
992.451	0.12
992.871	0.12
993.291	0.12
993.711	0.12
994.131	0.12
994.551	0.12
994.971	0.12
995.391	0.11
995.811	0.11
996.231	0.11
996.651	0.12
997.071	0.12
997.491	0.12
997.911	0.12
998.331	0.12
998.75	0.12
999.17	0.12
999.59	0.12
1000.009	0.12
1000.429	0.12
1000.849	0.12
1001.268	0.12
1001.688	0.12
1002.107	0.12
1002.527	0.12
1002.946	0.12
1003.366	0.12
1003.785	0.12
1004.205	0.11
1004.624	0.11
1005.044	0.11
1005.463	0.11
1005.882	0.11
1006.301	0.11
1006.721	0.11
1007.14	0.11
1007.559	0.11
1007.978	0.11
1008.397	0.11
1008.816	0.11
1009.235	0.11
1009.655	0.11
1010.074	0.11
1010.492	0.11
1010.911	0.11
1011.33	0.12
1011.749	0.12
1012.168	0.12
1012.587	0.12
1013.006	0.12
1013.425	0.12
1013.843	0.12
1014.262	0.12
1014.681	0.12
1015.099	0.12
1015.518	0.12
1015.937	0.12
1016.355	0.12
1016.774	0.12
1017.192	0.12
1017.611	0.12
1018.029	0.12
1018.448	0.12
1018.866	0.12
1019.285	0.12
1019.703	0.13
1020.121	0.13
1020.54	0.13
1020.958	0.13
1021.376	0.13
1021.794	0.13
1022.213	0.13
1022.631	0.13
1023.049	0.13
1023.467	0.13
1023.885	0.13
1024.303	0.13
1024.721	0.13
1025.139	0.13
1025.557	0.13
1025.975	0.13
1026.393	0.13
1026.811	0.13
1027.229	0.13
1027.647	0.13
1028.065	0.13
1028.482	0.13
1028.9	0.13
1029.318	0.13
1029.735	0.13
1030.153	0.13
1030.571	0.13
1030.988	0.13
1031.406	0.13
1031.823	0.13
1032.241	0.13
1032.659	0.13
1033.076	0.14
1033.493	0.14
1033.911	0.14
1034.328	0.14
1034.746	0.14
1035.163	0.14
1035.58	0.14
1035.997	0.14
1036.415	0.14
1036.832	0.14
1037.249	0.14
1037.666	0.15
1038.083	0.15
1038.501	0.15
1038.918	0.15
1039.335	0.15
1039.752	0.15
1040.169	0.15
1040.586	0.15
1041.003	0.15
1041.419	0.15
1041.836	0.15
1042.253	0.16
1042.67	0.16
1043.087	0.16
1043.504	0.16
1043.92	0.16
1044.337	0.16
1044.754	0.16
1045.17	0.16
1045.587	0.17
1046.004	0.17
1046.42	0.17
1046.837	0.17
1047.253	0.17
1047.67	0.17
1048.086	0.17
1048.503	0.17
1048.919	0.17
1049.335	0.17
1049.752	0.18
1050.168	0.18
1050.584	0.18
1051.001	0.18
1051.417	0.18
1051.833	0.18
1052.249	0.18
1052.665	0.19
1053.081	0.19
1053.497	0.19
1053.914	0.19
1054.33	0.19
1054.746	0.19
1055.162	0.2
1055.578	0.2
1055.993	0.2
1056.409	0.2
1056.825	0.2
1057.241	0.2
1057.657	0.2
1058.073	0.21
1058.488	0.21
1058.904	0.21
1059.32	0.22
1059.736	0.22
1060.151	0.22
1060.567	0.22
1060.982	0.23
1061.398	0.23
1061.813	0.23
1062.229	0.23
1062.644	0.23
1063.06	0.23
1063.475	0.24
1063.891	0.24
1064.306	0.24
1064.721	0.24
1065.137	0.25
1065.552	0.25
1065.967	0.25
1066.382	0.26
1066.798	0.26
1067.213	0.26
1067.628	0.27
1068.043	0.27
1068.458	0.27
1068.873	0.27
1069.288	0.28
1069.703	0.28
1070.118	0.28
1070.533	0.29
1070.948	0.29
1071.363	0.29
1071.778	0.3
1072.193	0.3
1072.607	0.31
1073.022	0.32
1073.437	0.32
1073.852	0.32
1074.266	0.33
1074.681	0.33
1075.096	0.34
1075.51	0.35
1075.925	0.35
1076.339	0.36
1076.754	0.37
1077.168	0.37
1077.583	0.38
1077.997	0.39
1078.412	0.4
1078.826	0.41
1079.24	0.41
1079.655	0.42
1080.069	0.43
1080.483	0.43
1080.897	0.44
1081.312	0.45
1081.726	0.45
1082.14	0.46
1082.554	0.47
1082.968	0.48
1083.382	0.5
1083.796	0.51
1084.21	0.53
1084.624	0.54
1085.038	0.56
1085.452	0.58
1085.866	0.59
1086.28	0.61
1086.694	0.63
1087.108	0.65
1087.521	0.68
1087.935	0.71
1088.349	0.74
1088.763	0.78
1089.176	0.83
1089.59	0.89
1090.004	0.96
1090.417	1.05
1090.831	1.18
1091.244	1.38
1091.658	1.74
1092.071	-0
1092.485	-0
1092.898	-0
1093.312	-0
1093.725	-0
1094.138	-0
1094.552	-0
1094.965	-0
1095.378	-0
1095.791	-0
1096.205	-0
1096.618	-0
1097.031	-0
1097.444	-0
1097.857	-0
1098.27	-0
1098.683	-0
1099.096	-0
1099.509	-0
1099.922	-0
1100.335	-0
1100.748	-0
1101.161	-0
1101.574	-0
1101.986	-0
1102.399	-0
1102.812	-0
1103.225	-0
1103.637	-0
1104.05	-0
1104.463	-0
1104.875	-0
1105.288	-0
1105.7	-0
1106.113	-0
1106.525	-0
1106.938	-0
1107.35	-0
1107.763	-0
1108.175	-0
1108.588	-0
1109	-0
1109.412	-0
1109.824	-0
1110.237	-0
1110.649	-0
1111.061	-0
