Data from 2024-02-06-100ns-20nr-25nacl-100h2o-7bp2-1_5a808-40to10hyt-0_5cpm_Absorbance__124__00251.txt Node

Date: Tue Feb 06 13:09:51 CET 2024
User: Laser008
Spectrometer: MAYP115816
Trigger mode: 0
Integration Time (sec): 2.000000E-1
Scans to average: 10
Electric dark correction enabled: true
Nonlinearity correction enabled: true
Boxcar width: 5
XAxis mode: Wavelengths
Number of Pixels in Spectrum: 2068
>>>>>Begin Spectral Data<<<<<
198.914	-0.36
199.384	-0.32
199.855	-0.25
200.325	-0.21
200.796	-0.18
201.266	-0.17
201.737	-0.15
202.207	-0.14
202.677	-0.14
203.147	-0.14
203.618	-0.12
204.088	-0.11
204.558	-0.1
205.028	-0.1
205.498	-0.1
205.968	-0.1
206.439	-0.1
206.909	-0.1
207.379	-0.1
207.849	-0.1
208.319	-0.1
208.789	-0.1
209.258	-0.1
209.728	-0.1
210.198	-0.1
210.668	-0.1
211.138	-0.1
211.608	-0.1
212.077	-0.1
212.547	-0.1
213.017	-0.1
213.486	-0.1
213.956	-0.1
214.426	-0.1
214.895	-0.1
215.365	-0.1
215.834	-0.1
216.304	-0.1
216.773	-0.1
217.243	-0.1
217.712	-0.1
218.181	-0.1
218.651	-0.09
219.12	-0.09
219.589	-0.09
220.058	-0.09
220.528	-0.09
220.997	-0.08
221.466	-0.08
221.935	-0.08
222.404	-0.07
222.873	-0.07
223.342	-0.06
223.812	-0.06
224.281	-0.05
224.749	-0.05
225.218	-0.04
225.687	-0.04
226.156	-0.03
226.625	-0.02
227.094	-0.01
227.563	-0
228.031	0.01
228.5	0.02
228.969	0.04
229.438	0.06
229.906	0.08
230.375	0.1
230.844	0.12
231.312	0.15
231.781	0.16
232.249	0.19
232.718	0.21
233.186	0.24
233.655	0.26
234.123	0.28
234.591	0.3
235.06	0.32
235.528	0.34
235.996	0.35
236.465	0.36
236.933	0.38
237.401	0.39
237.869	0.4
238.337	0.41
238.805	0.42
239.274	0.43
239.742	0.43
240.21	0.44
240.678	0.45
241.146	0.45
241.614	0.45
242.081	0.46
242.549	0.46
243.017	0.46
243.485	0.47
243.953	0.47
244.421	0.47
244.888	0.48
245.356	0.48
245.824	0.48
246.291	0.48
246.759	0.49
247.227	0.49
247.694	0.49
248.162	0.49
248.629	0.49
249.097	0.5
249.564	0.5
250.032	0.5
250.499	0.5
250.967	0.5
251.434	0.51
251.901	0.51
252.369	0.51
252.836	0.51
253.303	0.51
253.77	0.51
254.237	0.51
254.705	0.52
255.172	0.52
255.639	0.52
256.106	0.52
256.573	0.52
257.04	0.52
257.507	0.52
257.974	0.52
258.441	0.52
258.908	0.52
259.375	0.52
259.841	0.52
260.308	0.52
260.775	0.52
261.242	0.52
261.709	0.52
262.175	0.52
262.642	0.52
263.109	0.52
263.575	0.51
264.042	0.51
264.508	0.51
264.975	0.51
265.441	0.51
265.908	0.51
266.374	0.51
266.841	0.5
267.307	0.5
267.773	0.5
268.24	0.5
268.706	0.5
269.172	0.49
269.639	0.49
270.105	0.49
270.571	0.48
271.037	0.48
271.503	0.48
271.969	0.48
272.435	0.47
272.902	0.47
273.368	0.47
273.834	0.47
274.3	0.46
274.765	0.46
275.231	0.46
275.697	0.45
276.163	0.45
276.629	0.45
277.095	0.44
277.56	0.44
278.026	0.44
278.492	0.43
278.958	0.43
279.423	0.43
279.889	0.42
280.354	0.42
280.82	0.42
281.286	0.41
281.751	0.41
282.217	0.41
282.682	0.4
283.147	0.4
283.613	0.4
284.078	0.39
284.544	0.39
285.009	0.39
285.474	0.39
285.939	0.38
286.405	0.38
286.87	0.38
287.335	0.38
287.8	0.37
288.265	0.37
288.73	0.37
289.195	0.37
289.66	0.36
290.125	0.36
290.59	0.36
291.055	0.36
291.52	0.35
291.985	0.35
292.45	0.35
292.915	0.35
293.38	0.35
293.844	0.34
294.309	0.34
294.774	0.34
295.239	0.34
295.703	0.34
296.168	0.34
296.632	0.33
297.097	0.33
297.562	0.33
298.026	0.33
298.491	0.33
298.955	0.33
299.419	0.33
299.884	0.32
300.348	0.32
300.813	0.32
301.277	0.32
301.741	0.32
302.205	0.32
302.67	0.32
303.134	0.32
303.598	0.32
304.062	0.31
304.526	0.31
304.99	0.31
305.454	0.31
305.919	0.31
306.383	0.31
306.847	0.31
307.31	0.31
307.774	0.31
308.238	0.3
308.702	0.3
309.166	0.3
309.63	0.3
310.094	0.3
310.557	0.3
311.021	0.3
311.485	0.3
311.948	0.3
312.412	0.3
312.876	0.29
313.339	0.29
313.803	0.29
314.266	0.29
314.73	0.29
315.193	0.29
315.657	0.29
316.12	0.29
316.584	0.29
317.047	0.29
317.51	0.29
317.973	0.28
318.437	0.28
318.9	0.28
319.363	0.28
319.826	0.28
320.29	0.28
320.753	0.28
321.216	0.28
321.679	0.28
322.142	0.28
322.605	0.28
323.068	0.28
323.531	0.27
323.994	0.27
324.457	0.27
324.92	0.27
325.382	0.27
325.845	0.27
326.308	0.27
326.771	0.27
327.233	0.27
327.696	0.27
328.159	0.27
328.622	0.27
329.084	0.27
329.547	0.26
330.009	0.26
330.472	0.26
330.934	0.26
331.397	0.26
331.859	0.26
332.322	0.26
332.784	0.26
333.246	0.26
333.709	0.26
334.171	0.26
334.633	0.26
335.096	0.26
335.558	0.26
336.02	0.26
336.482	0.25
336.944	0.25
337.406	0.25
337.868	0.25
338.331	0.25
338.793	0.25
339.255	0.25
339.717	0.25
340.178	0.25
340.64	0.25
341.102	0.25
341.564	0.25
342.026	0.25
342.488	0.25
342.949	0.25
343.411	0.25
343.873	0.25
344.335	0.25
344.796	0.25
345.258	0.25
345.719	0.24
346.181	0.24
346.643	0.24
347.104	0.24
347.566	0.24
348.027	0.24
348.488	0.24
348.95	0.24
349.411	0.24
349.873	0.24
350.334	0.24
350.795	0.24
351.256	0.24
351.718	0.24
352.179	0.24
352.64	0.24
353.101	0.24
353.562	0.24
354.023	0.24
354.484	0.24
354.945	0.24
355.406	0.24
355.867	0.24
356.328	0.24
356.789	0.24
357.25	0.24
357.711	0.24
358.172	0.24
358.633	0.24
359.093	0.24
359.554	0.24
360.015	0.24
360.476	0.24
360.936	0.24
361.397	0.24
361.858	0.24
362.318	0.24
362.779	0.24
363.239	0.24
363.7	0.23
364.16	0.23
364.621	0.23
365.081	0.23
365.541	0.23
366.002	0.23
366.462	0.23
366.922	0.23
367.383	0.23
367.843	0.23
368.303	0.23
368.763	0.23
369.223	0.23
369.684	0.23
370.144	0.23
370.604	0.23
371.064	0.23
371.524	0.23
371.984	0.23
372.444	0.23
372.904	0.23
373.363	0.23
373.823	0.23
374.283	0.23
374.743	0.23
375.203	0.23
375.663	0.23
376.122	0.23
376.582	0.23
377.042	0.23
377.501	0.23
377.961	0.23
378.42	0.23
378.88	0.23
379.34	0.23
379.799	0.23
380.259	0.23
380.718	0.22
381.177	0.22
381.637	0.22
382.096	0.22
382.555	0.22
383.015	0.22
383.474	0.22
383.933	0.22
384.393	0.22
384.852	0.22
385.311	0.22
385.77	0.22
386.229	0.22
386.688	0.22
387.147	0.22
387.606	0.22
388.065	0.22
388.524	0.22
388.983	0.22
389.442	0.22
389.901	0.22
390.36	0.22
390.819	0.22
391.277	0.22
391.736	0.22
392.195	0.22
392.654	0.22
393.112	0.22
393.571	0.22
394.03	0.21
394.488	0.21
394.947	0.21
395.405	0.21
395.864	0.21
396.322	0.21
396.781	0.21
397.239	0.21
397.698	0.21
398.156	0.21
398.614	0.21
399.073	0.21
399.531	0.21
399.989	0.21
400.447	0.21
400.905	0.21
401.364	0.21
401.822	0.21
402.28	0.21
402.738	0.21
403.196	0.21
403.654	0.21
404.112	0.21
404.57	0.21
405.028	0.21
405.486	0.21
405.944	0.21
406.402	0.21
406.859	0.21
407.317	0.21
407.775	0.21
408.233	0.2
408.691	0.2
409.148	0.2
409.606	0.2
410.064	0.2
410.521	0.2
410.979	0.2
411.436	0.2
411.894	0.2
412.351	0.2
412.809	0.2
413.266	0.2
413.724	0.2
414.181	0.2
414.638	0.2
415.096	0.2
415.553	0.2
416.01	0.2
416.467	0.2
416.925	0.2
417.382	0.2
417.839	0.2
418.296	0.2
418.753	0.2
419.21	0.2
419.667	0.2
420.124	0.2
420.581	0.2
421.038	0.2
421.495	0.2
421.952	0.2
422.409	0.2
422.866	0.2
423.322	0.2
423.779	0.2
424.236	0.2
424.693	0.2
425.149	0.2
425.606	0.2
426.063	0.2
426.519	0.2
426.976	0.2
427.433	0.2
427.889	0.19
428.346	0.19
428.802	0.19
429.258	0.19
429.715	0.19
430.171	0.19
430.628	0.19
431.084	0.19
431.54	0.19
431.997	0.19
432.453	0.19
432.909	0.19
433.365	0.19
433.821	0.19
434.277	0.19
434.734	0.19
435.19	0.19
435.646	0.19
436.102	0.19
436.558	0.19
437.014	0.19
437.47	0.19
437.925	0.19
438.381	0.19
438.837	0.19
439.293	0.19
439.749	0.19
440.205	0.19
440.66	0.19
441.116	0.19
441.572	0.19
442.027	0.19
442.483	0.19
442.939	0.19
443.394	0.19
443.85	0.19
444.305	0.19
444.761	0.19
445.216	0.19
445.672	0.19
446.127	0.19
446.582	0.19
447.038	0.19
447.493	0.19
447.948	0.19
448.403	0.19
448.859	0.19
449.314	0.19
449.769	0.19
450.224	0.19
450.679	0.19
451.134	0.19
451.589	0.19
452.044	0.19
452.499	0.19
452.954	0.19
453.409	0.19
453.864	0.19
454.319	0.19
454.774	0.19
455.229	0.19
455.684	0.19
456.138	0.19
456.593	0.19
457.048	0.19
457.503	0.19
457.957	0.19
458.412	0.19
458.866	0.19
459.321	0.19
459.776	0.19
460.23	0.19
460.685	0.19
461.139	0.19
461.593	0.19
462.048	0.19
462.502	0.19
462.957	0.19
463.411	0.19
463.865	0.19
464.319	0.19
464.774	0.19
465.228	0.19
465.682	0.19
466.136	0.19
466.59	0.19
467.044	0.19
467.499	0.19
467.953	0.19
468.407	0.19
468.861	0.19
469.315	0.19
469.768	0.19
470.222	0.19
470.676	0.19
471.13	0.19
471.584	0.19
472.038	0.19
472.491	0.19
472.945	0.2
473.399	0.2
473.852	0.2
474.306	0.2
474.76	0.2
475.213	0.2
475.667	0.2
476.12	0.2
476.574	0.2
477.027	0.2
477.481	0.2
477.934	0.2
478.388	0.2
478.841	0.2
479.294	0.2
479.748	0.2
480.201	0.21
480.654	0.21
481.107	0.21
481.561	0.21
482.014	0.21
482.467	0.21
482.92	0.21
483.373	0.21
483.826	0.21
484.279	0.21
484.732	0.21
485.185	0.22
485.638	0.22
486.091	0.22
486.544	0.22
486.997	0.22
487.449	0.22
487.902	0.22
488.355	0.22
488.808	0.22
489.26	0.22
489.713	0.23
490.166	0.23
490.618	0.23
491.071	0.23
491.523	0.23
491.976	0.23
492.429	0.23
492.881	0.24
493.333	0.24
493.786	0.24
494.238	0.24
494.691	0.24
495.143	0.24
495.595	0.25
496.048	0.25
496.5	0.25
496.952	0.25
497.404	0.25
497.856	0.25
498.309	0.26
498.761	0.26
499.213	0.26
499.665	0.26
500.117	0.26
500.569	0.27
501.021	0.27
501.473	0.27
501.925	0.27
502.377	0.27
502.828	0.28
503.28	0.28
503.732	0.28
504.184	0.28
504.636	0.28
505.087	0.29
505.539	0.29
505.991	0.29
506.442	0.29
506.894	0.29
507.345	0.29
507.797	0.3
508.249	0.3
508.7	0.3
509.151	0.3
509.603	0.3
510.054	0.3
510.506	0.3
510.957	0.31
511.408	0.31
511.86	0.31
512.311	0.31
512.762	0.31
513.213	0.31
513.665	0.31
514.116	0.31
514.567	0.32
515.018	0.32
515.469	0.32
515.92	0.32
516.371	0.32
516.822	0.32
517.273	0.32
517.724	0.32
518.175	0.32
518.626	0.32
519.076	0.33
519.527	0.33
519.978	0.33
520.429	0.33
520.88	0.33
521.33	0.33
521.781	0.33
522.232	0.33
522.682	0.33
523.133	0.33
523.583	0.33
524.034	0.33
524.484	0.33
524.935	0.33
525.385	0.33
525.836	0.33
526.286	0.33
526.736	0.33
527.187	0.32
527.637	0.32
528.087	0.32
528.538	0.32
528.988	0.32
529.438	0.32
529.888	0.32
530.338	0.32
530.788	0.32
531.238	0.32
531.688	0.32
532.139	0.31
532.589	0.31
533.038	0.31
533.488	0.31
533.938	0.31
534.388	0.31
534.838	0.3
535.288	0.3
535.738	0.3
536.187	0.3
536.637	0.3
537.087	0.3
537.537	0.29
537.986	0.29
538.436	0.29
538.885	0.29
539.335	0.29
539.785	0.28
540.234	0.28
540.684	0.28
541.133	0.28
541.582	0.27
542.032	0.27
542.481	0.27
542.931	0.27
543.38	0.27
543.829	0.26
544.278	0.26
544.728	0.26
545.177	0.25
545.626	0.25
546.075	0.25
546.524	0.25
546.973	0.24
547.422	0.24
547.871	0.24
548.32	0.24
548.769	0.23
549.218	0.23
549.667	0.23
550.116	0.22
550.565	0.22
551.014	0.22
551.463	0.22
551.911	0.21
552.36	0.21
552.809	0.21
553.258	0.21
553.706	0.2
554.155	0.2
554.603	0.2
555.052	0.19
555.501	0.19
555.949	0.19
556.398	0.19
556.846	0.19
557.294	0.18
557.743	0.18
558.191	0.18
558.64	0.18
559.088	0.17
559.536	0.17
559.985	0.17
560.433	0.17
560.881	0.17
561.329	0.16
561.777	0.16
562.225	0.16
562.674	0.16
563.122	0.15
563.57	0.15
564.018	0.15
564.466	0.15
564.914	0.15
565.362	0.14
565.809	0.14
566.257	0.14
566.705	0.14
567.153	0.13
567.601	0.13
568.048	0.13
568.496	0.13
568.944	0.13
569.392	0.13
569.839	0.12
570.287	0.12
570.734	0.12
571.182	0.12
571.63	0.12
572.077	0.12
572.525	0.11
572.972	0.11
573.419	0.11
573.867	0.11
574.314	0.11
574.761	0.11
575.209	0.11
575.656	0.11
576.103	0.1
576.551	0.1
576.998	0.1
577.445	0.1
577.892	0.1
578.339	0.1
578.786	0.1
579.233	0.1
579.68	0.09
580.127	0.09
580.574	0.09
581.021	0.09
581.468	0.09
581.915	0.09
582.362	0.09
582.809	0.09
583.255	0.08
583.702	0.08
584.149	0.08
584.596	0.08
585.042	0.08
585.489	0.08
585.936	0.08
586.382	0.08
586.829	0.07
587.275	0.07
587.722	0.07
588.168	0.07
588.615	0.07
589.061	0.07
589.508	0.07
589.954	0.07
590.4	0.07
590.847	0.07
591.293	0.07
591.739	0.07
592.185	0.07
592.632	0.07
593.078	0.07
593.524	0.07
593.97	0.07
594.416	0.07
594.862	0.06
595.308	0.06
595.754	0.06
596.2	0.06
596.646	0.06
597.092	0.06
597.538	0.06
597.984	0.06
598.43	0.06
598.876	0.06
599.321	0.06
599.767	0.06
600.213	0.06
600.659	0.06
601.104	0.06
601.55	0.06
601.995	0.06
602.441	0.06
602.887	0.06
603.332	0.06
603.778	0.06
604.223	0.06
604.668	0.06
605.114	0.06
605.559	0.06
606.005	0.06
606.45	0.06
606.895	0.06
607.341	0.06
607.786	0.06
608.231	0.06
608.676	0.06
609.121	0.06
609.566	0.06
610.012	0.06
610.457	0.06
610.902	0.06
611.347	0.06
611.792	0.06
612.237	0.06
612.682	0.06
613.127	0.06
613.571	0.06
614.016	0.06
614.461	0.06
614.906	0.06
615.351	0.06
615.795	0.06
616.24	0.06
616.685	0.06
617.129	0.06
617.574	0.06
618.019	0.06
618.463	0.06
618.908	0.06
619.352	0.06
619.797	0.07
620.241	0.07
620.686	0.07
621.13	0.07
621.574	0.07
622.019	0.07
622.463	0.07
622.907	0.07
623.352	0.07
623.796	0.07
624.24	0.07
624.684	0.07
625.128	0.07
625.572	0.07
626.016	0.07
626.461	0.08
626.905	0.08
627.349	0.08
627.793	0.08
628.236	0.08
628.68	0.08
629.124	0.08
629.568	0.08
630.012	0.08
630.456	0.08
630.9	0.09
631.343	0.09
631.787	0.09
632.231	0.09
632.674	0.09
633.118	0.09
633.562	0.09
634.005	0.09
634.449	0.1
634.892	0.1
635.336	0.1
635.779	0.1
636.223	0.1
636.666	0.1
637.109	0.11
637.553	0.11
637.996	0.11
638.439	0.11
638.883	0.11
639.326	0.11
639.769	0.11
640.212	0.12
640.655	0.12
641.099	0.12
641.542	0.12
641.985	0.12
642.428	0.12
642.871	0.13
643.314	0.13
643.757	0.13
644.2	0.13
644.643	0.14
645.085	0.14
645.528	0.14
645.971	0.14
646.414	0.15
646.857	0.15
647.299	0.15
647.742	0.15
648.185	0.16
648.627	0.16
649.07	0.16
649.513	0.17
649.955	0.17
650.398	0.17
650.84	0.17
651.283	0.18
651.725	0.18
652.168	0.18
652.61	0.19
653.052	0.19
653.495	0.2
653.937	0.15
654.379	0.12
654.821	0.13
655.264	0.13
655.706	0.13
656.148	0.13
656.59	0.14
657.032	0.14
657.474	0.14
657.916	0.14
658.358	0.13
658.8	0.17
659.242	0.23
659.684	0.23
660.126	0.24
660.568	0.24
661.01	0.24
661.452	0.25
661.894	0.25
662.335	0.25
662.777	0.26
663.219	0.26
663.661	0.26
664.102	0.27
664.544	0.27
664.985	0.27
665.427	0.28
665.869	0.28
666.31	0.28
666.752	0.28
667.193	0.29
667.634	0.29
668.076	0.29
668.517	0.29
668.959	0.3
669.4	0.3
669.841	0.3
670.282	0.3
670.724	0.31
671.165	0.31
671.606	0.31
672.047	0.31
672.488	0.32
672.929	0.32
673.37	0.32
673.811	0.32
674.252	0.32
674.693	0.33
675.134	0.33
675.575	0.33
676.016	0.33
676.457	0.34
676.898	0.34
677.339	0.34
677.78	0.34
678.22	0.34
678.661	0.34
679.102	0.34
679.542	0.35
679.983	0.35
680.424	0.35
680.864	0.35
681.305	0.35
681.745	0.35
682.186	0.35
682.626	0.35
683.067	0.35
683.507	0.35
683.948	0.35
684.388	0.35
684.828	0.35
685.269	0.35
685.709	0.35
686.149	0.35
686.589	0.35
687.029	0.35
687.47	0.35
687.91	0.35
688.35	0.35
688.79	0.35
689.23	0.35
689.67	0.35
690.11	0.35
690.55	0.35
690.99	0.35
691.43	0.34
691.87	0.34
692.31	0.34
692.749	0.34
693.189	0.34
693.629	0.34
694.069	0.34
694.508	0.34
694.948	0.34
695.388	0.33
695.827	0.33
696.267	0.33
696.706	0.33
697.146	0.33
697.586	0.33
698.025	0.32
698.464	0.32
698.904	0.32
699.343	0.32
699.783	0.32
700.222	0.31
700.661	0.31
701.101	0.31
701.54	0.31
701.979	0.3
702.418	0.3
702.857	0.3
703.297	0.3
703.736	0.3
704.175	0.29
704.614	0.29
705.053	0.29
705.492	0.29
705.931	0.28
706.37	0.28
706.809	0.28
707.248	0.28
707.687	0.27
708.125	0.27
708.564	0.27
709.003	0.27
709.442	0.26
709.88	0.26
710.319	0.26
710.758	0.26
711.196	0.25
711.635	0.25
712.074	0.25
712.512	0.25
712.951	0.24
713.389	0.24
713.828	0.24
714.266	0.24
714.705	0.23
715.143	0.23
715.581	0.23
716.02	0.23
716.458	0.22
716.896	0.22
717.334	0.22
717.773	0.22
718.211	0.21
718.649	0.21
719.087	0.21
719.525	0.21
719.963	0.2
720.401	0.2
720.839	0.2
721.277	0.2
721.715	0.19
722.153	0.19
722.591	0.19
723.029	0.19
723.467	0.19
723.905	0.18
724.342	0.18
724.78	0.18
725.218	0.18
725.656	0.18
726.093	0.17
726.531	0.17
726.969	0.17
727.406	0.17
727.844	0.16
728.281	0.16
728.719	0.16
729.156	0.16
729.594	0.16
730.031	0.16
730.469	0.15
730.906	0.15
731.343	0.15
731.781	0.15
732.218	0.15
732.655	0.14
733.092	0.14
733.53	0.14
733.967	0.14
734.404	0.13
734.841	0.13
735.278	0.13
735.715	0.13
736.152	0.12
736.589	0.12
737.026	0.12
737.463	0.12
737.9	0.12
738.337	0.12
738.774	0.11
739.211	0.11
739.647	0.11
740.084	0.11
740.521	0.11
740.958	0.11
741.394	0.11
741.831	0.1
742.268	0.1
742.704	0.1
743.141	0.1
743.577	0.1
744.014	0.09
744.45	0.09
744.887	0.09
745.323	0.09
745.76	0.09
746.196	0.08
746.632	0.08
747.069	0.08
747.505	0.08
747.941	0.08
748.378	0.08
748.814	0.08
749.25	0.08
749.686	0.08
750.122	0.08
750.558	0.07
750.994	0.07
751.43	0.07
751.866	0.07
752.302	0.07
752.738	0.07
753.174	0.07
753.61	0.06
754.046	0.06
754.482	0.06
754.918	0.06
755.354	0.06
755.789	0.06
756.225	0.06
756.661	0.06
757.096	0.06
757.532	0.06
757.968	0.05
758.403	0.05
758.839	0.05
759.274	0.05
759.71	0.05
760.145	0.05
760.581	0.05
761.016	0.05
761.452	0.05
761.887	0.05
762.322	0.05
762.758	0.05
763.193	0.04
763.628	0.04
764.063	0.04
764.499	0.04
764.934	0.04
765.369	0.04
765.804	0.04
766.239	0.04
766.674	0.04
767.109	0.04
767.544	0.03
767.979	0.03
768.414	0.03
768.849	0.03
769.284	0.03
769.719	0.03
770.154	0.03
770.588	0.02
771.023	0.02
771.458	0.02
771.893	0.02
772.327	0.02
772.762	0.02
773.197	0.02
773.631	0.01
774.066	0.01
774.5	0.01
774.935	0.01
775.369	0.01
775.804	0.01
776.238	0.01
776.673	0
777.107	0
777.541	0
777.976	0
778.41	-0
778.844	-0
779.279	-0
779.713	-0
780.147	-0.01
780.581	-0.01
781.015	-0.01
781.449	-0.01
781.883	-0.01
782.317	-0.01
782.751	-0.02
783.185	-0.02
783.619	-0.02
784.053	-0.02
784.487	-0.02
784.921	-0.02
785.355	-0.02
785.789	-0.03
786.223	-0.03
786.656	-0.03
787.09	-0.03
787.524	-0.03
787.957	-0.03
788.391	-0.03
788.825	-0.04
789.258	-0.04
789.692	-0.04
790.125	-0.05
790.559	-0.05
790.992	-0.05
791.426	-0.06
791.859	-0.06
792.293	-0.06
792.726	-0.06
793.159	-0.06
793.593	-0.07
794.026	-0.07
794.459	-0.08
794.892	-0.08
795.326	-0.09
795.759	-0.09
796.192	-0.1
796.625	-0.11
797.058	-0.12
797.491	-0.12
797.924	-0.13
798.357	-0.14
798.79	-0.14
799.223	-0.14
799.656	-0.15
800.089	-0.15
800.522	-0.15
800.955	-0.16
801.387	-0.15
801.82	-0.16
802.253	-0.16
802.686	-0.16
803.118	-0.16
803.551	-0.16
803.984	-0.15
804.416	-0.15
804.849	-0.14
805.281	-0.14
805.714	-0.14
806.146	-0.14
806.579	-0.13
807.011	-0.13
807.444	-0.13
807.876	-0.13
808.308	-0.12
808.741	-0.12
809.173	-0.13
809.605	-0.13
810.037	-0.12
810.47	-0.12
810.902	-0.12
811.334	-0.11
811.766	-0.1
812.198	-0.1
812.63	-0.09
813.062	-0.08
813.494	-0.08
813.926	-0.07
814.358	-0.07
814.79	-0.06
815.222	-0.06
815.654	-0.06
816.086	-0.05
816.518	-0.05
816.949	-0.05
817.381	-0.04
817.813	-0.04
818.245	-0.04
818.676	-0.03
819.108	-0.03
819.54	-0.03
819.971	-0.03
820.403	-0.03
820.834	-0.02
821.266	-0.02
821.697	-0.02
822.129	-0.02
822.56	-0.02
822.991	-0.02
823.423	-0.02
823.854	-0.02
824.286	-0.02
824.717	-0.02
825.148	-0.02
825.579	-0.02
826.01	-0.02
826.442	-0.02
826.873	-0.02
827.304	-0.01
827.735	-0.01
828.166	-0.01
828.597	-0.01
829.028	-0.01
829.459	-0.01
829.89	-0.01
830.321	-0.01
830.752	-0.01
831.183	-0.01
831.613	-0.01
832.044	-0.01
832.475	-0.01
832.906	-0.01
833.336	-0.01
833.767	-0.01
834.198	-0.01
834.628	-0.01
835.059	-0.01
835.49	-0.01
835.92	-0.01
836.351	-0.01
836.781	-0.01
837.212	-0.01
837.642	-0.01
838.072	-0.01
838.503	-0.01
838.933	-0.01
839.364	-0.01
839.794	-0.01
840.224	-0.01
840.654	-0.01
841.085	-0.01
841.515	-0.01
841.945	-0.01
842.375	-0.01
842.805	-0.01
843.235	-0.01
843.665	-0.01
844.095	-0.01
844.525	-0.01
844.955	-0.01
845.385	-0.01
845.815	-0.01
846.245	-0.01
846.675	-0.01
847.105	-0.01
847.534	-0.01
847.964	-0.01
848.394	-0.01
848.824	-0.01
849.253	-0.01
849.683	-0.01
850.112	-0.01
850.542	-0.01
850.972	-0.01
851.401	-0.01
851.831	-0.01
852.26	-0.01
852.69	-0.01
853.119	-0.01
853.548	-0.01
853.978	-0.01
854.407	-0.01
854.836	-0.01
855.266	-0.01
855.695	-0.01
856.124	-0
856.553	-0
856.983	-0
857.412	-0
857.841	-0
858.27	-0
858.699	-0
859.128	-0
859.557	-0
859.986	-0
860.415	-0
860.844	-0
861.273	-0
861.702	-0
862.13	-0
862.559	-0
862.988	-0
863.417	-0
863.845	-0
864.274	-0
864.703	-0.01
865.131	-0.01
865.56	-0.01
865.989	-0.01
866.417	-0.01
866.846	-0.01
867.274	-0.01
867.703	-0.01
868.131	-0.01
868.559	-0.01
868.988	-0.01
869.416	-0.01
869.844	-0.01
870.273	-0.01
870.701	-0.01
871.129	-0.01
871.557	-0.02
871.986	-0.02
872.414	-0.02
872.842	-0.02
873.27	-0.02
873.698	-0.02
874.126	-0.02
874.554	-0.02
874.982	-0.02
875.41	-0.02
875.838	-0.02
876.266	-0.02
876.694	-0.02
877.122	-0.02
877.549	-0.02
877.977	-0.02
878.405	-0.02
878.833	-0.02
879.26	-0.02
879.688	-0.02
880.116	-0.02
880.543	-0.02
880.971	-0.02
881.399	-0.02
881.826	-0.02
882.254	-0.01
882.681	-0.01
883.109	-0.01
883.536	-0.01
883.963	-0.01
884.391	-0.01
884.818	-0.01
885.245	-0.01
885.673	-0.01
886.1	-0.01
886.527	-0.01
886.954	-0.01
887.381	-0.01
887.809	-0.01
888.236	-0.01
888.663	-0.01
889.09	-0.01
889.517	-0.01
889.944	-0.01
890.371	-0.01
890.798	-0.01
891.225	-0.01
891.652	-0.02
892.078	-0.02
892.505	-0.02
892.932	-0.02
893.359	-0.02
893.786	-0.02
894.212	-0.02
894.639	-0.02
895.066	-0.02
895.492	-0.02
895.919	-0.02
896.346	-0.02
896.772	-0.02
897.199	-0.02
897.625	-0.03
898.052	-0.03
898.478	-0.03
898.904	-0.03
899.331	-0.03
899.757	-0.03
900.183	-0.03
900.61	-0.03
901.036	-0.03
901.462	-0.03
901.888	-0.03
902.315	-0.03
902.741	-0.03
903.167	-0.03
903.593	-0.03
904.019	-0.03
904.445	-0.03
904.871	-0.03
905.297	-0.03
905.723	-0.03
906.149	-0.02
906.575	-0.02
907.001	-0.02
907.427	-0.02
907.852	-0.02
908.278	-0.02
908.704	-0.02
909.13	-0.02
909.555	-0.02
909.981	-0.02
910.407	-0.02
910.832	-0.02
911.258	-0.02
911.684	-0.02
912.109	-0.02
912.535	-0.02
912.96	-0.02
913.386	-0.02
913.811	-0.02
914.236	-0.02
914.662	-0.02
915.087	-0.02
915.512	-0.02
915.938	-0.02
916.363	-0.02
916.788	-0.02
917.213	-0.02
917.639	-0.02
918.064	-0.02
918.489	-0.02
918.914	-0.02
919.339	-0.02
919.764	-0.02
920.189	-0.02
920.614	-0.02
921.039	-0.02
921.464	-0.02
921.889	-0.02
922.314	-0.01
922.738	-0.01
923.163	-0.01
923.588	-0.01
924.013	-0.01
924.437	-0.01
924.862	-0.01
925.287	-0.01
925.711	-0.01
926.136	-0.01
926.561	-0.01
926.985	-0.01
927.41	-0.01
927.834	-0.01
928.259	-0.02
928.683	-0.02
929.108	-0.02
929.532	-0.02
929.956	-0.02
930.381	-0.02
930.805	-0.02
931.229	-0.02
931.653	-0.02
932.078	-0.02
932.502	-0.02
932.926	-0.02
933.35	-0.02
933.774	-0.02
934.198	-0.02
934.622	-0.02
935.046	-0.02
935.47	-0.02
935.894	-0.02
936.318	-0.02
936.742	-0.02
937.166	-0.02
937.59	-0.02
938.014	-0.02
938.437	-0.02
938.861	-0.02
939.285	-0.02
939.709	-0.02
940.132	-0.02
940.556	-0.02
940.98	-0.02
941.403	-0.03
941.827	-0.03
942.25	-0.03
942.674	-0.03
943.097	-0.03
943.521	-0.03
943.944	-0.03
944.368	-0.03
944.791	-0.03
945.214	-0.03
945.638	-0.03
946.061	-0.03
946.484	-0.03
946.907	-0.03
947.331	-0.03
947.754	-0.03
948.177	-0.03
948.6	-0.03
949.023	-0.03
949.446	-0.03
949.869	-0.03
950.292	-0.03
950.715	-0.03
951.138	-0.03
951.561	-0.03
951.984	-0.03
952.407	-0.03
952.83	-0.03
953.252	-0.03
953.675	-0.03
954.098	-0.03
954.521	-0.03
954.943	-0.03
955.366	-0.03
955.789	-0.03
956.211	-0.03
956.634	-0.02
957.056	-0.02
957.479	-0.02
957.902	-0.02
958.324	-0.02
958.746	-0.02
959.169	-0.02
959.591	-0.01
960.014	-0.01
960.436	-0.01
960.858	-0.01
961.281	-0.01
961.703	-0.01
962.125	-0.01
962.547	-0.01
962.969	-0.01
963.391	-0.01
963.814	-0.01
964.236	-0.01
964.658	-0.01
965.08	-0.01
965.502	-0.01
965.924	-0.01
966.346	-0.01
966.768	-0.01
967.189	-0.01
967.611	-0.01
968.033	-0.01
968.455	-0.01
968.877	-0.01
969.298	-0.01
969.72	-0.02
970.142	-0.02
970.563	-0.02
970.985	-0.02
971.407	-0.02
971.828	-0.02
972.25	-0.02
972.671	-0.02
973.093	-0.02
973.514	-0.02
973.936	-0.02
974.357	-0.02
974.778	-0.02
975.2	-0.02
975.621	-0.02
976.042	-0.02
976.464	-0.02
976.885	-0.02
977.306	-0.02
977.727	-0.02
978.148	-0.02
978.57	-0.02
978.991	-0.02
979.412	-0.01
979.833	-0.01
980.254	-0.01
980.675	-0.01
981.096	-0.01
981.517	-0.01
981.937	-0.01
982.358	-0.01
982.779	-0.01
983.2	-0.01
983.621	-0.01
984.042	-0.01
984.462	-0.01
984.883	-0.02
985.304	-0.02
985.724	-0.02
986.145	-0.02
986.565	-0.02
986.986	-0.02
987.407	-0.02
987.827	-0.02
988.248	-0.02
988.668	-0.02
989.088	-0.02
989.509	-0.02
989.929	-0.02
990.35	-0.02
990.77	-0.02
991.19	-0.02
991.61	-0.02
992.031	-0.02
992.451	-0.02
992.871	-0.02
993.291	-0.02
993.711	-0.02
994.131	-0.02
994.551	-0.02
994.971	-0.02
995.391	-0.02
995.811	-0.02
996.231	-0.02
996.651	-0.02
997.071	-0.02
997.491	-0.02
997.911	-0.02
998.331	-0.02
998.75	-0.02
999.17	-0.02
999.59	-0.02
1000.009	-0.02
1000.429	-0.02
1000.849	-0.02
1001.268	-0.02
1001.688	-0.02
1002.107	-0.02
1002.527	-0.02
1002.946	-0.02
1003.366	-0.02
1003.785	-0.02
1004.205	-0.02
1004.624	-0.02
1005.044	-0.02
1005.463	-0.02
1005.882	-0.02
1006.301	-0.03
1006.721	-0.03
1007.14	-0.03
1007.559	-0.03
1007.978	-0.03
1008.397	-0.03
1008.816	-0.03
1009.235	-0.03
1009.655	-0.03
1010.074	-0.03
1010.492	-0.03
1010.911	-0.03
1011.33	-0.03
1011.749	-0.03
1012.168	-0.03
1012.587	-0.03
1013.006	-0.03
1013.425	-0.03
1013.843	-0.03
1014.262	-0.03
1014.681	-0.03
1015.099	-0.03
1015.518	-0.03
1015.937	-0.03
1016.355	-0.03
1016.774	-0.03
1017.192	-0.03
1017.611	-0.03
1018.029	-0.03
1018.448	-0.03
1018.866	-0.03
1019.285	-0.03
1019.703	-0.03
1020.121	-0.03
1020.54	-0.03
1020.958	-0.03
1021.376	-0.03
1021.794	-0.03
1022.213	-0.03
1022.631	-0.03
1023.049	-0.03
1023.467	-0.03
1023.885	-0.03
1024.303	-0.03
1024.721	-0.03
1025.139	-0.03
1025.557	-0.03
1025.975	-0.03
1026.393	-0.03
1026.811	-0.03
1027.229	-0.03
1027.647	-0.02
1028.065	-0.02
1028.482	-0.02
1028.9	-0.02
1029.318	-0.02
1029.735	-0.02
1030.153	-0.02
1030.571	-0.02
1030.988	-0.02
1031.406	-0.02
1031.823	-0.02
1032.241	-0.02
1032.659	-0.02
1033.076	-0.02
1033.493	-0.02
1033.911	-0.02
1034.328	-0.02
1034.746	-0.02
1035.163	-0.02
1035.58	-0.02
1035.997	-0.02
1036.415	-0.02
1036.832	-0.02
1037.249	-0.02
1037.666	-0.02
1038.083	-0.02
1038.501	-0.02
1038.918	-0.02
1039.335	-0.02
1039.752	-0.02
1040.169	-0.02
1040.586	-0.02
1041.003	-0.02
1041.419	-0.02
1041.836	-0.02
1042.253	-0.02
1042.67	-0.02
1043.087	-0.02
1043.504	-0.02
1043.92	-0.02
1044.337	-0.02
1044.754	-0.02
1045.17	-0.02
1045.587	-0.02
1046.004	-0.02
1046.42	-0.02
1046.837	-0.02
1047.253	-0.02
1047.67	-0.02
1048.086	-0.02
1048.503	-0.02
1048.919	-0.02
1049.335	-0.02
1049.752	-0.02
1050.168	-0.02
1050.584	-0.02
1051.001	-0.02
1051.417	-0.02
1051.833	-0.02
1052.249	-0.02
1052.665	-0.02
1053.081	-0.02
1053.497	-0.02
1053.914	-0.02
1054.33	-0.02
1054.746	-0.02
1055.162	-0.03
1055.578	-0.03
1055.993	-0.03
1056.409	-0.03
1056.825	-0.03
1057.241	-0.03
1057.657	-0.03
1058.073	-0.03
1058.488	-0.03
1058.904	-0.03
1059.32	-0.03
1059.736	-0.03
1060.151	-0.03
1060.567	-0.03
1060.982	-0.03
1061.398	-0.03
1061.813	-0.03
1062.229	-0.03
1062.644	-0.03
1063.06	-0.03
1063.475	-0.03
1063.891	-0.03
1064.306	-0.03
1064.721	-0.03
1065.137	-0.03
1065.552	-0.03
1065.967	-0.03
1066.382	-0.03
1066.798	-0.03
1067.213	-0.03
1067.628	-0.03
1068.043	-0.03
1068.458	-0.03
1068.873	-0.03
1069.288	-0.03
1069.703	-0.03
1070.118	-0.03
1070.533	-0.03
1070.948	-0.03
1071.363	-0.03
1071.778	-0.03
1072.193	-0.03
1072.607	-0.04
1073.022	-0.04
1073.437	-0.04
1073.852	-0.04
1074.266	-0.04
1074.681	-0.04
1075.096	-0.04
1075.51	-0.04
1075.925	-0.04
1076.339	-0.04
1076.754	-0.04
1077.168	-0.04
1077.583	-0.04
1077.997	-0.04
1078.412	-0.04
1078.826	-0.04
1079.24	-0.04
1079.655	-0.04
1080.069	-0.04
1080.483	-0.04
1080.897	-0.04
1081.312	-0.04
1081.726	-0.04
1082.14	-0.04
1082.554	-0.04
1082.968	-0.04
1083.382	-0.04
1083.796	-0.04
1084.21	-0.04
1084.624	-0.04
1085.038	-0.04
1085.452	-0.04
1085.866	-0.04
1086.28	-0.03
1086.694	-0.03
1087.108	-0.03
1087.521	-0.03
1087.935	-0.03
1088.349	-0.03
1088.763	-0.03
1089.176	-0.04
1089.59	-0.04
1090.004	-0.04
1090.417	-0.04
1090.831	-0.04
1091.244	-0.04
1091.658	-0.04
1092.071	-0.04
1092.485	-0.04
1092.898	-0.04
1093.312	-0.04
1093.725	-0.04
1094.138	-0.04
1094.552	-0.05
1094.965	-0.05
1095.378	-0.05
1095.791	-0.05
1096.205	-0.05
1096.618	-0.05
1097.031	-0.05
1097.444	-0.05
1097.857	-0.05
1098.27	-0.05
1098.683	-0.05
1099.096	-0.05
1099.509	-0.05
1099.922	-0.05
1100.335	-0.05
1100.748	-0.05
1101.161	-0.06
1101.574	-0.06
1101.986	-0.06
1102.399	-0.06
1102.812	-0.06
1103.225	-0.06
1103.637	-0.06
1104.05	-0.06
1104.463	-0.06
1104.875	-0.06
1105.288	-0.06
1105.7	-0.07
1106.113	-0.07
1106.525	-0.07
1106.938	-0.07
1107.35	-0.07
1107.763	-0.07
1108.175	-0.07
1108.588	-0.08
1109	-0.08
1109.412	-0.08
1109.824	-0.08
1110.237	-0.08
1110.649	-0.08
1111.061	-0.08
