Data from 2024-02-06-100ns-20nr-25nacl-100h2o-7bp2-1_5a808-40to10hyt-0_5cpm_Absorbance__81__00208.txt Node

Date: Tue Feb 06 12:48:21 CET 2024
User: Laser008
Spectrometer: MAYP115816
Trigger mode: 0
Integration Time (sec): 2.000000E-1
Scans to average: 10
Electric dark correction enabled: true
Nonlinearity correction enabled: true
Boxcar width: 5
XAxis mode: Wavelengths
Number of Pixels in Spectrum: 2068
>>>>>Begin Spectral Data<<<<<
198.914	-0.29
199.384	-0.25
199.855	-0.2
200.325	-0.17
200.796	-0.14
201.266	-0.13
201.737	-0.12
202.207	-0.12
202.677	-0.11
203.147	-0.11
203.618	-0.1
204.088	-0.09
204.558	-0.09
205.028	-0.08
205.498	-0.08
205.968	-0.08
206.439	-0.09
206.909	-0.08
207.379	-0.08
207.849	-0.08
208.319	-0.08
208.789	-0.08
209.258	-0.09
209.728	-0.09
210.198	-0.09
210.668	-0.09
211.138	-0.09
211.608	-0.09
212.077	-0.1
212.547	-0.1
213.017	-0.09
213.486	-0.1
213.956	-0.1
214.426	-0.1
214.895	-0.09
215.365	-0.09
215.834	-0.09
216.304	-0.09
216.773	-0.09
217.243	-0.09
217.712	-0.09
218.181	-0.09
218.651	-0.08
219.12	-0.08
219.589	-0.08
220.058	-0.08
220.528	-0.08
220.997	-0.08
221.466	-0.07
221.935	-0.08
222.404	-0.07
222.873	-0.07
223.342	-0.07
223.812	-0.07
224.281	-0.06
224.749	-0.06
225.218	-0.05
225.687	-0.05
226.156	-0.04
226.625	-0.03
227.094	-0.03
227.563	-0.02
228.031	-0.01
228.5	-0
228.969	0.01
229.438	0.02
229.906	0.04
230.375	0.06
230.844	0.07
231.312	0.09
231.781	0.1
232.249	0.12
232.718	0.14
233.186	0.16
233.655	0.17
234.123	0.19
234.591	0.2
235.06	0.21
235.528	0.22
235.996	0.23
236.465	0.24
236.933	0.25
237.401	0.25
237.869	0.26
238.337	0.27
238.805	0.27
239.274	0.28
239.742	0.28
240.21	0.28
240.678	0.29
241.146	0.29
241.614	0.29
242.081	0.29
242.549	0.3
243.017	0.3
243.485	0.3
243.953	0.3
244.421	0.3
244.888	0.31
245.356	0.31
245.824	0.31
246.291	0.31
246.759	0.31
247.227	0.31
247.694	0.32
248.162	0.32
248.629	0.32
249.097	0.32
249.564	0.32
250.032	0.33
250.499	0.33
250.967	0.33
251.434	0.33
251.901	0.33
252.369	0.33
252.836	0.34
253.303	0.34
253.77	0.34
254.237	0.34
254.705	0.34
255.172	0.34
255.639	0.34
256.106	0.34
256.573	0.35
257.04	0.35
257.507	0.35
257.974	0.35
258.441	0.35
258.908	0.35
259.375	0.35
259.841	0.35
260.308	0.35
260.775	0.35
261.242	0.35
261.709	0.35
262.175	0.35
262.642	0.35
263.109	0.35
263.575	0.35
264.042	0.35
264.508	0.34
264.975	0.34
265.441	0.34
265.908	0.34
266.374	0.34
266.841	0.34
267.307	0.34
267.773	0.34
268.24	0.34
268.706	0.34
269.172	0.33
269.639	0.33
270.105	0.33
270.571	0.33
271.037	0.33
271.503	0.32
271.969	0.32
272.435	0.32
272.902	0.32
273.368	0.32
273.834	0.32
274.3	0.31
274.765	0.31
275.231	0.31
275.697	0.31
276.163	0.31
276.629	0.3
277.095	0.3
277.56	0.3
278.026	0.3
278.492	0.3
278.958	0.29
279.423	0.29
279.889	0.29
280.354	0.29
280.82	0.28
281.286	0.28
281.751	0.28
282.217	0.28
282.682	0.28
283.147	0.27
283.613	0.27
284.078	0.27
284.544	0.27
285.009	0.27
285.474	0.27
285.939	0.26
286.405	0.26
286.87	0.26
287.335	0.26
287.8	0.26
288.265	0.26
288.73	0.25
289.195	0.25
289.66	0.25
290.125	0.25
290.59	0.25
291.055	0.25
291.52	0.25
291.985	0.25
292.45	0.24
292.915	0.24
293.38	0.24
293.844	0.24
294.309	0.24
294.774	0.24
295.239	0.24
295.703	0.24
296.168	0.24
296.632	0.24
297.097	0.24
297.562	0.24
298.026	0.23
298.491	0.23
298.955	0.23
299.419	0.23
299.884	0.23
300.348	0.23
300.813	0.23
301.277	0.23
301.741	0.23
302.205	0.23
302.67	0.23
303.134	0.23
303.598	0.23
304.062	0.23
304.526	0.23
304.99	0.23
305.454	0.23
305.919	0.23
306.383	0.23
306.847	0.23
307.31	0.23
307.774	0.23
308.238	0.23
308.702	0.23
309.166	0.23
309.63	0.22
310.094	0.22
310.557	0.22
311.021	0.22
311.485	0.22
311.948	0.22
312.412	0.22
312.876	0.22
313.339	0.22
313.803	0.22
314.266	0.22
314.73	0.22
315.193	0.22
315.657	0.22
316.12	0.22
316.584	0.22
317.047	0.22
317.51	0.22
317.973	0.22
318.437	0.22
318.9	0.22
319.363	0.22
319.826	0.22
320.29	0.22
320.753	0.22
321.216	0.22
321.679	0.22
322.142	0.22
322.605	0.22
323.068	0.22
323.531	0.21
323.994	0.21
324.457	0.21
324.92	0.21
325.382	0.21
325.845	0.21
326.308	0.21
326.771	0.21
327.233	0.21
327.696	0.21
328.159	0.21
328.622	0.21
329.084	0.21
329.547	0.21
330.009	0.21
330.472	0.21
330.934	0.21
331.397	0.21
331.859	0.21
332.322	0.21
332.784	0.21
333.246	0.21
333.709	0.21
334.171	0.21
334.633	0.21
335.096	0.21
335.558	0.21
336.02	0.21
336.482	0.2
336.944	0.2
337.406	0.2
337.868	0.2
338.331	0.2
338.793	0.2
339.255	0.2
339.717	0.2
340.178	0.2
340.64	0.2
341.102	0.2
341.564	0.2
342.026	0.2
342.488	0.2
342.949	0.2
343.411	0.2
343.873	0.2
344.335	0.2
344.796	0.2
345.258	0.2
345.719	0.2
346.181	0.2
346.643	0.2
347.104	0.2
347.566	0.2
348.027	0.2
348.488	0.2
348.95	0.2
349.411	0.2
349.873	0.2
350.334	0.2
350.795	0.2
351.256	0.2
351.718	0.2
352.179	0.2
352.64	0.2
353.101	0.2
353.562	0.2
354.023	0.2
354.484	0.2
354.945	0.2
355.406	0.2
355.867	0.2
356.328	0.2
356.789	0.2
357.25	0.2
357.711	0.2
358.172	0.2
358.633	0.19
359.093	0.2
359.554	0.2
360.015	0.2
360.476	0.19
360.936	0.19
361.397	0.19
361.858	0.2
362.318	0.2
362.779	0.2
363.239	0.19
363.7	0.19
364.16	0.19
364.621	0.19
365.081	0.19
365.541	0.19
366.002	0.19
366.462	0.19
366.922	0.19
367.383	0.19
367.843	0.19
368.303	0.19
368.763	0.19
369.223	0.19
369.684	0.19
370.144	0.19
370.604	0.19
371.064	0.19
371.524	0.19
371.984	0.19
372.444	0.19
372.904	0.19
373.363	0.19
373.823	0.19
374.283	0.19
374.743	0.19
375.203	0.19
375.663	0.19
376.122	0.19
376.582	0.19
377.042	0.19
377.501	0.19
377.961	0.19
378.42	0.19
378.88	0.19
379.34	0.19
379.799	0.19
380.259	0.19
380.718	0.19
381.177	0.19
381.637	0.19
382.096	0.19
382.555	0.19
383.015	0.19
383.474	0.19
383.933	0.19
384.393	0.19
384.852	0.19
385.311	0.19
385.77	0.19
386.229	0.19
386.688	0.19
387.147	0.19
387.606	0.19
388.065	0.19
388.524	0.19
388.983	0.19
389.442	0.19
389.901	0.19
390.36	0.19
390.819	0.19
391.277	0.19
391.736	0.19
392.195	0.19
392.654	0.19
393.112	0.19
393.571	0.19
394.03	0.19
394.488	0.19
394.947	0.19
395.405	0.19
395.864	0.19
396.322	0.19
396.781	0.19
397.239	0.19
397.698	0.19
398.156	0.19
398.614	0.19
399.073	0.18
399.531	0.18
399.989	0.18
400.447	0.18
400.905	0.18
401.364	0.18
401.822	0.18
402.28	0.18
402.738	0.18
403.196	0.18
403.654	0.18
404.112	0.18
404.57	0.18
405.028	0.18
405.486	0.18
405.944	0.18
406.402	0.18
406.859	0.18
407.317	0.18
407.775	0.18
408.233	0.18
408.691	0.18
409.148	0.18
409.606	0.18
410.064	0.18
410.521	0.18
410.979	0.18
411.436	0.18
411.894	0.18
412.351	0.18
412.809	0.18
413.266	0.18
413.724	0.18
414.181	0.18
414.638	0.18
415.096	0.18
415.553	0.18
416.01	0.18
416.467	0.18
416.925	0.18
417.382	0.18
417.839	0.18
418.296	0.18
418.753	0.18
419.21	0.18
419.667	0.18
420.124	0.18
420.581	0.18
421.038	0.18
421.495	0.18
421.952	0.18
422.409	0.18
422.866	0.18
423.322	0.18
423.779	0.18
424.236	0.18
424.693	0.18
425.149	0.18
425.606	0.18
426.063	0.18
426.519	0.18
426.976	0.18
427.433	0.18
427.889	0.18
428.346	0.18
428.802	0.18
429.258	0.17
429.715	0.17
430.171	0.17
430.628	0.17
431.084	0.17
431.54	0.17
431.997	0.17
432.453	0.17
432.909	0.17
433.365	0.17
433.821	0.17
434.277	0.17
434.734	0.17
435.19	0.17
435.646	0.17
436.102	0.17
436.558	0.17
437.014	0.17
437.47	0.17
437.925	0.17
438.381	0.17
438.837	0.17
439.293	0.17
439.749	0.17
440.205	0.17
440.66	0.17
441.116	0.17
441.572	0.17
442.027	0.17
442.483	0.17
442.939	0.17
443.394	0.17
443.85	0.17
444.305	0.17
444.761	0.17
445.216	0.17
445.672	0.17
446.127	0.17
446.582	0.17
447.038	0.17
447.493	0.17
447.948	0.17
448.403	0.17
448.859	0.17
449.314	0.17
449.769	0.17
450.224	0.17
450.679	0.17
451.134	0.17
451.589	0.17
452.044	0.17
452.499	0.17
452.954	0.17
453.409	0.17
453.864	0.17
454.319	0.17
454.774	0.17
455.229	0.17
455.684	0.17
456.138	0.17
456.593	0.16
457.048	0.16
457.503	0.16
457.957	0.16
458.412	0.16
458.866	0.16
459.321	0.16
459.776	0.16
460.23	0.16
460.685	0.16
461.139	0.16
461.593	0.16
462.048	0.16
462.502	0.16
462.957	0.16
463.411	0.16
463.865	0.16
464.319	0.16
464.774	0.16
465.228	0.16
465.682	0.16
466.136	0.16
466.59	0.16
467.044	0.16
467.499	0.16
467.953	0.16
468.407	0.16
468.861	0.16
469.315	0.16
469.768	0.16
470.222	0.16
470.676	0.16
471.13	0.16
471.584	0.16
472.038	0.16
472.491	0.16
472.945	0.16
473.399	0.16
473.852	0.16
474.306	0.16
474.76	0.16
475.213	0.16
475.667	0.16
476.12	0.16
476.574	0.16
477.027	0.16
477.481	0.16
477.934	0.16
478.388	0.16
478.841	0.16
479.294	0.16
479.748	0.16
480.201	0.16
480.654	0.16
481.107	0.16
481.561	0.17
482.014	0.17
482.467	0.17
482.92	0.17
483.373	0.17
483.826	0.17
484.279	0.17
484.732	0.17
485.185	0.17
485.638	0.17
486.091	0.17
486.544	0.17
486.997	0.17
487.449	0.17
487.902	0.17
488.355	0.17
488.808	0.17
489.26	0.17
489.713	0.17
490.166	0.17
490.618	0.17
491.071	0.17
491.523	0.17
491.976	0.17
492.429	0.17
492.881	0.18
493.333	0.18
493.786	0.18
494.238	0.18
494.691	0.18
495.143	0.18
495.595	0.18
496.048	0.18
496.5	0.18
496.952	0.18
497.404	0.18
497.856	0.18
498.309	0.18
498.761	0.18
499.213	0.19
499.665	0.19
500.117	0.19
500.569	0.19
501.021	0.19
501.473	0.19
501.925	0.19
502.377	0.19
502.828	0.19
503.28	0.2
503.732	0.2
504.184	0.2
504.636	0.2
505.087	0.2
505.539	0.2
505.991	0.2
506.442	0.2
506.894	0.2
507.345	0.2
507.797	0.2
508.249	0.2
508.7	0.21
509.151	0.21
509.603	0.21
510.054	0.21
510.506	0.21
510.957	0.21
511.408	0.21
511.86	0.21
512.311	0.21
512.762	0.21
513.213	0.21
513.665	0.21
514.116	0.21
514.567	0.21
515.018	0.22
515.469	0.22
515.92	0.22
516.371	0.22
516.822	0.22
517.273	0.22
517.724	0.22
518.175	0.22
518.626	0.22
519.076	0.22
519.527	0.22
519.978	0.22
520.429	0.22
520.88	0.22
521.33	0.22
521.781	0.23
522.232	0.23
522.682	0.23
523.133	0.23
523.583	0.23
524.034	0.23
524.484	0.23
524.935	0.23
525.385	0.23
525.836	0.23
526.286	0.23
526.736	0.23
527.187	0.23
527.637	0.23
528.087	0.23
528.538	0.23
528.988	0.23
529.438	0.24
529.888	0.24
530.338	0.24
530.788	0.24
531.238	0.24
531.688	0.24
532.139	0.24
532.589	0.24
533.038	0.24
533.488	0.24
533.938	0.24
534.388	0.24
534.838	0.24
535.288	0.24
535.738	0.24
536.187	0.24
536.637	0.24
537.087	0.24
537.537	0.24
537.986	0.24
538.436	0.24
538.885	0.24
539.335	0.24
539.785	0.24
540.234	0.24
540.684	0.24
541.133	0.24
541.582	0.24
542.032	0.24
542.481	0.24
542.931	0.25
543.38	0.25
543.829	0.25
544.278	0.25
544.728	0.25
545.177	0.25
545.626	0.25
546.075	0.25
546.524	0.25
546.973	0.25
547.422	0.25
547.871	0.25
548.32	0.25
548.769	0.25
549.218	0.25
549.667	0.25
550.116	0.25
550.565	0.25
551.014	0.25
551.463	0.25
551.911	0.25
552.36	0.25
552.809	0.25
553.258	0.25
553.706	0.25
554.155	0.25
554.603	0.25
555.052	0.25
555.501	0.25
555.949	0.25
556.398	0.25
556.846	0.25
557.294	0.25
557.743	0.25
558.191	0.25
558.64	0.25
559.088	0.25
559.536	0.25
559.985	0.25
560.433	0.25
560.881	0.25
561.329	0.25
561.777	0.25
562.225	0.25
562.674	0.25
563.122	0.25
563.57	0.25
564.018	0.25
564.466	0.25
564.914	0.25
565.362	0.25
565.809	0.25
566.257	0.25
566.705	0.25
567.153	0.25
567.601	0.25
568.048	0.25
568.496	0.25
568.944	0.25
569.392	0.25
569.839	0.25
570.287	0.25
570.734	0.25
571.182	0.25
571.63	0.25
572.077	0.25
572.525	0.25
572.972	0.25
573.419	0.25
573.867	0.25
574.314	0.25
574.761	0.25
575.209	0.25
575.656	0.25
576.103	0.25
576.551	0.25
576.998	0.25
577.445	0.25
577.892	0.25
578.339	0.25
578.786	0.25
579.233	0.25
579.68	0.24
580.127	0.24
580.574	0.24
581.021	0.24
581.468	0.24
581.915	0.24
582.362	0.24
582.809	0.24
583.255	0.24
583.702	0.24
584.149	0.24
584.596	0.24
585.042	0.24
585.489	0.24
585.936	0.23
586.382	0.23
586.829	0.23
587.275	0.23
587.722	0.23
588.168	0.23
588.615	0.23
589.061	0.23
589.508	0.23
589.954	0.23
590.4	0.23
590.847	0.23
591.293	0.23
591.739	0.23
592.185	0.23
592.632	0.23
593.078	0.23
593.524	0.23
593.97	0.22
594.416	0.22
594.862	0.22
595.308	0.22
595.754	0.22
596.2	0.22
596.646	0.22
597.092	0.22
597.538	0.22
597.984	0.22
598.43	0.22
598.876	0.22
599.321	0.22
599.767	0.22
600.213	0.22
600.659	0.22
601.104	0.21
601.55	0.21
601.995	0.21
602.441	0.21
602.887	0.21
603.332	0.21
603.778	0.21
604.223	0.21
604.668	0.21
605.114	0.21
605.559	0.21
606.005	0.21
606.45	0.21
606.895	0.21
607.341	0.21
607.786	0.2
608.231	0.2
608.676	0.2
609.121	0.2
609.566	0.2
610.012	0.2
610.457	0.2
610.902	0.2
611.347	0.2
611.792	0.2
612.237	0.2
612.682	0.2
613.127	0.2
613.571	0.2
614.016	0.2
614.461	0.2
614.906	0.2
615.351	0.19
615.795	0.19
616.24	0.19
616.685	0.19
617.129	0.19
617.574	0.19
618.019	0.19
618.463	0.19
618.908	0.19
619.352	0.19
619.797	0.19
620.241	0.19
620.686	0.19
621.13	0.19
621.574	0.19
622.019	0.18
622.463	0.18
622.907	0.18
623.352	0.18
623.796	0.18
624.24	0.18
624.684	0.18
625.128	0.18
625.572	0.18
626.016	0.18
626.461	0.18
626.905	0.18
627.349	0.18
627.793	0.18
628.236	0.18
628.68	0.18
629.124	0.18
629.568	0.18
630.012	0.18
630.456	0.18
630.9	0.18
631.343	0.18
631.787	0.18
632.231	0.18
632.674	0.18
633.118	0.18
633.562	0.18
634.005	0.18
634.449	0.18
634.892	0.18
635.336	0.18
635.779	0.18
636.223	0.18
636.666	0.18
637.109	0.18
637.553	0.18
637.996	0.18
638.439	0.18
638.883	0.18
639.326	0.18
639.769	0.18
640.212	0.18
640.655	0.18
641.099	0.18
641.542	0.18
641.985	0.18
642.428	0.18
642.871	0.19
643.314	0.19
643.757	0.19
644.2	0.19
644.643	0.19
645.085	0.19
645.528	0.19
645.971	0.19
646.414	0.19
646.857	0.19
647.299	0.2
647.742	0.2
648.185	0.2
648.627	0.2
649.07	0.2
649.513	0.2
649.955	0.2
650.398	0.21
650.84	0.21
651.283	0.21
651.725	0.21
652.168	0.21
652.61	0.21
653.052	0.22
653.495	0.22
653.937	0.17
654.379	0.13
654.821	0.14
655.264	0.14
655.706	0.14
656.148	0.14
656.59	0.14
657.032	0.14
657.474	0.15
657.916	0.14
658.358	0.14
658.8	0.18
659.242	0.23
659.684	0.24
660.126	0.24
660.568	0.24
661.01	0.24
661.452	0.24
661.894	0.25
662.335	0.25
662.777	0.25
663.219	0.25
663.661	0.26
664.102	0.26
664.544	0.26
664.985	0.26
665.427	0.26
665.869	0.26
666.31	0.27
666.752	0.27
667.193	0.27
667.634	0.27
668.076	0.27
668.517	0.28
668.959	0.28
669.4	0.28
669.841	0.28
670.282	0.28
670.724	0.28
671.165	0.29
671.606	0.29
672.047	0.29
672.488	0.29
672.929	0.29
673.37	0.29
673.811	0.29
674.252	0.3
674.693	0.3
675.134	0.3
675.575	0.3
676.016	0.3
676.457	0.31
676.898	0.31
677.339	0.31
677.78	0.31
678.22	0.31
678.661	0.31
679.102	0.31
679.542	0.31
679.983	0.31
680.424	0.31
680.864	0.31
681.305	0.31
681.745	0.31
682.186	0.32
682.626	0.32
683.067	0.32
683.507	0.32
683.948	0.32
684.388	0.32
684.828	0.32
685.269	0.32
685.709	0.32
686.149	0.32
686.589	0.32
687.029	0.32
687.47	0.32
687.91	0.32
688.35	0.32
688.79	0.32
689.23	0.33
689.67	0.33
690.11	0.33
690.55	0.33
690.99	0.33
691.43	0.33
691.87	0.33
692.31	0.33
692.749	0.33
693.189	0.33
693.629	0.33
694.069	0.33
694.508	0.33
694.948	0.33
695.388	0.32
695.827	0.32
696.267	0.32
696.706	0.32
697.146	0.32
697.586	0.32
698.025	0.32
698.464	0.32
698.904	0.32
699.343	0.32
699.783	0.32
700.222	0.32
700.661	0.32
701.101	0.32
701.54	0.32
701.979	0.32
702.418	0.32
702.857	0.32
703.297	0.32
703.736	0.32
704.175	0.32
704.614	0.31
705.053	0.31
705.492	0.31
705.931	0.31
706.37	0.31
706.809	0.31
707.248	0.31
707.687	0.31
708.125	0.31
708.564	0.31
709.003	0.31
709.442	0.3
709.88	0.3
710.319	0.3
710.758	0.3
711.196	0.3
711.635	0.3
712.074	0.3
712.512	0.3
712.951	0.3
713.389	0.3
713.828	0.3
714.266	0.3
714.705	0.3
715.143	0.3
715.581	0.3
716.02	0.29
716.458	0.29
716.896	0.29
717.334	0.29
717.773	0.29
718.211	0.29
718.649	0.29
719.087	0.29
719.525	0.29
719.963	0.29
720.401	0.29
720.839	0.29
721.277	0.28
721.715	0.28
722.153	0.28
722.591	0.28
723.029	0.28
723.467	0.28
723.905	0.28
724.342	0.28
724.78	0.28
725.218	0.28
725.656	0.28
726.093	0.27
726.531	0.27
726.969	0.27
727.406	0.27
727.844	0.27
728.281	0.27
728.719	0.27
729.156	0.27
729.594	0.27
730.031	0.27
730.469	0.27
730.906	0.27
731.343	0.27
731.781	0.27
732.218	0.26
732.655	0.26
733.092	0.26
733.53	0.26
733.967	0.26
734.404	0.26
734.841	0.26
735.278	0.26
735.715	0.26
736.152	0.25
736.589	0.25
737.026	0.25
737.463	0.25
737.9	0.25
738.337	0.25
738.774	0.25
739.211	0.25
739.647	0.25
740.084	0.24
740.521	0.24
740.958	0.24
741.394	0.24
741.831	0.24
742.268	0.24
742.704	0.24
743.141	0.24
743.577	0.24
744.014	0.24
744.45	0.23
744.887	0.23
745.323	0.23
745.76	0.23
746.196	0.23
746.632	0.23
747.069	0.23
747.505	0.23
747.941	0.23
748.378	0.23
748.814	0.23
749.25	0.23
749.686	0.22
750.122	0.22
750.558	0.22
750.994	0.22
751.43	0.22
751.866	0.22
752.302	0.22
752.738	0.22
753.174	0.22
753.61	0.21
754.046	0.21
754.482	0.21
754.918	0.21
755.354	0.21
755.789	0.21
756.225	0.21
756.661	0.2
757.096	0.2
757.532	0.2
757.968	0.2
758.403	0.2
758.839	0.2
759.274	0.2
759.71	0.2
760.145	0.2
760.581	0.2
761.016	0.2
761.452	0.19
761.887	0.19
762.322	0.19
762.758	0.19
763.193	0.19
763.628	0.19
764.063	0.19
764.499	0.19
764.934	0.18
765.369	0.18
765.804	0.18
766.239	0.18
766.674	0.18
767.109	0.17
767.544	0.17
767.979	0.17
768.414	0.17
768.849	0.16
769.284	0.16
769.719	0.16
770.154	0.16
770.588	0.15
771.023	0.15
771.458	0.15
771.893	0.14
772.327	0.14
772.762	0.14
773.197	0.13
773.631	0.13
774.066	0.13
774.5	0.12
774.935	0.12
775.369	0.11
775.804	0.11
776.238	0.1
776.673	0.1
777.107	0.1
777.541	0.09
777.976	0.09
778.41	0.09
778.844	0.08
779.279	0.08
779.713	0.08
780.147	0.07
780.581	0.07
781.015	0.06
781.449	0.06
781.883	0.05
782.317	0.05
782.751	0.04
783.185	0.04
783.619	0.03
784.053	0.02
784.487	0.02
784.921	0.01
785.355	0
785.789	-0
786.223	-0.01
786.656	-0.01
787.09	-0.02
787.524	-0.02
787.957	-0.03
788.391	-0.04
788.825	-0.05
789.258	-0.05
789.692	-0.06
790.125	-0.07
790.559	-0.08
790.992	-0.09
791.426	-0.1
791.859	-0.1
792.293	-0.09
792.726	-0.09
793.159	-0.09
793.593	-0.1
794.026	-0.1
794.459	-0.11
794.892	-0.11
795.326	-0.11
795.759	-0.11
796.192	-0.11
796.625	-0.12
797.058	-0.13
797.491	-0.14
797.924	-0.15
798.357	-0.15
798.79	-0.15
799.223	-0.15
799.656	-0.15
800.089	-0.15
800.522	-0.15
800.955	-0.16
801.387	-0.15
801.82	-0.16
802.253	-0.16
802.686	-0.16
803.118	-0.16
803.551	-0.16
803.984	-0.15
804.416	-0.15
804.849	-0.14
805.281	-0.14
805.714	-0.14
806.146	-0.14
806.579	-0.13
807.011	-0.13
807.444	-0.13
807.876	-0.13
808.308	-0.13
808.741	-0.14
809.173	-0.14
809.605	-0.15
810.037	-0.15
810.47	-0.15
810.902	-0.16
811.334	-0.16
811.766	-0.16
812.198	-0.15
812.63	-0.15
813.062	-0.15
813.494	-0.14
813.926	-0.13
814.358	-0.12
814.79	-0.11
815.222	-0.1
815.654	-0.09
816.086	-0.07
816.518	-0.06
816.949	-0.05
817.381	-0.04
817.813	-0.03
818.245	-0.02
818.676	-0.01
819.108	-0
819.54	0.01
819.971	0.01
820.403	0.02
820.834	0.03
821.266	0.03
821.697	0.04
822.129	0.04
822.56	0.05
822.991	0.05
823.423	0.06
823.854	0.06
824.286	0.06
824.717	0.07
825.148	0.07
825.579	0.07
826.01	0.08
826.442	0.08
826.873	0.08
827.304	0.08
827.735	0.09
828.166	0.09
828.597	0.09
829.028	0.09
829.459	0.09
829.89	0.09
830.321	0.09
830.752	0.09
831.183	0.1
831.613	0.1
832.044	0.1
832.475	0.1
832.906	0.1
833.336	0.1
833.767	0.1
834.198	0.1
834.628	0.1
835.059	0.1
835.49	0.1
835.92	0.1
836.351	0.1
836.781	0.1
837.212	0.11
837.642	0.11
838.072	0.11
838.503	0.11
838.933	0.11
839.364	0.11
839.794	0.11
840.224	0.11
840.654	0.11
841.085	0.11
841.515	0.11
841.945	0.11
842.375	0.11
842.805	0.11
843.235	0.1
843.665	0.1
844.095	0.1
844.525	0.1
844.955	0.1
845.385	0.1
845.815	0.1
846.245	0.1
846.675	0.1
847.105	0.1
847.534	0.1
847.964	0.1
848.394	0.1
848.824	0.1
849.253	0.1
849.683	0.1
850.112	0.1
850.542	0.1
850.972	0.1
851.401	0.1
851.831	0.1
852.26	0.1
852.69	0.1
853.119	0.1
853.548	0.1
853.978	0.1
854.407	0.1
854.836	0.1
855.266	0.11
855.695	0.11
856.124	0.11
856.553	0.11
856.983	0.11
857.412	0.11
857.841	0.11
858.27	0.11
858.699	0.11
859.128	0.11
859.557	0.11
859.986	0.11
860.415	0.11
860.844	0.11
861.273	0.11
861.702	0.11
862.13	0.11
862.559	0.1
862.988	0.1
863.417	0.1
863.845	0.1
864.274	0.1
864.703	0.1
865.131	0.1
865.56	0.1
865.989	0.1
866.417	0.1
866.846	0.1
867.274	0.1
867.703	0.1
868.131	0.1
868.559	0.1
868.988	0.1
869.416	0.1
869.844	0.1
870.273	0.1
870.701	0.1
871.129	0.09
871.557	0.09
871.986	0.09
872.414	0.09
872.842	0.09
873.27	0.09
873.698	0.09
874.126	0.09
874.554	0.09
874.982	0.09
875.41	0.09
875.838	0.09
876.266	0.09
876.694	0.09
877.122	0.09
877.549	0.09
877.977	0.09
878.405	0.09
878.833	0.09
879.26	0.09
879.688	0.09
880.116	0.09
880.543	0.09
880.971	0.09
881.399	0.09
881.826	0.09
882.254	0.09
882.681	0.09
883.109	0.09
883.536	0.09
883.963	0.09
884.391	0.09
884.818	0.09
885.245	0.09
885.673	0.09
886.1	0.09
886.527	0.09
886.954	0.09
887.381	0.09
887.809	0.09
888.236	0.09
888.663	0.08
889.09	0.08
889.517	0.08
889.944	0.08
890.371	0.08
890.798	0.08
891.225	0.08
891.652	0.08
892.078	0.08
892.505	0.08
892.932	0.08
893.359	0.08
893.786	0.08
894.212	0.08
894.639	0.08
895.066	0.08
895.492	0.08
895.919	0.08
896.346	0.08
896.772	0.08
897.199	0.08
897.625	0.08
898.052	0.07
898.478	0.07
898.904	0.07
899.331	0.07
899.757	0.07
900.183	0.06
900.61	0.06
901.036	0.06
901.462	0.06
901.888	0.06
902.315	0.06
902.741	0.06
903.167	0.06
903.593	0.06
904.019	0.06
904.445	0.06
904.871	0.06
905.297	0.06
905.723	0.06
906.149	0.06
906.575	0.06
907.001	0.06
907.427	0.07
907.852	0.07
908.278	0.07
908.704	0.07
909.13	0.07
909.555	0.07
909.981	0.07
910.407	0.07
910.832	0.07
911.258	0.07
911.684	0.07
912.109	0.07
912.535	0.07
912.96	0.07
913.386	0.07
913.811	0.07
914.236	0.07
914.662	0.07
915.087	0.07
915.512	0.07
915.938	0.07
916.363	0.07
916.788	0.07
917.213	0.07
917.639	0.07
918.064	0.07
918.489	0.07
918.914	0.07
919.339	0.07
919.764	0.07
920.189	0.07
920.614	0.07
921.039	0.07
921.464	0.07
921.889	0.07
922.314	0.07
922.738	0.07
923.163	0.07
923.588	0.07
924.013	0.07
924.437	0.07
924.862	0.07
925.287	0.07
925.711	0.07
926.136	0.07
926.561	0.07
926.985	0.07
927.41	0.07
927.834	0.07
928.259	0.07
928.683	0.07
929.108	0.07
929.532	0.07
929.956	0.07
930.381	0.07
930.805	0.07
931.229	0.07
931.653	0.07
932.078	0.07
932.502	0.07
932.926	0.07
933.35	0.07
933.774	0.07
934.198	0.07
934.622	0.07
935.046	0.07
935.47	0.07
935.894	0.07
936.318	0.07
936.742	0.07
937.166	0.07
937.59	0.07
938.014	0.06
938.437	0.06
938.861	0.06
939.285	0.06
939.709	0.06
940.132	0.06
940.556	0.06
940.98	0.06
941.403	0.06
941.827	0.06
942.25	0.06
942.674	0.06
943.097	0.06
943.521	0.06
943.944	0.06
944.368	0.06
944.791	0.06
945.214	0.06
945.638	0.06
946.061	0.06
946.484	0.06
946.907	0.06
947.331	0.06
947.754	0.06
948.177	0.06
948.6	0.05
949.023	0.05
949.446	0.05
949.869	0.05
950.292	0.05
950.715	0.05
951.138	0.05
951.561	0.04
951.984	0.04
952.407	0.04
952.83	0.04
953.252	0.04
953.675	0.04
954.098	0.04
954.521	0.04
954.943	0.04
955.366	0.04
955.789	0.04
956.211	0.04
956.634	0.04
957.056	0.05
957.479	0.05
957.902	0.05
958.324	0.05
958.746	0.05
959.169	0.05
959.591	0.05
960.014	0.05
960.436	0.06
960.858	0.06
961.281	0.06
961.703	0.06
962.125	0.06
962.547	0.06
962.969	0.06
963.391	0.06
963.814	0.06
964.236	0.06
964.658	0.06
965.08	0.06
965.502	0.06
965.924	0.06
966.346	0.05
966.768	0.05
967.189	0.05
967.611	0.05
968.033	0.05
968.455	0.05
968.877	0.05
969.298	0.05
969.72	0.05
970.142	0.05
970.563	0.05
970.985	0.05
971.407	0.05
971.828	0.05
972.25	0.05
972.671	0.05
973.093	0.05
973.514	0.05
973.936	0.06
974.357	0.06
974.778	0.06
975.2	0.05
975.621	0.05
976.042	0.05
976.464	0.05
976.885	0.05
977.306	0.05
977.727	0.05
978.148	0.05
978.57	0.05
978.991	0.05
979.412	0.05
979.833	0.05
980.254	0.05
980.675	0.05
981.096	0.05
981.517	0.05
981.937	0.05
982.358	0.05
982.779	0.05
983.2	0.05
983.621	0.05
984.042	0.05
984.462	0.05
984.883	0.05
985.304	0.05
985.724	0.05
986.145	0.04
986.565	0.04
986.986	0.04
987.407	0.04
987.827	0.04
988.248	0.04
988.668	0.04
989.088	0.04
989.509	0.04
989.929	0.04
990.35	0.04
990.77	0.04
991.19	0.04
991.61	0.04
992.031	0.04
992.451	0.04
992.871	0.04
993.291	0.04
993.711	0.04
994.131	0.04
994.551	0.04
994.971	0.04
995.391	0.04
995.811	0.04
996.231	0.03
996.651	0.03
997.071	0.03
997.491	0.03
997.911	0.03
998.331	0.03
998.75	0.04
999.17	0.04
999.59	0.04
1000.009	0.04
1000.429	0.04
1000.849	0.04
1001.268	0.04
1001.688	0.04
1002.107	0.04
1002.527	0.04
1002.946	0.04
1003.366	0.04
1003.785	0.04
1004.205	0.03
1004.624	0.03
1005.044	0.03
1005.463	0.03
1005.882	0.03
1006.301	0.03
1006.721	0.03
1007.14	0.03
1007.559	0.03
1007.978	0.03
1008.397	0.03
1008.816	0.03
1009.235	0.03
1009.655	0.03
1010.074	0.03
1010.492	0.03
1010.911	0.03
1011.33	0.03
1011.749	0.03
1012.168	0.02
1012.587	0.02
1013.006	0.03
1013.425	0.03
1013.843	0.03
1014.262	0.03
1014.681	0.03
1015.099	0.03
1015.518	0.03
1015.937	0.03
1016.355	0.03
1016.774	0.03
1017.192	0.03
1017.611	0.03
1018.029	0.03
1018.448	0.03
1018.866	0.03
1019.285	0.03
1019.703	0.03
1020.121	0.03
1020.54	0.03
1020.958	0.03
1021.376	0.03
1021.794	0.03
1022.213	0.03
1022.631	0.03
1023.049	0.03
1023.467	0.03
1023.885	0.03
1024.303	0.03
1024.721	0.03
1025.139	0.03
1025.557	0.03
1025.975	0.03
1026.393	0.03
1026.811	0.03
1027.229	0.03
1027.647	0.03
1028.065	0.03
1028.482	0.03
1028.9	0.03
1029.318	0.03
1029.735	0.03
1030.153	0.03
1030.571	0.03
1030.988	0.03
1031.406	0.03
1031.823	0.03
1032.241	0.03
1032.659	0.03
1033.076	0.03
1033.493	0.03
1033.911	0.03
1034.328	0.03
1034.746	0.03
1035.163	0.03
1035.58	0.03
1035.997	0.03
1036.415	0.03
1036.832	0.03
1037.249	0.03
1037.666	0.03
1038.083	0.03
1038.501	0.03
1038.918	0.03
1039.335	0.03
1039.752	0.03
1040.169	0.03
1040.586	0.03
1041.003	0.03
1041.419	0.03
1041.836	0.03
1042.253	0.03
1042.67	0.03
1043.087	0.03
1043.504	0.03
1043.92	0.03
1044.337	0.03
1044.754	0.03
1045.17	0.03
1045.587	0.03
1046.004	0.03
1046.42	0.03
1046.837	0.03
1047.253	0.03
1047.67	0.03
1048.086	0.03
1048.503	0.03
1048.919	0.03
1049.335	0.03
1049.752	0.03
1050.168	0.03
1050.584	0.03
1051.001	0.03
1051.417	0.03
1051.833	0.03
1052.249	0.03
1052.665	0.03
1053.081	0.03
1053.497	0.03
1053.914	0.03
1054.33	0.03
1054.746	0.03
1055.162	0.03
1055.578	0.03
1055.993	0.03
1056.409	0.03
1056.825	0.03
1057.241	0.03
1057.657	0.03
1058.073	0.02
1058.488	0.02
1058.904	0.02
1059.32	0.02
1059.736	0.02
1060.151	0.02
1060.567	0.02
1060.982	0.02
1061.398	0.02
1061.813	0.02
1062.229	0.02
1062.644	0.02
1063.06	0.02
1063.475	0.02
1063.891	0.02
1064.306	0.02
1064.721	0.02
1065.137	0.02
1065.552	0.02
1065.967	0.02
1066.382	0.02
1066.798	0.02
1067.213	0.02
1067.628	0.02
1068.043	0.02
1068.458	0.02
1068.873	0.02
1069.288	0.02
1069.703	0.02
1070.118	0.02
1070.533	0.02
1070.948	0.02
1071.363	0.02
1071.778	0.02
1072.193	0.02
1072.607	0.02
1073.022	0.02
1073.437	0.02
1073.852	0.02
1074.266	0.01
1074.681	0.01
1075.096	0.01
1075.51	0.01
1075.925	0.01
1076.339	0.01
1076.754	0.01
1077.168	0.01
1077.583	0.01
1077.997	0.01
1078.412	0.01
1078.826	0.01
1079.24	0.01
1079.655	0.01
1080.069	0.01
1080.483	0.01
1080.897	0.01
1081.312	0.01
1081.726	0.01
1082.14	0.01
1082.554	0.01
1082.968	0.01
1083.382	0.01
1083.796	0.01
1084.21	0.01
1084.624	0.01
1085.038	0.01
1085.452	0.01
1085.866	0.01
1086.28	0.01
1086.694	0.01
1087.108	0.01
1087.521	0.01
1087.935	0.01
1088.349	0.01
1088.763	0.01
1089.176	0.01
1089.59	0.01
1090.004	0.01
1090.417	0.01
1090.831	0
1091.244	0
1091.658	0
1092.071	0
1092.485	0
1092.898	0
1093.312	0
1093.725	0
1094.138	0
1094.552	-0
1094.965	-0
1095.378	-0
1095.791	-0
1096.205	-0
1096.618	-0
1097.031	-0
1097.444	-0
1097.857	-0.01
1098.27	-0.01
1098.683	-0.01
1099.096	-0.01
1099.509	-0.01
1099.922	-0.01
1100.335	-0.01
1100.748	-0.01
1101.161	-0.01
1101.574	-0.01
1101.986	-0.01
1102.399	-0.01
1102.812	-0.01
1103.225	-0.01
1103.637	-0.01
1104.05	-0.01
1104.463	-0.02
1104.875	-0.02
1105.288	-0.02
1105.7	-0.02
1106.113	-0.02
1106.525	-0.03
1106.938	-0.03
1107.35	-0.03
1107.763	-0.03
1108.175	-0.03
1108.588	-0.03
1109	-0.04
1109.412	-0.04
1109.824	-0.04
1110.237	-0.04
1110.649	-0.04
1111.061	-0.04
