Data from 2024-02-06-100ns-20nr-25nacl-100h2o-7bp2-1_5a808-40to10hyt-0_5cpm_Absorbance__63__00190.txt Node

Date: Tue Feb 06 12:39:21 CET 2024
User: Laser008
Spectrometer: MAYP115816
Trigger mode: 0
Integration Time (sec): 2.000000E-1
Scans to average: 10
Electric dark correction enabled: true
Nonlinearity correction enabled: true
Boxcar width: 5
XAxis mode: Wavelengths
Number of Pixels in Spectrum: 2068
>>>>>Begin Spectral Data<<<<<
198.914	-0.31
199.384	-0.28
199.855	-0.22
200.325	-0.18
200.796	-0.15
201.266	-0.14
201.737	-0.13
202.207	-0.12
202.677	-0.11
203.147	-0.11
203.618	-0.1
204.088	-0.09
204.558	-0.08
205.028	-0.07
205.498	-0.07
205.968	-0.08
206.439	-0.08
206.909	-0.07
207.379	-0.07
207.849	-0.07
208.319	-0.07
208.789	-0.07
209.258	-0.08
209.728	-0.08
210.198	-0.08
210.668	-0.08
211.138	-0.08
211.608	-0.08
212.077	-0.09
212.547	-0.09
213.017	-0.09
213.486	-0.09
213.956	-0.09
214.426	-0.09
214.895	-0.08
215.365	-0.09
215.834	-0.08
216.304	-0.08
216.773	-0.08
217.243	-0.08
217.712	-0.07
218.181	-0.08
218.651	-0.07
219.12	-0.07
219.589	-0.07
220.058	-0.07
220.528	-0.07
220.997	-0.07
221.466	-0.07
221.935	-0.07
222.404	-0.07
222.873	-0.06
223.342	-0.06
223.812	-0.06
224.281	-0.05
224.749	-0.05
225.218	-0.05
225.687	-0.04
226.156	-0.04
226.625	-0.03
227.094	-0.03
227.563	-0.01
228.031	-0.01
228.5	0
228.969	0.02
229.438	0.03
229.906	0.05
230.375	0.06
230.844	0.08
231.312	0.1
231.781	0.11
232.249	0.13
232.718	0.14
233.186	0.16
233.655	0.18
234.123	0.19
234.591	0.2
235.06	0.21
235.528	0.22
235.996	0.23
236.465	0.24
236.933	0.25
237.401	0.25
237.869	0.26
238.337	0.27
238.805	0.27
239.274	0.27
239.742	0.28
240.21	0.28
240.678	0.29
241.146	0.29
241.614	0.29
242.081	0.29
242.549	0.3
243.017	0.3
243.485	0.3
243.953	0.3
244.421	0.3
244.888	0.31
245.356	0.31
245.824	0.31
246.291	0.31
246.759	0.31
247.227	0.32
247.694	0.32
248.162	0.32
248.629	0.32
249.097	0.32
249.564	0.33
250.032	0.33
250.499	0.33
250.967	0.33
251.434	0.33
251.901	0.33
252.369	0.34
252.836	0.34
253.303	0.34
253.77	0.34
254.237	0.34
254.705	0.34
255.172	0.34
255.639	0.35
256.106	0.35
256.573	0.35
257.04	0.35
257.507	0.35
257.974	0.35
258.441	0.35
258.908	0.35
259.375	0.35
259.841	0.35
260.308	0.35
260.775	0.35
261.242	0.35
261.709	0.35
262.175	0.35
262.642	0.35
263.109	0.35
263.575	0.35
264.042	0.35
264.508	0.35
264.975	0.35
265.441	0.35
265.908	0.35
266.374	0.35
266.841	0.34
267.307	0.34
267.773	0.34
268.24	0.34
268.706	0.34
269.172	0.34
269.639	0.34
270.105	0.33
270.571	0.33
271.037	0.33
271.503	0.33
271.969	0.33
272.435	0.33
272.902	0.32
273.368	0.32
273.834	0.32
274.3	0.32
274.765	0.32
275.231	0.32
275.697	0.31
276.163	0.31
276.629	0.31
277.095	0.31
277.56	0.31
278.026	0.3
278.492	0.3
278.958	0.3
279.423	0.3
279.889	0.3
280.354	0.29
280.82	0.29
281.286	0.29
281.751	0.29
282.217	0.29
282.682	0.28
283.147	0.28
283.613	0.28
284.078	0.28
284.544	0.28
285.009	0.27
285.474	0.27
285.939	0.27
286.405	0.27
286.87	0.27
287.335	0.27
287.8	0.26
288.265	0.26
288.73	0.26
289.195	0.26
289.66	0.26
290.125	0.26
290.59	0.26
291.055	0.26
291.52	0.25
291.985	0.25
292.45	0.25
292.915	0.25
293.38	0.25
293.844	0.25
294.309	0.25
294.774	0.25
295.239	0.25
295.703	0.25
296.168	0.24
296.632	0.24
297.097	0.24
297.562	0.24
298.026	0.24
298.491	0.24
298.955	0.24
299.419	0.24
299.884	0.24
300.348	0.24
300.813	0.24
301.277	0.24
301.741	0.24
302.205	0.24
302.67	0.24
303.134	0.24
303.598	0.24
304.062	0.24
304.526	0.24
304.99	0.24
305.454	0.24
305.919	0.24
306.383	0.24
306.847	0.23
307.31	0.23
307.774	0.23
308.238	0.23
308.702	0.23
309.166	0.23
309.63	0.23
310.094	0.23
310.557	0.23
311.021	0.23
311.485	0.23
311.948	0.23
312.412	0.23
312.876	0.23
313.339	0.23
313.803	0.23
314.266	0.23
314.73	0.23
315.193	0.23
315.657	0.23
316.12	0.23
316.584	0.23
317.047	0.23
317.51	0.23
317.973	0.23
318.437	0.23
318.9	0.23
319.363	0.23
319.826	0.23
320.29	0.23
320.753	0.22
321.216	0.22
321.679	0.22
322.142	0.22
322.605	0.22
323.068	0.22
323.531	0.22
323.994	0.22
324.457	0.22
324.92	0.22
325.382	0.22
325.845	0.22
326.308	0.22
326.771	0.22
327.233	0.22
327.696	0.22
328.159	0.22
328.622	0.22
329.084	0.22
329.547	0.22
330.009	0.22
330.472	0.22
330.934	0.22
331.397	0.22
331.859	0.22
332.322	0.22
332.784	0.22
333.246	0.22
333.709	0.21
334.171	0.21
334.633	0.21
335.096	0.21
335.558	0.21
336.02	0.21
336.482	0.21
336.944	0.21
337.406	0.21
337.868	0.21
338.331	0.21
338.793	0.21
339.255	0.21
339.717	0.21
340.178	0.21
340.64	0.21
341.102	0.21
341.564	0.21
342.026	0.21
342.488	0.21
342.949	0.21
343.411	0.21
343.873	0.21
344.335	0.21
344.796	0.21
345.258	0.21
345.719	0.21
346.181	0.21
346.643	0.21
347.104	0.21
347.566	0.21
348.027	0.21
348.488	0.21
348.95	0.21
349.411	0.21
349.873	0.21
350.334	0.21
350.795	0.21
351.256	0.21
351.718	0.21
352.179	0.21
352.64	0.21
353.101	0.2
353.562	0.2
354.023	0.2
354.484	0.2
354.945	0.2
355.406	0.2
355.867	0.2
356.328	0.2
356.789	0.2
357.25	0.2
357.711	0.2
358.172	0.2
358.633	0.2
359.093	0.2
359.554	0.2
360.015	0.2
360.476	0.2
360.936	0.2
361.397	0.2
361.858	0.2
362.318	0.2
362.779	0.2
363.239	0.2
363.7	0.2
364.16	0.2
364.621	0.2
365.081	0.2
365.541	0.2
366.002	0.2
366.462	0.2
366.922	0.2
367.383	0.2
367.843	0.2
368.303	0.2
368.763	0.2
369.223	0.2
369.684	0.2
370.144	0.2
370.604	0.2
371.064	0.2
371.524	0.2
371.984	0.2
372.444	0.2
372.904	0.2
373.363	0.2
373.823	0.2
374.283	0.2
374.743	0.2
375.203	0.2
375.663	0.2
376.122	0.2
376.582	0.2
377.042	0.2
377.501	0.2
377.961	0.2
378.42	0.2
378.88	0.2
379.34	0.2
379.799	0.2
380.259	0.2
380.718	0.2
381.177	0.2
381.637	0.2
382.096	0.2
382.555	0.2
383.015	0.2
383.474	0.2
383.933	0.2
384.393	0.2
384.852	0.2
385.311	0.2
385.77	0.2
386.229	0.2
386.688	0.2
387.147	0.2
387.606	0.2
388.065	0.2
388.524	0.2
388.983	0.2
389.442	0.2
389.901	0.2
390.36	0.2
390.819	0.2
391.277	0.2
391.736	0.2
392.195	0.2
392.654	0.2
393.112	0.2
393.571	0.2
394.03	0.2
394.488	0.19
394.947	0.19
395.405	0.19
395.864	0.19
396.322	0.19
396.781	0.19
397.239	0.19
397.698	0.19
398.156	0.19
398.614	0.19
399.073	0.19
399.531	0.19
399.989	0.19
400.447	0.19
400.905	0.19
401.364	0.19
401.822	0.19
402.28	0.19
402.738	0.19
403.196	0.19
403.654	0.19
404.112	0.19
404.57	0.19
405.028	0.19
405.486	0.19
405.944	0.19
406.402	0.19
406.859	0.19
407.317	0.19
407.775	0.19
408.233	0.19
408.691	0.19
409.148	0.19
409.606	0.19
410.064	0.19
410.521	0.19
410.979	0.19
411.436	0.19
411.894	0.19
412.351	0.19
412.809	0.19
413.266	0.19
413.724	0.19
414.181	0.19
414.638	0.19
415.096	0.19
415.553	0.19
416.01	0.19
416.467	0.19
416.925	0.19
417.382	0.19
417.839	0.19
418.296	0.19
418.753	0.19
419.21	0.19
419.667	0.19
420.124	0.19
420.581	0.19
421.038	0.19
421.495	0.19
421.952	0.19
422.409	0.19
422.866	0.18
423.322	0.18
423.779	0.18
424.236	0.18
424.693	0.18
425.149	0.18
425.606	0.18
426.063	0.18
426.519	0.18
426.976	0.18
427.433	0.18
427.889	0.18
428.346	0.18
428.802	0.18
429.258	0.18
429.715	0.18
430.171	0.18
430.628	0.18
431.084	0.18
431.54	0.18
431.997	0.18
432.453	0.18
432.909	0.18
433.365	0.18
433.821	0.18
434.277	0.18
434.734	0.18
435.19	0.18
435.646	0.18
436.102	0.18
436.558	0.18
437.014	0.18
437.47	0.18
437.925	0.18
438.381	0.18
438.837	0.18
439.293	0.18
439.749	0.18
440.205	0.18
440.66	0.18
441.116	0.18
441.572	0.18
442.027	0.18
442.483	0.18
442.939	0.18
443.394	0.18
443.85	0.18
444.305	0.18
444.761	0.18
445.216	0.18
445.672	0.18
446.127	0.18
446.582	0.18
447.038	0.18
447.493	0.18
447.948	0.18
448.403	0.18
448.859	0.17
449.314	0.17
449.769	0.17
450.224	0.17
450.679	0.17
451.134	0.17
451.589	0.17
452.044	0.17
452.499	0.17
452.954	0.17
453.409	0.17
453.864	0.17
454.319	0.17
454.774	0.17
455.229	0.17
455.684	0.17
456.138	0.17
456.593	0.17
457.048	0.17
457.503	0.17
457.957	0.17
458.412	0.17
458.866	0.17
459.321	0.17
459.776	0.17
460.23	0.17
460.685	0.17
461.139	0.17
461.593	0.17
462.048	0.17
462.502	0.17
462.957	0.17
463.411	0.17
463.865	0.17
464.319	0.17
464.774	0.17
465.228	0.17
465.682	0.17
466.136	0.17
466.59	0.17
467.044	0.17
467.499	0.17
467.953	0.17
468.407	0.17
468.861	0.17
469.315	0.17
469.768	0.17
470.222	0.17
470.676	0.17
471.13	0.17
471.584	0.17
472.038	0.17
472.491	0.17
472.945	0.17
473.399	0.17
473.852	0.17
474.306	0.17
474.76	0.17
475.213	0.17
475.667	0.17
476.12	0.17
476.574	0.17
477.027	0.17
477.481	0.17
477.934	0.17
478.388	0.17
478.841	0.17
479.294	0.17
479.748	0.17
480.201	0.17
480.654	0.17
481.107	0.17
481.561	0.17
482.014	0.17
482.467	0.17
482.92	0.17
483.373	0.17
483.826	0.17
484.279	0.17
484.732	0.17
485.185	0.18
485.638	0.18
486.091	0.18
486.544	0.18
486.997	0.18
487.449	0.18
487.902	0.18
488.355	0.18
488.808	0.18
489.26	0.18
489.713	0.18
490.166	0.18
490.618	0.18
491.071	0.18
491.523	0.18
491.976	0.18
492.429	0.18
492.881	0.18
493.333	0.18
493.786	0.18
494.238	0.19
494.691	0.19
495.143	0.19
495.595	0.19
496.048	0.19
496.5	0.19
496.952	0.19
497.404	0.19
497.856	0.19
498.309	0.19
498.761	0.19
499.213	0.19
499.665	0.2
500.117	0.2
500.569	0.2
501.021	0.2
501.473	0.2
501.925	0.2
502.377	0.2
502.828	0.2
503.28	0.2
503.732	0.21
504.184	0.21
504.636	0.21
505.087	0.21
505.539	0.21
505.991	0.21
506.442	0.21
506.894	0.21
507.345	0.21
507.797	0.21
508.249	0.21
508.7	0.22
509.151	0.22
509.603	0.22
510.054	0.22
510.506	0.22
510.957	0.22
511.408	0.22
511.86	0.22
512.311	0.22
512.762	0.22
513.213	0.22
513.665	0.23
514.116	0.23
514.567	0.23
515.018	0.23
515.469	0.23
515.92	0.23
516.371	0.23
516.822	0.23
517.273	0.23
517.724	0.23
518.175	0.23
518.626	0.23
519.076	0.24
519.527	0.24
519.978	0.24
520.429	0.24
520.88	0.24
521.33	0.24
521.781	0.24
522.232	0.24
522.682	0.24
523.133	0.24
523.583	0.24
524.034	0.24
524.484	0.24
524.935	0.25
525.385	0.25
525.836	0.25
526.286	0.25
526.736	0.25
527.187	0.25
527.637	0.25
528.087	0.25
528.538	0.25
528.988	0.25
529.438	0.25
529.888	0.25
530.338	0.25
530.788	0.26
531.238	0.26
531.688	0.26
532.139	0.26
532.589	0.26
533.038	0.26
533.488	0.26
533.938	0.26
534.388	0.26
534.838	0.26
535.288	0.26
535.738	0.26
536.187	0.26
536.637	0.26
537.087	0.26
537.537	0.26
537.986	0.26
538.436	0.26
538.885	0.27
539.335	0.27
539.785	0.27
540.234	0.27
540.684	0.27
541.133	0.27
541.582	0.27
542.032	0.27
542.481	0.27
542.931	0.27
543.38	0.27
543.829	0.27
544.278	0.27
544.728	0.27
545.177	0.27
545.626	0.27
546.075	0.27
546.524	0.27
546.973	0.27
547.422	0.27
547.871	0.27
548.32	0.27
548.769	0.28
549.218	0.28
549.667	0.28
550.116	0.28
550.565	0.28
551.014	0.28
551.463	0.28
551.911	0.28
552.36	0.28
552.809	0.28
553.258	0.28
553.706	0.28
554.155	0.28
554.603	0.28
555.052	0.28
555.501	0.28
555.949	0.28
556.398	0.28
556.846	0.28
557.294	0.28
557.743	0.28
558.191	0.28
558.64	0.28
559.088	0.28
559.536	0.28
559.985	0.28
560.433	0.28
560.881	0.28
561.329	0.28
561.777	0.28
562.225	0.28
562.674	0.28
563.122	0.28
563.57	0.28
564.018	0.28
564.466	0.28
564.914	0.28
565.362	0.28
565.809	0.28
566.257	0.28
566.705	0.28
567.153	0.28
567.601	0.28
568.048	0.28
568.496	0.28
568.944	0.28
569.392	0.28
569.839	0.28
570.287	0.28
570.734	0.28
571.182	0.28
571.63	0.28
572.077	0.28
572.525	0.28
572.972	0.28
573.419	0.28
573.867	0.28
574.314	0.28
574.761	0.28
575.209	0.28
575.656	0.28
576.103	0.28
576.551	0.28
576.998	0.27
577.445	0.27
577.892	0.27
578.339	0.27
578.786	0.27
579.233	0.27
579.68	0.27
580.127	0.27
580.574	0.27
581.021	0.27
581.468	0.27
581.915	0.27
582.362	0.27
582.809	0.27
583.255	0.27
583.702	0.26
584.149	0.26
584.596	0.26
585.042	0.26
585.489	0.26
585.936	0.26
586.382	0.26
586.829	0.26
587.275	0.26
587.722	0.26
588.168	0.26
588.615	0.26
589.061	0.25
589.508	0.25
589.954	0.25
590.4	0.25
590.847	0.25
591.293	0.25
591.739	0.25
592.185	0.25
592.632	0.25
593.078	0.25
593.524	0.25
593.97	0.25
594.416	0.24
594.862	0.24
595.308	0.24
595.754	0.24
596.2	0.24
596.646	0.24
597.092	0.24
597.538	0.24
597.984	0.24
598.43	0.24
598.876	0.24
599.321	0.23
599.767	0.23
600.213	0.23
600.659	0.23
601.104	0.23
601.55	0.23
601.995	0.23
602.441	0.23
602.887	0.23
603.332	0.23
603.778	0.23
604.223	0.22
604.668	0.22
605.114	0.22
605.559	0.22
606.005	0.22
606.45	0.22
606.895	0.22
607.341	0.22
607.786	0.22
608.231	0.21
608.676	0.21
609.121	0.21
609.566	0.21
610.012	0.21
610.457	0.21
610.902	0.21
611.347	0.21
611.792	0.21
612.237	0.21
612.682	0.21
613.127	0.2
613.571	0.2
614.016	0.2
614.461	0.2
614.906	0.2
615.351	0.2
615.795	0.2
616.24	0.2
616.685	0.2
617.129	0.2
617.574	0.2
618.019	0.19
618.463	0.19
618.908	0.19
619.352	0.19
619.797	0.19
620.241	0.19
620.686	0.19
621.13	0.19
621.574	0.19
622.019	0.19
622.463	0.19
622.907	0.19
623.352	0.19
623.796	0.19
624.24	0.19
624.684	0.19
625.128	0.18
625.572	0.18
626.016	0.18
626.461	0.18
626.905	0.18
627.349	0.18
627.793	0.18
628.236	0.18
628.68	0.18
629.124	0.18
629.568	0.18
630.012	0.18
630.456	0.18
630.9	0.18
631.343	0.18
631.787	0.18
632.231	0.18
632.674	0.18
633.118	0.18
633.562	0.18
634.005	0.18
634.449	0.18
634.892	0.18
635.336	0.18
635.779	0.18
636.223	0.18
636.666	0.18
637.109	0.18
637.553	0.18
637.996	0.18
638.439	0.18
638.883	0.18
639.326	0.18
639.769	0.18
640.212	0.18
640.655	0.18
641.099	0.18
641.542	0.18
641.985	0.18
642.428	0.18
642.871	0.18
643.314	0.18
643.757	0.18
644.2	0.18
644.643	0.18
645.085	0.18
645.528	0.18
645.971	0.19
646.414	0.19
646.857	0.19
647.299	0.19
647.742	0.19
648.185	0.19
648.627	0.19
649.07	0.19
649.513	0.2
649.955	0.2
650.398	0.2
650.84	0.2
651.283	0.2
651.725	0.2
652.168	0.2
652.61	0.2
653.052	0.21
653.495	0.21
653.937	0.16
654.379	0.13
654.821	0.13
655.264	0.13
655.706	0.13
656.148	0.14
656.59	0.14
657.032	0.14
657.474	0.14
657.916	0.14
658.358	0.13
658.8	0.17
659.242	0.22
659.684	0.23
660.126	0.23
660.568	0.23
661.01	0.23
661.452	0.23
661.894	0.23
662.335	0.24
662.777	0.24
663.219	0.24
663.661	0.24
664.102	0.24
664.544	0.25
664.985	0.25
665.427	0.25
665.869	0.25
666.31	0.25
666.752	0.25
667.193	0.26
667.634	0.26
668.076	0.26
668.517	0.26
668.959	0.26
669.4	0.27
669.841	0.27
670.282	0.27
670.724	0.27
671.165	0.27
671.606	0.27
672.047	0.27
672.488	0.28
672.929	0.28
673.37	0.28
673.811	0.28
674.252	0.28
674.693	0.28
675.134	0.28
675.575	0.29
676.016	0.29
676.457	0.29
676.898	0.29
677.339	0.29
677.78	0.29
678.22	0.29
678.661	0.3
679.102	0.3
679.542	0.3
679.983	0.3
680.424	0.3
680.864	0.3
681.305	0.3
681.745	0.3
682.186	0.3
682.626	0.3
683.067	0.31
683.507	0.31
683.948	0.31
684.388	0.31
684.828	0.31
685.269	0.31
685.709	0.31
686.149	0.31
686.589	0.31
687.029	0.31
687.47	0.31
687.91	0.31
688.35	0.31
688.79	0.31
689.23	0.31
689.67	0.31
690.11	0.31
690.55	0.31
690.99	0.32
691.43	0.32
691.87	0.32
692.31	0.32
692.749	0.32
693.189	0.32
693.629	0.32
694.069	0.32
694.508	0.32
694.948	0.32
695.388	0.32
695.827	0.32
696.267	0.32
696.706	0.32
697.146	0.32
697.586	0.32
698.025	0.32
698.464	0.32
698.904	0.32
699.343	0.32
699.783	0.32
700.222	0.32
700.661	0.32
701.101	0.32
701.54	0.32
701.979	0.32
702.418	0.32
702.857	0.32
703.297	0.32
703.736	0.32
704.175	0.32
704.614	0.32
705.053	0.31
705.492	0.31
705.931	0.31
706.37	0.31
706.809	0.31
707.248	0.31
707.687	0.31
708.125	0.31
708.564	0.31
709.003	0.31
709.442	0.31
709.88	0.31
710.319	0.31
710.758	0.31
711.196	0.31
711.635	0.31
712.074	0.31
712.512	0.3
712.951	0.3
713.389	0.3
713.828	0.3
714.266	0.3
714.705	0.3
715.143	0.3
715.581	0.3
716.02	0.3
716.458	0.3
716.896	0.3
717.334	0.3
717.773	0.3
718.211	0.3
718.649	0.3
719.087	0.3
719.525	0.3
719.963	0.3
720.401	0.3
720.839	0.3
721.277	0.3
721.715	0.3
722.153	0.3
722.591	0.29
723.029	0.29
723.467	0.29
723.905	0.29
724.342	0.29
724.78	0.29
725.218	0.29
725.656	0.29
726.093	0.29
726.531	0.29
726.969	0.29
727.406	0.29
727.844	0.29
728.281	0.29
728.719	0.29
729.156	0.29
729.594	0.29
730.031	0.29
730.469	0.29
730.906	0.28
731.343	0.28
731.781	0.28
732.218	0.28
732.655	0.28
733.092	0.28
733.53	0.28
733.967	0.28
734.404	0.28
734.841	0.28
735.278	0.27
735.715	0.27
736.152	0.27
736.589	0.27
737.026	0.27
737.463	0.27
737.9	0.27
738.337	0.27
738.774	0.27
739.211	0.26
739.647	0.26
740.084	0.26
740.521	0.26
740.958	0.26
741.394	0.26
741.831	0.26
742.268	0.26
742.704	0.26
743.141	0.26
743.577	0.26
744.014	0.26
744.45	0.25
744.887	0.25
745.323	0.25
745.76	0.25
746.196	0.25
746.632	0.25
747.069	0.25
747.505	0.25
747.941	0.25
748.378	0.24
748.814	0.24
749.25	0.24
749.686	0.24
750.122	0.24
750.558	0.24
750.994	0.24
751.43	0.24
751.866	0.24
752.302	0.24
752.738	0.23
753.174	0.23
753.61	0.23
754.046	0.23
754.482	0.23
754.918	0.23
755.354	0.23
755.789	0.23
756.225	0.22
756.661	0.22
757.096	0.22
757.532	0.22
757.968	0.22
758.403	0.22
758.839	0.22
759.274	0.22
759.71	0.22
760.145	0.22
760.581	0.22
761.016	0.21
761.452	0.21
761.887	0.21
762.322	0.21
762.758	0.21
763.193	0.21
763.628	0.2
764.063	0.2
764.499	0.2
764.934	0.2
765.369	0.2
765.804	0.19
766.239	0.19
766.674	0.19
767.109	0.19
767.544	0.18
767.979	0.18
768.414	0.18
768.849	0.18
769.284	0.18
769.719	0.17
770.154	0.17
770.588	0.17
771.023	0.16
771.458	0.16
771.893	0.15
772.327	0.15
772.762	0.15
773.197	0.14
773.631	0.14
774.066	0.13
774.5	0.13
774.935	0.12
775.369	0.12
775.804	0.11
776.238	0.11
776.673	0.1
777.107	0.1
777.541	0.09
777.976	0.09
778.41	0.08
778.844	0.08
779.279	0.08
779.713	0.07
780.147	0.07
780.581	0.06
781.015	0.06
781.449	0.05
781.883	0.05
782.317	0.04
782.751	0.03
783.185	0.03
783.619	0.02
784.053	0.01
784.487	0.01
784.921	-0
785.355	-0.01
785.789	-0.02
786.223	-0.02
786.656	-0.03
787.09	-0.03
787.524	-0.04
787.957	-0.05
788.391	-0.06
788.825	-0.06
789.258	-0.07
789.692	-0.08
790.125	-0.09
790.559	-0.1
790.992	-0.1
791.426	-0.11
791.859	-0.11
792.293	-0.1
792.726	-0.1
793.159	-0.1
793.593	-0.1
794.026	-0.1
794.459	-0.11
794.892	-0.11
795.326	-0.11
795.759	-0.11
796.192	-0.11
796.625	-0.12
797.058	-0.13
797.491	-0.14
797.924	-0.15
798.357	-0.15
798.79	-0.15
799.223	-0.15
799.656	-0.15
800.089	-0.15
800.522	-0.15
800.955	-0.16
801.387	-0.15
801.82	-0.16
802.253	-0.16
802.686	-0.16
803.118	-0.16
803.551	-0.16
803.984	-0.15
804.416	-0.15
804.849	-0.14
805.281	-0.14
805.714	-0.14
806.146	-0.14
806.579	-0.13
807.011	-0.13
807.444	-0.13
807.876	-0.13
808.308	-0.13
808.741	-0.14
809.173	-0.14
809.605	-0.15
810.037	-0.15
810.47	-0.15
810.902	-0.16
811.334	-0.16
811.766	-0.16
812.198	-0.15
812.63	-0.15
813.062	-0.15
813.494	-0.15
813.926	-0.14
814.358	-0.13
814.79	-0.12
815.222	-0.11
815.654	-0.1
816.086	-0.09
816.518	-0.08
816.949	-0.07
817.381	-0.06
817.813	-0.05
818.245	-0.03
818.676	-0.02
819.108	-0.01
819.54	-0.01
819.971	0
820.403	0.01
820.834	0.02
821.266	0.02
821.697	0.03
822.129	0.04
822.56	0.04
822.991	0.05
823.423	0.05
823.854	0.05
824.286	0.06
824.717	0.06
825.148	0.07
825.579	0.07
826.01	0.07
826.442	0.07
826.873	0.08
827.304	0.08
827.735	0.08
828.166	0.08
828.597	0.09
829.028	0.09
829.459	0.09
829.89	0.09
830.321	0.09
830.752	0.09
831.183	0.09
831.613	0.09
832.044	0.1
832.475	0.1
832.906	0.1
833.336	0.1
833.767	0.1
834.198	0.1
834.628	0.1
835.059	0.1
835.49	0.1
835.92	0.1
836.351	0.1
836.781	0.1
837.212	0.1
837.642	0.1
838.072	0.11
838.503	0.11
838.933	0.11
839.364	0.11
839.794	0.11
840.224	0.11
840.654	0.11
841.085	0.11
841.515	0.11
841.945	0.11
842.375	0.1
842.805	0.1
843.235	0.1
843.665	0.1
844.095	0.1
844.525	0.1
844.955	0.1
845.385	0.1
845.815	0.11
846.245	0.11
846.675	0.1
847.105	0.1
847.534	0.1
847.964	0.1
848.394	0.1
848.824	0.1
849.253	0.1
849.683	0.1
850.112	0.1
850.542	0.1
850.972	0.1
851.401	0.1
851.831	0.1
852.26	0.1
852.69	0.1
853.119	0.1
853.548	0.1
853.978	0.1
854.407	0.1
854.836	0.1
855.266	0.1
855.695	0.1
856.124	0.1
856.553	0.1
856.983	0.1
857.412	0.11
857.841	0.11
858.27	0.11
858.699	0.11
859.128	0.11
859.557	0.11
859.986	0.11
860.415	0.11
860.844	0.11
861.273	0.11
861.702	0.11
862.13	0.11
862.559	0.11
862.988	0.1
863.417	0.1
863.845	0.1
864.274	0.1
864.703	0.1
865.131	0.1
865.56	0.1
865.989	0.1
866.417	0.1
866.846	0.1
867.274	0.1
867.703	0.1
868.131	0.1
868.559	0.1
868.988	0.1
869.416	0.09
869.844	0.09
870.273	0.09
870.701	0.09
871.129	0.09
871.557	0.09
871.986	0.09
872.414	0.09
872.842	0.09
873.27	0.09
873.698	0.09
874.126	0.08
874.554	0.08
874.982	0.08
875.41	0.08
875.838	0.08
876.266	0.08
876.694	0.08
877.122	0.08
877.549	0.08
877.977	0.08
878.405	0.08
878.833	0.08
879.26	0.08
879.688	0.08
880.116	0.08
880.543	0.08
880.971	0.08
881.399	0.08
881.826	0.08
882.254	0.08
882.681	0.08
883.109	0.08
883.536	0.08
883.963	0.08
884.391	0.08
884.818	0.08
885.245	0.08
885.673	0.08
886.1	0.08
886.527	0.08
886.954	0.08
887.381	0.08
887.809	0.08
888.236	0.08
888.663	0.08
889.09	0.08
889.517	0.08
889.944	0.08
890.371	0.08
890.798	0.08
891.225	0.08
891.652	0.08
892.078	0.08
892.505	0.08
892.932	0.08
893.359	0.08
893.786	0.07
894.212	0.07
894.639	0.07
895.066	0.07
895.492	0.07
895.919	0.07
896.346	0.07
896.772	0.07
897.199	0.07
897.625	0.07
898.052	0.07
898.478	0.07
898.904	0.06
899.331	0.06
899.757	0.06
900.183	0.06
900.61	0.06
901.036	0.06
901.462	0.06
901.888	0.06
902.315	0.06
902.741	0.06
903.167	0.06
903.593	0.06
904.019	0.06
904.445	0.06
904.871	0.06
905.297	0.06
905.723	0.06
906.149	0.06
906.575	0.07
907.001	0.07
907.427	0.07
907.852	0.07
908.278	0.07
908.704	0.07
909.13	0.07
909.555	0.07
909.981	0.07
910.407	0.07
910.832	0.07
911.258	0.07
911.684	0.07
912.109	0.07
912.535	0.07
912.96	0.07
913.386	0.07
913.811	0.07
914.236	0.07
914.662	0.07
915.087	0.07
915.512	0.07
915.938	0.07
916.363	0.06
916.788	0.06
917.213	0.06
917.639	0.06
918.064	0.06
918.489	0.06
918.914	0.06
919.339	0.06
919.764	0.06
920.189	0.06
920.614	0.06
921.039	0.06
921.464	0.06
921.889	0.06
922.314	0.06
922.738	0.06
923.163	0.06
923.588	0.07
924.013	0.07
924.437	0.07
924.862	0.07
925.287	0.07
925.711	0.07
926.136	0.07
926.561	0.07
926.985	0.07
927.41	0.07
927.834	0.07
928.259	0.07
928.683	0.07
929.108	0.07
929.532	0.06
929.956	0.06
930.381	0.06
930.805	0.06
931.229	0.06
931.653	0.06
932.078	0.06
932.502	0.06
932.926	0.06
933.35	0.06
933.774	0.06
934.198	0.06
934.622	0.06
935.046	0.06
935.47	0.06
935.894	0.06
936.318	0.06
936.742	0.06
937.166	0.06
937.59	0.06
938.014	0.05
938.437	0.05
938.861	0.05
939.285	0.05
939.709	0.05
940.132	0.05
940.556	0.05
940.98	0.05
941.403	0.05
941.827	0.05
942.25	0.05
942.674	0.05
943.097	0.05
943.521	0.05
943.944	0.05
944.368	0.05
944.791	0.05
945.214	0.05
945.638	0.05
946.061	0.05
946.484	0.05
946.907	0.05
947.331	0.05
947.754	0.05
948.177	0.04
948.6	0.04
949.023	0.04
949.446	0.04
949.869	0.04
950.292	0.04
950.715	0.04
951.138	0.04
951.561	0.04
951.984	0.03
952.407	0.03
952.83	0.03
953.252	0.03
953.675	0.03
954.098	0.03
954.521	0.03
954.943	0.03
955.366	0.03
955.789	0.04
956.211	0.04
956.634	0.04
957.056	0.04
957.479	0.04
957.902	0.04
958.324	0.04
958.746	0.05
959.169	0.05
959.591	0.05
960.014	0.05
960.436	0.05
960.858	0.05
961.281	0.05
961.703	0.05
962.125	0.05
962.547	0.05
962.969	0.05
963.391	0.05
963.814	0.05
964.236	0.05
964.658	0.05
965.08	0.05
965.502	0.05
965.924	0.05
966.346	0.05
966.768	0.05
967.189	0.05
967.611	0.05
968.033	0.05
968.455	0.05
968.877	0.05
969.298	0.05
969.72	0.05
970.142	0.05
970.563	0.05
970.985	0.05
971.407	0.04
971.828	0.04
972.25	0.04
972.671	0.04
973.093	0.05
973.514	0.05
973.936	0.05
974.357	0.05
974.778	0.05
975.2	0.05
975.621	0.05
976.042	0.05
976.464	0.05
976.885	0.05
977.306	0.05
977.727	0.05
978.148	0.05
978.57	0.05
978.991	0.05
979.412	0.05
979.833	0.05
980.254	0.05
980.675	0.05
981.096	0.05
981.517	0.05
981.937	0.05
982.358	0.05
982.779	0.05
983.2	0.05
983.621	0.05
984.042	0.05
984.462	0.04
984.883	0.04
985.304	0.04
985.724	0.04
986.145	0.04
986.565	0.04
986.986	0.04
987.407	0.04
987.827	0.04
988.248	0.04
988.668	0.04
989.088	0.04
989.509	0.04
989.929	0.04
990.35	0.04
990.77	0.04
991.19	0.04
991.61	0.04
992.031	0.03
992.451	0.03
992.871	0.03
993.291	0.03
993.711	0.03
994.131	0.03
994.551	0.03
994.971	0.03
995.391	0.03
995.811	0.03
996.231	0.03
996.651	0.03
997.071	0.03
997.491	0.03
997.911	0.03
998.331	0.03
998.75	0.03
999.17	0.03
999.59	0.03
1000.009	0.04
1000.429	0.04
1000.849	0.04
1001.268	0.04
1001.688	0.04
1002.107	0.04
1002.527	0.04
1002.946	0.04
1003.366	0.04
1003.785	0.04
1004.205	0.04
1004.624	0.03
1005.044	0.03
1005.463	0.03
1005.882	0.03
1006.301	0.03
1006.721	0.03
1007.14	0.03
1007.559	0.03
1007.978	0.03
1008.397	0.03
1008.816	0.03
1009.235	0.03
1009.655	0.03
1010.074	0.03
1010.492	0.03
1010.911	0.03
1011.33	0.03
1011.749	0.03
1012.168	0.03
1012.587	0.02
1013.006	0.02
1013.425	0.02
1013.843	0.02
1014.262	0.02
1014.681	0.03
1015.099	0.03
1015.518	0.03
1015.937	0.03
1016.355	0.03
1016.774	0.03
1017.192	0.03
1017.611	0.03
1018.029	0.03
1018.448	0.03
1018.866	0.03
1019.285	0.03
1019.703	0.03
1020.121	0.03
1020.54	0.03
1020.958	0.03
1021.376	0.03
1021.794	0.03
1022.213	0.03
1022.631	0.03
1023.049	0.03
1023.467	0.03
1023.885	0.03
1024.303	0.03
1024.721	0.03
1025.139	0.03
1025.557	0.03
1025.975	0.03
1026.393	0.03
1026.811	0.03
1027.229	0.03
1027.647	0.03
1028.065	0.03
1028.482	0.03
1028.9	0.03
1029.318	0.03
1029.735	0.03
1030.153	0.03
1030.571	0.03
1030.988	0.03
1031.406	0.03
1031.823	0.03
1032.241	0.03
1032.659	0.03
1033.076	0.03
1033.493	0.03
1033.911	0.03
1034.328	0.03
1034.746	0.03
1035.163	0.03
1035.58	0.03
1035.997	0.03
1036.415	0.03
1036.832	0.03
1037.249	0.03
1037.666	0.03
1038.083	0.03
1038.501	0.03
1038.918	0.03
1039.335	0.03
1039.752	0.03
1040.169	0.03
1040.586	0.03
1041.003	0.03
1041.419	0.03
1041.836	0.03
1042.253	0.03
1042.67	0.03
1043.087	0.03
1043.504	0.03
1043.92	0.03
1044.337	0.03
1044.754	0.03
1045.17	0.03
1045.587	0.03
1046.004	0.03
1046.42	0.03
1046.837	0.03
1047.253	0.03
1047.67	0.03
1048.086	0.03
1048.503	0.03
1048.919	0.03
1049.335	0.03
1049.752	0.03
1050.168	0.03
1050.584	0.03
1051.001	0.03
1051.417	0.03
1051.833	0.03
1052.249	0.03
1052.665	0.03
1053.081	0.03
1053.497	0.03
1053.914	0.03
1054.33	0.03
1054.746	0.02
1055.162	0.02
1055.578	0.02
1055.993	0.02
1056.409	0.02
1056.825	0.02
1057.241	0.02
1057.657	0.02
1058.073	0.02
1058.488	0.02
1058.904	0.02
1059.32	0.02
1059.736	0.01
1060.151	0.01
1060.567	0.01
1060.982	0.01
1061.398	0.01
1061.813	0.01
1062.229	0.01
1062.644	0.01
1063.06	0.01
1063.475	0.01
1063.891	0.01
1064.306	0.01
1064.721	0.01
1065.137	0.01
1065.552	0.01
1065.967	0.01
1066.382	0.01
1066.798	0.01
1067.213	0.01
1067.628	0.01
1068.043	0.01
1068.458	0.01
1068.873	0.01
1069.288	0.01
1069.703	0.01
1070.118	0.01
1070.533	0.01
1070.948	0.01
1071.363	0.01
1071.778	0.01
1072.193	0.01
1072.607	0.01
1073.022	0.01
1073.437	0.01
1073.852	0.01
1074.266	0.01
1074.681	0
1075.096	0
1075.51	0
1075.925	0
1076.339	0
1076.754	-0
1077.168	-0
1077.583	-0
1077.997	-0
1078.412	-0
1078.826	-0
1079.24	-0
1079.655	-0
1080.069	-0
1080.483	-0
1080.897	-0
1081.312	0
1081.726	0
1082.14	0
1082.554	0
1082.968	0
1083.382	0
1083.796	0
1084.21	0
1084.624	0
1085.038	0
1085.452	0.01
1085.866	0.01
1086.28	0.01
1086.694	0.01
1087.108	0.01
1087.521	0.01
1087.935	0
1088.349	0
1088.763	0
1089.176	0
1089.59	0
1090.004	0
1090.417	0
1090.831	-0
1091.244	-0
1091.658	-0
1092.071	-0
1092.485	-0
1092.898	-0
1093.312	-0
1093.725	-0
1094.138	-0
1094.552	-0
1094.965	-0
1095.378	-0
1095.791	-0.01
1096.205	-0.01
1096.618	-0.01
1097.031	-0.01
1097.444	-0.01
1097.857	-0.01
1098.27	-0.01
1098.683	-0.01
1099.096	-0.01
1099.509	-0.01
1099.922	-0.01
1100.335	-0.01
1100.748	-0.01
1101.161	-0.01
1101.574	-0.01
1101.986	-0.01
1102.399	-0.01
1102.812	-0.02
1103.225	-0.02
1103.637	-0.02
1104.05	-0.02
1104.463	-0.02
1104.875	-0.02
1105.288	-0.02
1105.7	-0.03
1106.113	-0.03
1106.525	-0.03
1106.938	-0.03
1107.35	-0.04
1107.763	-0.04
1108.175	-0.04
1108.588	-0.04
1109	-0.04
1109.412	-0.04
1109.824	-0.04
1110.237	-0.04
1110.649	-0.04
1111.061	-0.04
