Data from 2024-02-06-100ns-20nr-25nacl-100h2o-7bp2-1_5a808-40to10hyt-0_5cpm_Absorbance__58__00185.txt Node

Date: Tue Feb 06 12:36:51 CET 2024
User: Laser008
Spectrometer: MAYP115816
Trigger mode: 0
Integration Time (sec): 2.000000E-1
Scans to average: 10
Electric dark correction enabled: true
Nonlinearity correction enabled: true
Boxcar width: 5
XAxis mode: Wavelengths
Number of Pixels in Spectrum: 2068
>>>>>Begin Spectral Data<<<<<
198.914	-0.3
199.384	-0.27
199.855	-0.21
200.325	-0.17
200.796	-0.15
201.266	-0.14
201.737	-0.13
202.207	-0.12
202.677	-0.12
203.147	-0.12
203.618	-0.1
204.088	-0.09
204.558	-0.08
205.028	-0.08
205.498	-0.08
205.968	-0.08
206.439	-0.08
206.909	-0.08
207.379	-0.08
207.849	-0.08
208.319	-0.08
208.789	-0.08
209.258	-0.08
209.728	-0.08
210.198	-0.08
210.668	-0.09
211.138	-0.09
211.608	-0.08
212.077	-0.09
212.547	-0.09
213.017	-0.08
213.486	-0.09
213.956	-0.08
214.426	-0.08
214.895	-0.08
215.365	-0.08
215.834	-0.08
216.304	-0.08
216.773	-0.08
217.243	-0.08
217.712	-0.08
218.181	-0.07
218.651	-0.07
219.12	-0.07
219.589	-0.07
220.058	-0.07
220.528	-0.07
220.997	-0.07
221.466	-0.06
221.935	-0.07
222.404	-0.06
222.873	-0.06
223.342	-0.06
223.812	-0.06
224.281	-0.05
224.749	-0.05
225.218	-0.04
225.687	-0.04
226.156	-0.03
226.625	-0.02
227.094	-0.01
227.563	-0
228.031	0.01
228.5	0.01
228.969	0.03
229.438	0.04
229.906	0.06
230.375	0.07
230.844	0.09
231.312	0.11
231.781	0.12
232.249	0.14
232.718	0.16
233.186	0.18
233.655	0.2
234.123	0.21
234.591	0.23
235.06	0.24
235.528	0.25
235.996	0.26
236.465	0.27
236.933	0.28
237.401	0.28
237.869	0.29
238.337	0.3
238.805	0.3
239.274	0.31
239.742	0.31
240.21	0.32
240.678	0.32
241.146	0.32
241.614	0.33
242.081	0.33
242.549	0.33
243.017	0.33
243.485	0.34
243.953	0.34
244.421	0.34
244.888	0.34
245.356	0.34
245.824	0.35
246.291	0.35
246.759	0.35
247.227	0.35
247.694	0.35
248.162	0.36
248.629	0.36
249.097	0.36
249.564	0.36
250.032	0.36
250.499	0.37
250.967	0.37
251.434	0.37
251.901	0.37
252.369	0.37
252.836	0.38
253.303	0.38
253.77	0.38
254.237	0.38
254.705	0.38
255.172	0.38
255.639	0.38
256.106	0.39
256.573	0.39
257.04	0.39
257.507	0.39
257.974	0.39
258.441	0.39
258.908	0.39
259.375	0.39
259.841	0.39
260.308	0.39
260.775	0.39
261.242	0.39
261.709	0.39
262.175	0.39
262.642	0.39
263.109	0.39
263.575	0.39
264.042	0.39
264.508	0.39
264.975	0.39
265.441	0.39
265.908	0.38
266.374	0.38
266.841	0.38
267.307	0.38
267.773	0.38
268.24	0.38
268.706	0.38
269.172	0.38
269.639	0.37
270.105	0.37
270.571	0.37
271.037	0.37
271.503	0.37
271.969	0.36
272.435	0.36
272.902	0.36
273.368	0.36
273.834	0.36
274.3	0.35
274.765	0.35
275.231	0.35
275.697	0.35
276.163	0.35
276.629	0.35
277.095	0.34
277.56	0.34
278.026	0.34
278.492	0.34
278.958	0.33
279.423	0.33
279.889	0.33
280.354	0.33
280.82	0.32
281.286	0.32
281.751	0.32
282.217	0.32
282.682	0.32
283.147	0.31
283.613	0.31
284.078	0.31
284.544	0.31
285.009	0.31
285.474	0.3
285.939	0.3
286.405	0.3
286.87	0.3
287.335	0.3
287.8	0.3
288.265	0.29
288.73	0.29
289.195	0.29
289.66	0.29
290.125	0.29
290.59	0.29
291.055	0.29
291.52	0.28
291.985	0.28
292.45	0.28
292.915	0.28
293.38	0.28
293.844	0.28
294.309	0.28
294.774	0.28
295.239	0.28
295.703	0.27
296.168	0.27
296.632	0.27
297.097	0.27
297.562	0.27
298.026	0.27
298.491	0.27
298.955	0.27
299.419	0.27
299.884	0.27
300.348	0.27
300.813	0.27
301.277	0.27
301.741	0.27
302.205	0.27
302.67	0.27
303.134	0.26
303.598	0.26
304.062	0.26
304.526	0.26
304.99	0.26
305.454	0.26
305.919	0.26
306.383	0.26
306.847	0.26
307.31	0.26
307.774	0.26
308.238	0.26
308.702	0.26
309.166	0.26
309.63	0.26
310.094	0.26
310.557	0.26
311.021	0.26
311.485	0.26
311.948	0.26
312.412	0.26
312.876	0.25
313.339	0.25
313.803	0.25
314.266	0.25
314.73	0.25
315.193	0.25
315.657	0.25
316.12	0.25
316.584	0.25
317.047	0.25
317.51	0.25
317.973	0.25
318.437	0.25
318.9	0.25
319.363	0.25
319.826	0.25
320.29	0.25
320.753	0.25
321.216	0.25
321.679	0.25
322.142	0.25
322.605	0.25
323.068	0.25
323.531	0.24
323.994	0.24
324.457	0.24
324.92	0.24
325.382	0.24
325.845	0.24
326.308	0.24
326.771	0.24
327.233	0.24
327.696	0.24
328.159	0.24
328.622	0.24
329.084	0.24
329.547	0.24
330.009	0.24
330.472	0.24
330.934	0.24
331.397	0.24
331.859	0.24
332.322	0.24
332.784	0.24
333.246	0.24
333.709	0.24
334.171	0.24
334.633	0.23
335.096	0.23
335.558	0.23
336.02	0.23
336.482	0.23
336.944	0.23
337.406	0.23
337.868	0.23
338.331	0.23
338.793	0.23
339.255	0.23
339.717	0.23
340.178	0.23
340.64	0.23
341.102	0.23
341.564	0.23
342.026	0.23
342.488	0.23
342.949	0.23
343.411	0.23
343.873	0.23
344.335	0.23
344.796	0.23
345.258	0.23
345.719	0.23
346.181	0.23
346.643	0.23
347.104	0.23
347.566	0.23
348.027	0.23
348.488	0.22
348.95	0.22
349.411	0.22
349.873	0.22
350.334	0.22
350.795	0.22
351.256	0.22
351.718	0.22
352.179	0.22
352.64	0.22
353.101	0.22
353.562	0.22
354.023	0.22
354.484	0.22
354.945	0.22
355.406	0.22
355.867	0.22
356.328	0.22
356.789	0.22
357.25	0.22
357.711	0.22
358.172	0.22
358.633	0.22
359.093	0.22
359.554	0.22
360.015	0.22
360.476	0.22
360.936	0.22
361.397	0.22
361.858	0.22
362.318	0.22
362.779	0.22
363.239	0.22
363.7	0.22
364.16	0.22
364.621	0.22
365.081	0.22
365.541	0.22
366.002	0.22
366.462	0.22
366.922	0.22
367.383	0.22
367.843	0.22
368.303	0.22
368.763	0.22
369.223	0.22
369.684	0.22
370.144	0.22
370.604	0.22
371.064	0.22
371.524	0.22
371.984	0.22
372.444	0.22
372.904	0.22
373.363	0.22
373.823	0.22
374.283	0.22
374.743	0.22
375.203	0.22
375.663	0.22
376.122	0.22
376.582	0.22
377.042	0.22
377.501	0.22
377.961	0.22
378.42	0.22
378.88	0.22
379.34	0.22
379.799	0.22
380.259	0.22
380.718	0.22
381.177	0.22
381.637	0.22
382.096	0.22
382.555	0.22
383.015	0.22
383.474	0.22
383.933	0.22
384.393	0.22
384.852	0.21
385.311	0.21
385.77	0.21
386.229	0.21
386.688	0.21
387.147	0.21
387.606	0.21
388.065	0.21
388.524	0.21
388.983	0.21
389.442	0.21
389.901	0.21
390.36	0.21
390.819	0.21
391.277	0.21
391.736	0.21
392.195	0.21
392.654	0.21
393.112	0.21
393.571	0.21
394.03	0.21
394.488	0.21
394.947	0.21
395.405	0.21
395.864	0.21
396.322	0.21
396.781	0.21
397.239	0.21
397.698	0.21
398.156	0.21
398.614	0.21
399.073	0.21
399.531	0.21
399.989	0.21
400.447	0.21
400.905	0.21
401.364	0.21
401.822	0.21
402.28	0.21
402.738	0.21
403.196	0.21
403.654	0.21
404.112	0.21
404.57	0.21
405.028	0.21
405.486	0.21
405.944	0.21
406.402	0.21
406.859	0.21
407.317	0.21
407.775	0.21
408.233	0.21
408.691	0.2
409.148	0.2
409.606	0.2
410.064	0.2
410.521	0.2
410.979	0.2
411.436	0.2
411.894	0.2
412.351	0.2
412.809	0.2
413.266	0.2
413.724	0.2
414.181	0.2
414.638	0.2
415.096	0.2
415.553	0.2
416.01	0.2
416.467	0.2
416.925	0.2
417.382	0.2
417.839	0.2
418.296	0.2
418.753	0.2
419.21	0.2
419.667	0.2
420.124	0.2
420.581	0.2
421.038	0.2
421.495	0.2
421.952	0.2
422.409	0.2
422.866	0.2
423.322	0.2
423.779	0.2
424.236	0.2
424.693	0.2
425.149	0.2
425.606	0.2
426.063	0.2
426.519	0.2
426.976	0.2
427.433	0.2
427.889	0.2
428.346	0.2
428.802	0.2
429.258	0.2
429.715	0.2
430.171	0.2
430.628	0.2
431.084	0.2
431.54	0.19
431.997	0.19
432.453	0.19
432.909	0.19
433.365	0.19
433.821	0.19
434.277	0.19
434.734	0.19
435.19	0.19
435.646	0.19
436.102	0.19
436.558	0.19
437.014	0.19
437.47	0.19
437.925	0.19
438.381	0.19
438.837	0.19
439.293	0.19
439.749	0.19
440.205	0.19
440.66	0.19
441.116	0.19
441.572	0.19
442.027	0.19
442.483	0.19
442.939	0.19
443.394	0.19
443.85	0.19
444.305	0.19
444.761	0.19
445.216	0.19
445.672	0.19
446.127	0.19
446.582	0.19
447.038	0.19
447.493	0.19
447.948	0.19
448.403	0.19
448.859	0.19
449.314	0.19
449.769	0.19
450.224	0.19
450.679	0.19
451.134	0.19
451.589	0.19
452.044	0.19
452.499	0.19
452.954	0.19
453.409	0.19
453.864	0.19
454.319	0.19
454.774	0.19
455.229	0.19
455.684	0.19
456.138	0.19
456.593	0.19
457.048	0.19
457.503	0.19
457.957	0.19
458.412	0.19
458.866	0.19
459.321	0.18
459.776	0.18
460.23	0.18
460.685	0.18
461.139	0.18
461.593	0.18
462.048	0.18
462.502	0.18
462.957	0.18
463.411	0.18
463.865	0.18
464.319	0.18
464.774	0.18
465.228	0.18
465.682	0.18
466.136	0.18
466.59	0.18
467.044	0.18
467.499	0.18
467.953	0.18
468.407	0.18
468.861	0.18
469.315	0.18
469.768	0.18
470.222	0.18
470.676	0.18
471.13	0.18
471.584	0.18
472.038	0.18
472.491	0.18
472.945	0.18
473.399	0.18
473.852	0.18
474.306	0.18
474.76	0.18
475.213	0.18
475.667	0.18
476.12	0.19
476.574	0.19
477.027	0.19
477.481	0.19
477.934	0.19
478.388	0.19
478.841	0.19
479.294	0.19
479.748	0.19
480.201	0.19
480.654	0.19
481.107	0.19
481.561	0.19
482.014	0.19
482.467	0.19
482.92	0.19
483.373	0.19
483.826	0.19
484.279	0.19
484.732	0.19
485.185	0.19
485.638	0.19
486.091	0.19
486.544	0.19
486.997	0.19
487.449	0.19
487.902	0.2
488.355	0.2
488.808	0.2
489.26	0.2
489.713	0.2
490.166	0.2
490.618	0.2
491.071	0.2
491.523	0.2
491.976	0.2
492.429	0.2
492.881	0.2
493.333	0.2
493.786	0.21
494.238	0.21
494.691	0.21
495.143	0.21
495.595	0.21
496.048	0.21
496.5	0.21
496.952	0.21
497.404	0.21
497.856	0.21
498.309	0.22
498.761	0.22
499.213	0.22
499.665	0.22
500.117	0.22
500.569	0.22
501.021	0.22
501.473	0.22
501.925	0.23
502.377	0.23
502.828	0.23
503.28	0.23
503.732	0.23
504.184	0.23
504.636	0.23
505.087	0.23
505.539	0.24
505.991	0.24
506.442	0.24
506.894	0.24
507.345	0.24
507.797	0.24
508.249	0.24
508.7	0.24
509.151	0.25
509.603	0.25
510.054	0.25
510.506	0.25
510.957	0.25
511.408	0.25
511.86	0.25
512.311	0.25
512.762	0.25
513.213	0.25
513.665	0.25
514.116	0.26
514.567	0.26
515.018	0.26
515.469	0.26
515.92	0.26
516.371	0.26
516.822	0.26
517.273	0.26
517.724	0.27
518.175	0.27
518.626	0.27
519.076	0.27
519.527	0.27
519.978	0.27
520.429	0.27
520.88	0.27
521.33	0.27
521.781	0.27
522.232	0.27
522.682	0.27
523.133	0.27
523.583	0.27
524.034	0.28
524.484	0.28
524.935	0.28
525.385	0.28
525.836	0.28
526.286	0.28
526.736	0.28
527.187	0.28
527.637	0.28
528.087	0.28
528.538	0.28
528.988	0.28
529.438	0.29
529.888	0.29
530.338	0.29
530.788	0.29
531.238	0.29
531.688	0.29
532.139	0.29
532.589	0.29
533.038	0.29
533.488	0.29
533.938	0.29
534.388	0.29
534.838	0.29
535.288	0.29
535.738	0.29
536.187	0.29
536.637	0.29
537.087	0.29
537.537	0.29
537.986	0.29
538.436	0.29
538.885	0.29
539.335	0.29
539.785	0.3
540.234	0.3
540.684	0.3
541.133	0.3
541.582	0.3
542.032	0.3
542.481	0.3
542.931	0.3
543.38	0.3
543.829	0.3
544.278	0.3
544.728	0.3
545.177	0.3
545.626	0.3
546.075	0.3
546.524	0.3
546.973	0.3
547.422	0.3
547.871	0.3
548.32	0.3
548.769	0.3
549.218	0.3
549.667	0.3
550.116	0.3
550.565	0.3
551.014	0.3
551.463	0.3
551.911	0.3
552.36	0.3
552.809	0.3
553.258	0.3
553.706	0.3
554.155	0.3
554.603	0.3
555.052	0.3
555.501	0.3
555.949	0.3
556.398	0.3
556.846	0.3
557.294	0.3
557.743	0.3
558.191	0.3
558.64	0.3
559.088	0.3
559.536	0.3
559.985	0.3
560.433	0.3
560.881	0.3
561.329	0.3
561.777	0.3
562.225	0.3
562.674	0.3
563.122	0.3
563.57	0.3
564.018	0.3
564.466	0.3
564.914	0.29
565.362	0.29
565.809	0.29
566.257	0.29
566.705	0.29
567.153	0.29
567.601	0.29
568.048	0.29
568.496	0.29
568.944	0.29
569.392	0.29
569.839	0.29
570.287	0.29
570.734	0.29
571.182	0.29
571.63	0.29
572.077	0.29
572.525	0.29
572.972	0.28
573.419	0.28
573.867	0.28
574.314	0.28
574.761	0.28
575.209	0.28
575.656	0.28
576.103	0.28
576.551	0.28
576.998	0.28
577.445	0.28
577.892	0.28
578.339	0.28
578.786	0.28
579.233	0.28
579.68	0.27
580.127	0.27
580.574	0.27
581.021	0.27
581.468	0.27
581.915	0.27
582.362	0.27
582.809	0.27
583.255	0.27
583.702	0.26
584.149	0.26
584.596	0.26
585.042	0.26
585.489	0.26
585.936	0.26
586.382	0.26
586.829	0.26
587.275	0.26
587.722	0.25
588.168	0.25
588.615	0.25
589.061	0.25
589.508	0.25
589.954	0.25
590.4	0.25
590.847	0.25
591.293	0.25
591.739	0.25
592.185	0.25
592.632	0.24
593.078	0.24
593.524	0.24
593.97	0.24
594.416	0.24
594.862	0.24
595.308	0.24
595.754	0.24
596.2	0.23
596.646	0.23
597.092	0.23
597.538	0.23
597.984	0.23
598.43	0.23
598.876	0.23
599.321	0.23
599.767	0.23
600.213	0.22
600.659	0.22
601.104	0.22
601.55	0.22
601.995	0.22
602.441	0.22
602.887	0.22
603.332	0.22
603.778	0.22
604.223	0.22
604.668	0.22
605.114	0.22
605.559	0.21
606.005	0.21
606.45	0.21
606.895	0.21
607.341	0.21
607.786	0.21
608.231	0.21
608.676	0.21
609.121	0.2
609.566	0.2
610.012	0.2
610.457	0.2
610.902	0.2
611.347	0.2
611.792	0.2
612.237	0.2
612.682	0.2
613.127	0.2
613.571	0.2
614.016	0.2
614.461	0.19
614.906	0.19
615.351	0.19
615.795	0.19
616.24	0.19
616.685	0.19
617.129	0.19
617.574	0.19
618.019	0.19
618.463	0.19
618.908	0.19
619.352	0.19
619.797	0.19
620.241	0.18
620.686	0.18
621.13	0.18
621.574	0.18
622.019	0.18
622.463	0.18
622.907	0.18
623.352	0.18
623.796	0.18
624.24	0.18
624.684	0.18
625.128	0.18
625.572	0.18
626.016	0.18
626.461	0.18
626.905	0.18
627.349	0.18
627.793	0.18
628.236	0.18
628.68	0.18
629.124	0.18
629.568	0.18
630.012	0.18
630.456	0.18
630.9	0.18
631.343	0.18
631.787	0.18
632.231	0.18
632.674	0.18
633.118	0.18
633.562	0.18
634.005	0.18
634.449	0.18
634.892	0.18
635.336	0.18
635.779	0.18
636.223	0.18
636.666	0.18
637.109	0.18
637.553	0.18
637.996	0.18
638.439	0.18
638.883	0.18
639.326	0.18
639.769	0.18
640.212	0.18
640.655	0.18
641.099	0.18
641.542	0.19
641.985	0.19
642.428	0.19
642.871	0.19
643.314	0.19
643.757	0.19
644.2	0.19
644.643	0.19
645.085	0.19
645.528	0.2
645.971	0.2
646.414	0.2
646.857	0.2
647.299	0.2
647.742	0.2
648.185	0.2
648.627	0.21
649.07	0.21
649.513	0.21
649.955	0.21
650.398	0.21
650.84	0.21
651.283	0.22
651.725	0.22
652.168	0.22
652.61	0.22
653.052	0.22
653.495	0.23
653.937	0.17
654.379	0.14
654.821	0.14
655.264	0.15
655.706	0.15
656.148	0.15
656.59	0.15
657.032	0.15
657.474	0.15
657.916	0.15
658.358	0.15
658.8	0.19
659.242	0.25
659.684	0.25
660.126	0.26
660.568	0.26
661.01	0.26
661.452	0.26
661.894	0.26
662.335	0.27
662.777	0.27
663.219	0.27
663.661	0.27
664.102	0.28
664.544	0.28
664.985	0.28
665.427	0.28
665.869	0.28
666.31	0.29
666.752	0.29
667.193	0.29
667.634	0.29
668.076	0.29
668.517	0.3
668.959	0.3
669.4	0.3
669.841	0.3
670.282	0.3
670.724	0.31
671.165	0.31
671.606	0.31
672.047	0.31
672.488	0.31
672.929	0.31
673.37	0.32
673.811	0.32
674.252	0.32
674.693	0.32
675.134	0.32
675.575	0.33
676.016	0.33
676.457	0.33
676.898	0.33
677.339	0.33
677.78	0.33
678.22	0.33
678.661	0.34
679.102	0.34
679.542	0.34
679.983	0.34
680.424	0.34
680.864	0.34
681.305	0.34
681.745	0.34
682.186	0.34
682.626	0.35
683.067	0.35
683.507	0.35
683.948	0.35
684.388	0.35
684.828	0.35
685.269	0.35
685.709	0.35
686.149	0.35
686.589	0.35
687.029	0.35
687.47	0.35
687.91	0.35
688.35	0.35
688.79	0.35
689.23	0.35
689.67	0.35
690.11	0.35
690.55	0.35
690.99	0.35
691.43	0.35
691.87	0.35
692.31	0.35
692.749	0.35
693.189	0.35
693.629	0.35
694.069	0.35
694.508	0.35
694.948	0.35
695.388	0.35
695.827	0.35
696.267	0.35
696.706	0.35
697.146	0.35
697.586	0.35
698.025	0.35
698.464	0.35
698.904	0.35
699.343	0.35
699.783	0.35
700.222	0.35
700.661	0.35
701.101	0.35
701.54	0.35
701.979	0.34
702.418	0.34
702.857	0.34
703.297	0.34
703.736	0.34
704.175	0.34
704.614	0.34
705.053	0.34
705.492	0.34
705.931	0.34
706.37	0.33
706.809	0.33
707.248	0.33
707.687	0.33
708.125	0.33
708.564	0.33
709.003	0.33
709.442	0.33
709.88	0.33
710.319	0.32
710.758	0.32
711.196	0.32
711.635	0.32
712.074	0.32
712.512	0.32
712.951	0.32
713.389	0.31
713.828	0.31
714.266	0.31
714.705	0.31
715.143	0.31
715.581	0.31
716.02	0.31
716.458	0.31
716.896	0.31
717.334	0.31
717.773	0.31
718.211	0.3
718.649	0.3
719.087	0.3
719.525	0.3
719.963	0.3
720.401	0.3
720.839	0.3
721.277	0.3
721.715	0.29
722.153	0.29
722.591	0.29
723.029	0.29
723.467	0.29
723.905	0.29
724.342	0.29
724.78	0.29
725.218	0.29
725.656	0.29
726.093	0.28
726.531	0.28
726.969	0.28
727.406	0.28
727.844	0.28
728.281	0.28
728.719	0.28
729.156	0.28
729.594	0.28
730.031	0.27
730.469	0.27
730.906	0.27
731.343	0.27
731.781	0.27
732.218	0.27
732.655	0.27
733.092	0.27
733.53	0.26
733.967	0.26
734.404	0.26
734.841	0.26
735.278	0.26
735.715	0.26
736.152	0.26
736.589	0.25
737.026	0.25
737.463	0.25
737.9	0.25
738.337	0.25
738.774	0.25
739.211	0.24
739.647	0.24
740.084	0.24
740.521	0.24
740.958	0.24
741.394	0.24
741.831	0.24
742.268	0.24
742.704	0.23
743.141	0.23
743.577	0.23
744.014	0.23
744.45	0.23
744.887	0.23
745.323	0.22
745.76	0.22
746.196	0.22
746.632	0.22
747.069	0.22
747.505	0.22
747.941	0.22
748.378	0.22
748.814	0.22
749.25	0.22
749.686	0.21
750.122	0.21
750.558	0.21
750.994	0.21
751.43	0.21
751.866	0.21
752.302	0.21
752.738	0.2
753.174	0.2
753.61	0.2
754.046	0.2
754.482	0.2
754.918	0.2
755.354	0.19
755.789	0.19
756.225	0.19
756.661	0.19
757.096	0.19
757.532	0.19
757.968	0.19
758.403	0.19
758.839	0.19
759.274	0.19
759.71	0.18
760.145	0.18
760.581	0.18
761.016	0.18
761.452	0.18
761.887	0.18
762.322	0.18
762.758	0.17
763.193	0.17
763.628	0.17
764.063	0.17
764.499	0.17
764.934	0.16
765.369	0.16
765.804	0.16
766.239	0.16
766.674	0.16
767.109	0.15
767.544	0.15
767.979	0.15
768.414	0.14
768.849	0.14
769.284	0.14
769.719	0.13
770.154	0.13
770.588	0.13
771.023	0.12
771.458	0.12
771.893	0.12
772.327	0.11
772.762	0.11
773.197	0.1
773.631	0.1
774.066	0.09
774.5	0.09
774.935	0.09
775.369	0.08
775.804	0.08
776.238	0.07
776.673	0.07
777.107	0.07
777.541	0.06
777.976	0.06
778.41	0.05
778.844	0.05
779.279	0.04
779.713	0.04
780.147	0.04
780.581	0.03
781.015	0.03
781.449	0.02
781.883	0.02
782.317	0.01
782.751	0
783.185	-0
783.619	-0.01
784.053	-0.01
784.487	-0.02
784.921	-0.03
785.355	-0.03
785.789	-0.04
786.223	-0.04
786.656	-0.05
787.09	-0.05
787.524	-0.06
787.957	-0.07
788.391	-0.08
788.825	-0.09
789.258	-0.09
789.692	-0.1
790.125	-0.1
790.559	-0.11
790.992	-0.12
791.426	-0.12
791.859	-0.12
792.293	-0.11
792.726	-0.11
793.159	-0.1
793.593	-0.1
794.026	-0.1
794.459	-0.11
794.892	-0.11
795.326	-0.11
795.759	-0.11
796.192	-0.11
796.625	-0.12
797.058	-0.13
797.491	-0.14
797.924	-0.15
798.357	-0.15
798.79	-0.15
799.223	-0.15
799.656	-0.15
800.089	-0.15
800.522	-0.15
800.955	-0.16
801.387	-0.15
801.82	-0.16
802.253	-0.16
802.686	-0.16
803.118	-0.16
803.551	-0.16
803.984	-0.15
804.416	-0.15
804.849	-0.14
805.281	-0.14
805.714	-0.14
806.146	-0.14
806.579	-0.13
807.011	-0.13
807.444	-0.13
807.876	-0.13
808.308	-0.13
808.741	-0.14
809.173	-0.14
809.605	-0.15
810.037	-0.15
810.47	-0.15
810.902	-0.16
811.334	-0.16
811.766	-0.16
812.198	-0.15
812.63	-0.15
813.062	-0.15
813.494	-0.15
813.926	-0.15
814.358	-0.14
814.79	-0.13
815.222	-0.12
815.654	-0.11
816.086	-0.1
816.518	-0.1
816.949	-0.09
817.381	-0.08
817.813	-0.07
818.245	-0.06
818.676	-0.05
819.108	-0.04
819.54	-0.03
819.971	-0.02
820.403	-0.02
820.834	-0.01
821.266	-0
821.697	0
822.129	0.01
822.56	0.01
822.991	0.02
823.423	0.02
823.854	0.02
824.286	0.03
824.717	0.03
825.148	0.03
825.579	0.04
826.01	0.04
826.442	0.04
826.873	0.04
827.304	0.05
827.735	0.05
828.166	0.05
828.597	0.05
829.028	0.05
829.459	0.05
829.89	0.06
830.321	0.06
830.752	0.06
831.183	0.06
831.613	0.06
832.044	0.06
832.475	0.06
832.906	0.06
833.336	0.06
833.767	0.06
834.198	0.07
834.628	0.07
835.059	0.07
835.49	0.07
835.92	0.07
836.351	0.07
836.781	0.07
837.212	0.07
837.642	0.07
838.072	0.07
838.503	0.07
838.933	0.07
839.364	0.07
839.794	0.07
840.224	0.07
840.654	0.07
841.085	0.07
841.515	0.07
841.945	0.07
842.375	0.07
842.805	0.07
843.235	0.07
843.665	0.07
844.095	0.07
844.525	0.07
844.955	0.07
845.385	0.07
845.815	0.07
846.245	0.07
846.675	0.07
847.105	0.07
847.534	0.07
847.964	0.07
848.394	0.07
848.824	0.07
849.253	0.07
849.683	0.07
850.112	0.07
850.542	0.07
850.972	0.07
851.401	0.07
851.831	0.07
852.26	0.07
852.69	0.07
853.119	0.07
853.548	0.07
853.978	0.07
854.407	0.07
854.836	0.07
855.266	0.07
855.695	0.07
856.124	0.07
856.553	0.07
856.983	0.07
857.412	0.07
857.841	0.07
858.27	0.07
858.699	0.07
859.128	0.07
859.557	0.07
859.986	0.07
860.415	0.07
860.844	0.07
861.273	0.07
861.702	0.07
862.13	0.07
862.559	0.07
862.988	0.07
863.417	0.07
863.845	0.07
864.274	0.07
864.703	0.07
865.131	0.07
865.56	0.07
865.989	0.07
866.417	0.07
866.846	0.07
867.274	0.07
867.703	0.06
868.131	0.06
868.559	0.06
868.988	0.06
869.416	0.06
869.844	0.06
870.273	0.06
870.701	0.06
871.129	0.06
871.557	0.06
871.986	0.06
872.414	0.06
872.842	0.05
873.27	0.05
873.698	0.05
874.126	0.05
874.554	0.05
874.982	0.05
875.41	0.05
875.838	0.05
876.266	0.05
876.694	0.05
877.122	0.05
877.549	0.05
877.977	0.05
878.405	0.05
878.833	0.05
879.26	0.05
879.688	0.05
880.116	0.05
880.543	0.05
880.971	0.05
881.399	0.05
881.826	0.05
882.254	0.05
882.681	0.05
883.109	0.05
883.536	0.05
883.963	0.05
884.391	0.05
884.818	0.05
885.245	0.05
885.673	0.05
886.1	0.05
886.527	0.05
886.954	0.05
887.381	0.05
887.809	0.05
888.236	0.05
888.663	0.05
889.09	0.05
889.517	0.05
889.944	0.05
890.371	0.05
890.798	0.05
891.225	0.05
891.652	0.05
892.078	0.05
892.505	0.05
892.932	0.05
893.359	0.05
893.786	0.05
894.212	0.05
894.639	0.05
895.066	0.04
895.492	0.04
895.919	0.04
896.346	0.04
896.772	0.04
897.199	0.04
897.625	0.04
898.052	0.04
898.478	0.04
898.904	0.04
899.331	0.04
899.757	0.04
900.183	0.04
900.61	0.03
901.036	0.03
901.462	0.03
901.888	0.03
902.315	0.04
902.741	0.04
903.167	0.04
903.593	0.04
904.019	0.04
904.445	0.04
904.871	0.04
905.297	0.04
905.723	0.04
906.149	0.04
906.575	0.04
907.001	0.04
907.427	0.04
907.852	0.04
908.278	0.04
908.704	0.04
909.13	0.04
909.555	0.04
909.981	0.04
910.407	0.04
910.832	0.04
911.258	0.04
911.684	0.04
912.109	0.04
912.535	0.04
912.96	0.04
913.386	0.04
913.811	0.04
914.236	0.04
914.662	0.04
915.087	0.04
915.512	0.04
915.938	0.04
916.363	0.04
916.788	0.04
917.213	0.04
917.639	0.04
918.064	0.03
918.489	0.03
918.914	0.03
919.339	0.03
919.764	0.03
920.189	0.03
920.614	0.03
921.039	0.04
921.464	0.04
921.889	0.04
922.314	0.04
922.738	0.04
923.163	0.04
923.588	0.04
924.013	0.04
924.437	0.04
924.862	0.04
925.287	0.05
925.711	0.05
926.136	0.04
926.561	0.04
926.985	0.04
927.41	0.04
927.834	0.04
928.259	0.04
928.683	0.04
929.108	0.04
929.532	0.04
929.956	0.04
930.381	0.04
930.805	0.04
931.229	0.04
931.653	0.04
932.078	0.03
932.502	0.03
932.926	0.03
933.35	0.03
933.774	0.03
934.198	0.03
934.622	0.03
935.046	0.03
935.47	0.03
935.894	0.03
936.318	0.03
936.742	0.03
937.166	0.03
937.59	0.03
938.014	0.03
938.437	0.03
938.861	0.03
939.285	0.03
939.709	0.03
940.132	0.03
940.556	0.03
940.98	0.03
941.403	0.02
941.827	0.02
942.25	0.02
942.674	0.02
943.097	0.02
943.521	0.02
943.944	0.02
944.368	0.02
944.791	0.02
945.214	0.02
945.638	0.02
946.061	0.02
946.484	0.02
946.907	0.02
947.331	0.02
947.754	0.02
948.177	0.02
948.6	0.02
949.023	0.02
949.446	0.02
949.869	0.02
950.292	0.02
950.715	0.01
951.138	0.01
951.561	0.01
951.984	0.01
952.407	0.01
952.83	0.01
953.252	0.01
953.675	0.01
954.098	0.01
954.521	0.01
954.943	0.01
955.366	0.01
955.789	0.02
956.211	0.02
956.634	0.02
957.056	0.02
957.479	0.02
957.902	0.02
958.324	0.02
958.746	0.03
959.169	0.03
959.591	0.03
960.014	0.03
960.436	0.03
960.858	0.03
961.281	0.03
961.703	0.03
962.125	0.03
962.547	0.03
962.969	0.03
963.391	0.03
963.814	0.03
964.236	0.03
964.658	0.03
965.08	0.03
965.502	0.03
965.924	0.03
966.346	0.03
966.768	0.03
967.189	0.03
967.611	0.03
968.033	0.03
968.455	0.03
968.877	0.03
969.298	0.03
969.72	0.03
970.142	0.02
970.563	0.02
970.985	0.02
971.407	0.02
971.828	0.02
972.25	0.02
972.671	0.02
973.093	0.02
973.514	0.02
973.936	0.02
974.357	0.02
974.778	0.02
975.2	0.02
975.621	0.02
976.042	0.02
976.464	0.02
976.885	0.02
977.306	0.02
977.727	0.02
978.148	0.02
978.57	0.03
978.991	0.03
979.412	0.03
979.833	0.03
980.254	0.03
980.675	0.03
981.096	0.03
981.517	0.03
981.937	0.03
982.358	0.03
982.779	0.03
983.2	0.03
983.621	0.03
984.042	0.03
984.462	0.03
984.883	0.02
985.304	0.02
985.724	0.02
986.145	0.02
986.565	0.02
986.986	0.02
987.407	0.02
987.827	0.02
988.248	0.02
988.668	0.02
989.088	0.02
989.509	0.02
989.929	0.02
990.35	0.02
990.77	0.02
991.19	0.01
991.61	0.01
992.031	0.01
992.451	0.01
992.871	0.01
993.291	0.01
993.711	0.01
994.131	0.01
994.551	0.01
994.971	0.01
995.391	0.01
995.811	0.01
996.231	0.01
996.651	0.01
997.071	0.01
997.491	0.01
997.911	0.01
998.331	0.01
998.75	0.02
999.17	0.02
999.59	0.02
1000.009	0.02
1000.429	0.02
1000.849	0.02
1001.268	0.02
1001.688	0.02
1002.107	0.02
1002.527	0.02
1002.946	0.02
1003.366	0.02
1003.785	0.02
1004.205	0.02
1004.624	0.02
1005.044	0.02
1005.463	0.02
1005.882	0.02
1006.301	0.02
1006.721	0.02
1007.14	0.02
1007.559	0.01
1007.978	0.01
1008.397	0.01
1008.816	0.01
1009.235	0.01
1009.655	0.01
1010.074	0.01
1010.492	0.01
1010.911	0.01
1011.33	0.01
1011.749	0.01
1012.168	0.01
1012.587	0.01
1013.006	0.01
1013.425	0.01
1013.843	0.01
1014.262	0.01
1014.681	0.01
1015.099	0.01
1015.518	0.01
1015.937	0.01
1016.355	0.01
1016.774	0.01
1017.192	0.01
1017.611	0.01
1018.029	0.01
1018.448	0.01
1018.866	0.01
1019.285	0.01
1019.703	0.01
1020.121	0.01
1020.54	0.01
1020.958	0.01
1021.376	0.01
1021.794	0.01
1022.213	0.01
1022.631	0.01
1023.049	0.01
1023.467	0.01
1023.885	0.01
1024.303	0.01
1024.721	0.01
1025.139	0.01
1025.557	0.01
1025.975	0.01
1026.393	0.01
1026.811	0.01
1027.229	0.01
1027.647	0.01
1028.065	0.01
1028.482	0.01
1028.9	0.01
1029.318	0.01
1029.735	0.01
1030.153	0.01
1030.571	0.01
1030.988	0.01
1031.406	0.01
1031.823	0.01
1032.241	0.01
1032.659	0.01
1033.076	0.01
1033.493	0.01
1033.911	0.01
1034.328	0.01
1034.746	0.01
1035.163	0.01
1035.58	0.01
1035.997	0.01
1036.415	0.01
1036.832	0.01
1037.249	0.01
1037.666	0.01
1038.083	0.01
1038.501	0.01
1038.918	0.01
1039.335	0.01
1039.752	0.01
1040.169	0.01
1040.586	0.01
1041.003	0.01
1041.419	0.01
1041.836	0.01
1042.253	0.01
1042.67	0.01
1043.087	0.01
1043.504	0.01
1043.92	0.01
1044.337	0.01
1044.754	0.01
1045.17	0.01
1045.587	0.01
1046.004	0.01
1046.42	0.01
1046.837	0.01
1047.253	0.01
1047.67	0.01
1048.086	0.01
1048.503	0.01
1048.919	0.01
1049.335	0.01
1049.752	0.01
1050.168	0.01
1050.584	0.01
1051.001	0.01
1051.417	0.01
1051.833	0.01
1052.249	0.01
1052.665	0.01
1053.081	0.01
1053.497	0.01
1053.914	0.01
1054.33	0.01
1054.746	0.01
1055.162	0.01
1055.578	0.01
1055.993	0
1056.409	0
1056.825	0
1057.241	0
1057.657	-0
1058.073	-0
1058.488	-0
1058.904	-0
1059.32	-0
1059.736	-0
1060.151	-0
1060.567	-0
1060.982	-0
1061.398	-0
1061.813	-0
1062.229	-0
1062.644	-0
1063.06	-0
1063.475	-0
1063.891	-0
1064.306	-0
1064.721	-0
1065.137	-0
1065.552	-0
1065.967	-0
1066.382	-0
1066.798	-0.01
1067.213	-0.01
1067.628	-0.01
1068.043	-0.01
1068.458	-0.01
1068.873	-0.01
1069.288	-0.01
1069.703	-0.01
1070.118	-0.01
1070.533	-0.01
1070.948	-0.01
1071.363	-0.01
1071.778	-0.01
1072.193	-0.01
1072.607	-0.01
1073.022	-0.01
1073.437	-0.01
1073.852	-0.01
1074.266	-0.01
1074.681	-0.01
1075.096	-0.01
1075.51	-0.01
1075.925	-0.01
1076.339	-0.02
1076.754	-0.02
1077.168	-0.02
1077.583	-0.02
1077.997	-0.02
1078.412	-0.02
1078.826	-0.02
1079.24	-0.02
1079.655	-0.02
1080.069	-0.02
1080.483	-0.02
1080.897	-0.02
1081.312	-0.02
1081.726	-0.02
1082.14	-0.01
1082.554	-0.01
1082.968	-0.01
1083.382	-0.01
1083.796	-0.01
1084.21	-0.01
1084.624	-0.01
1085.038	-0.01
1085.452	-0.01
1085.866	-0.01
1086.28	-0.01
1086.694	-0.01
1087.108	-0.01
1087.521	-0.01
1087.935	-0.01
1088.349	-0.01
1088.763	-0.01
1089.176	-0.01
1089.59	-0.01
1090.004	-0.01
1090.417	-0.01
1090.831	-0.02
1091.244	-0.02
1091.658	-0.02
1092.071	-0.02
1092.485	-0.02
1092.898	-0.02
1093.312	-0.02
1093.725	-0.02
1094.138	-0.02
1094.552	-0.02
1094.965	-0.02
1095.378	-0.02
1095.791	-0.02
1096.205	-0.02
1096.618	-0.02
1097.031	-0.02
1097.444	-0.02
1097.857	-0.02
1098.27	-0.02
1098.683	-0.02
1099.096	-0.02
1099.509	-0.02
1099.922	-0.02
1100.335	-0.03
1100.748	-0.03
1101.161	-0.03
1101.574	-0.03
1101.986	-0.03
1102.399	-0.03
1102.812	-0.03
1103.225	-0.03
1103.637	-0.03
1104.05	-0.03
1104.463	-0.03
1104.875	-0.03
1105.288	-0.04
1105.7	-0.04
1106.113	-0.04
1106.525	-0.04
1106.938	-0.04
1107.35	-0.05
1107.763	-0.05
1108.175	-0.05
1108.588	-0.05
1109	-0.05
1109.412	-0.06
1109.824	-0.06
1110.237	-0.06
1110.649	-0.06
1111.061	-0.06
