Data from 2024-02-06-100ns-20nr-25nacl-100h2o-7bp2-1_5a808-40to10hyt-0_5cpm_Absorbance__87__00214.txt Node

Date: Tue Feb 06 12:51:21 CET 2024
User: Laser008
Spectrometer: MAYP115816
Trigger mode: 0
Integration Time (sec): 2.000000E-1
Scans to average: 10
Electric dark correction enabled: true
Nonlinearity correction enabled: true
Boxcar width: 5
XAxis mode: Wavelengths
Number of Pixels in Spectrum: 2068
>>>>>Begin Spectral Data<<<<<
198.914	-0.34
199.384	-0.31
199.855	-0.25
200.325	-0.21
200.796	-0.18
201.266	-0.16
201.737	-0.15
202.207	-0.14
202.677	-0.13
203.147	-0.13
203.618	-0.11
204.088	-0.1
204.558	-0.09
205.028	-0.09
205.498	-0.08
205.968	-0.09
206.439	-0.09
206.909	-0.08
207.379	-0.09
207.849	-0.09
208.319	-0.09
208.789	-0.09
209.258	-0.1
209.728	-0.1
210.198	-0.1
210.668	-0.1
211.138	-0.1
211.608	-0.1
212.077	-0.1
212.547	-0.1
213.017	-0.1
213.486	-0.1
213.956	-0.1
214.426	-0.1
214.895	-0.09
215.365	-0.1
215.834	-0.1
216.304	-0.09
216.773	-0.09
217.243	-0.09
217.712	-0.09
218.181	-0.09
218.651	-0.08
219.12	-0.08
219.589	-0.08
220.058	-0.08
220.528	-0.08
220.997	-0.08
221.466	-0.08
221.935	-0.08
222.404	-0.07
222.873	-0.07
223.342	-0.07
223.812	-0.06
224.281	-0.06
224.749	-0.05
225.218	-0.05
225.687	-0.04
226.156	-0.03
226.625	-0.02
227.094	-0.02
227.563	-0
228.031	0
228.5	0.02
228.969	0.03
229.438	0.05
229.906	0.07
230.375	0.09
230.844	0.11
231.312	0.13
231.781	0.15
232.249	0.17
232.718	0.2
233.186	0.22
233.655	0.24
234.123	0.26
234.591	0.28
235.06	0.29
235.528	0.31
235.996	0.32
236.465	0.34
236.933	0.35
237.401	0.36
237.869	0.37
238.337	0.38
238.805	0.39
239.274	0.39
239.742	0.4
240.21	0.4
240.678	0.41
241.146	0.41
241.614	0.41
242.081	0.42
242.549	0.42
243.017	0.42
243.485	0.43
243.953	0.43
244.421	0.43
244.888	0.43
245.356	0.44
245.824	0.44
246.291	0.44
246.759	0.44
247.227	0.45
247.694	0.45
248.162	0.45
248.629	0.45
249.097	0.45
249.564	0.46
250.032	0.46
250.499	0.46
250.967	0.46
251.434	0.46
251.901	0.47
252.369	0.47
252.836	0.47
253.303	0.47
253.77	0.47
254.237	0.47
254.705	0.47
255.172	0.48
255.639	0.48
256.106	0.48
256.573	0.48
257.04	0.48
257.507	0.48
257.974	0.48
258.441	0.48
258.908	0.48
259.375	0.48
259.841	0.48
260.308	0.48
260.775	0.48
261.242	0.48
261.709	0.48
262.175	0.48
262.642	0.48
263.109	0.48
263.575	0.47
264.042	0.47
264.508	0.47
264.975	0.47
265.441	0.47
265.908	0.47
266.374	0.47
266.841	0.47
267.307	0.46
267.773	0.46
268.24	0.46
268.706	0.46
269.172	0.46
269.639	0.45
270.105	0.45
270.571	0.45
271.037	0.45
271.503	0.44
271.969	0.44
272.435	0.44
272.902	0.44
273.368	0.43
273.834	0.43
274.3	0.43
274.765	0.43
275.231	0.42
275.697	0.42
276.163	0.42
276.629	0.42
277.095	0.41
277.56	0.41
278.026	0.41
278.492	0.41
278.958	0.4
279.423	0.4
279.889	0.4
280.354	0.39
280.82	0.39
281.286	0.39
281.751	0.38
282.217	0.38
282.682	0.38
283.147	0.38
283.613	0.37
284.078	0.37
284.544	0.37
285.009	0.37
285.474	0.36
285.939	0.36
286.405	0.36
286.87	0.36
287.335	0.35
287.8	0.35
288.265	0.35
288.73	0.35
289.195	0.35
289.66	0.34
290.125	0.34
290.59	0.34
291.055	0.34
291.52	0.34
291.985	0.33
292.45	0.33
292.915	0.33
293.38	0.33
293.844	0.33
294.309	0.33
294.774	0.32
295.239	0.32
295.703	0.32
296.168	0.32
296.632	0.32
297.097	0.32
297.562	0.32
298.026	0.32
298.491	0.31
298.955	0.31
299.419	0.31
299.884	0.31
300.348	0.31
300.813	0.31
301.277	0.31
301.741	0.31
302.205	0.31
302.67	0.31
303.134	0.31
303.598	0.3
304.062	0.3
304.526	0.3
304.99	0.3
305.454	0.3
305.919	0.3
306.383	0.3
306.847	0.3
307.31	0.3
307.774	0.3
308.238	0.3
308.702	0.3
309.166	0.29
309.63	0.29
310.094	0.29
310.557	0.29
311.021	0.29
311.485	0.29
311.948	0.29
312.412	0.29
312.876	0.29
313.339	0.29
313.803	0.29
314.266	0.29
314.73	0.29
315.193	0.28
315.657	0.28
316.12	0.28
316.584	0.28
317.047	0.28
317.51	0.28
317.973	0.28
318.437	0.28
318.9	0.28
319.363	0.28
319.826	0.28
320.29	0.28
320.753	0.28
321.216	0.28
321.679	0.27
322.142	0.27
322.605	0.27
323.068	0.27
323.531	0.27
323.994	0.27
324.457	0.27
324.92	0.27
325.382	0.27
325.845	0.27
326.308	0.27
326.771	0.27
327.233	0.27
327.696	0.27
328.159	0.27
328.622	0.27
329.084	0.26
329.547	0.26
330.009	0.26
330.472	0.26
330.934	0.26
331.397	0.26
331.859	0.26
332.322	0.26
332.784	0.26
333.246	0.26
333.709	0.26
334.171	0.26
334.633	0.26
335.096	0.26
335.558	0.26
336.02	0.26
336.482	0.26
336.944	0.25
337.406	0.25
337.868	0.25
338.331	0.25
338.793	0.25
339.255	0.25
339.717	0.25
340.178	0.25
340.64	0.25
341.102	0.25
341.564	0.25
342.026	0.25
342.488	0.25
342.949	0.25
343.411	0.25
343.873	0.25
344.335	0.25
344.796	0.25
345.258	0.25
345.719	0.25
346.181	0.25
346.643	0.25
347.104	0.25
347.566	0.25
348.027	0.25
348.488	0.25
348.95	0.24
349.411	0.24
349.873	0.24
350.334	0.24
350.795	0.24
351.256	0.24
351.718	0.24
352.179	0.24
352.64	0.24
353.101	0.24
353.562	0.24
354.023	0.24
354.484	0.24
354.945	0.24
355.406	0.24
355.867	0.24
356.328	0.24
356.789	0.24
357.25	0.24
357.711	0.24
358.172	0.24
358.633	0.24
359.093	0.24
359.554	0.24
360.015	0.24
360.476	0.24
360.936	0.24
361.397	0.24
361.858	0.24
362.318	0.24
362.779	0.24
363.239	0.24
363.7	0.24
364.16	0.24
364.621	0.24
365.081	0.24
365.541	0.24
366.002	0.24
366.462	0.24
366.922	0.24
367.383	0.24
367.843	0.24
368.303	0.24
368.763	0.24
369.223	0.24
369.684	0.24
370.144	0.24
370.604	0.24
371.064	0.24
371.524	0.24
371.984	0.24
372.444	0.24
372.904	0.24
373.363	0.23
373.823	0.23
374.283	0.23
374.743	0.23
375.203	0.23
375.663	0.23
376.122	0.23
376.582	0.23
377.042	0.23
377.501	0.23
377.961	0.23
378.42	0.23
378.88	0.23
379.34	0.23
379.799	0.23
380.259	0.23
380.718	0.23
381.177	0.23
381.637	0.23
382.096	0.23
382.555	0.23
383.015	0.23
383.474	0.23
383.933	0.23
384.393	0.23
384.852	0.23
385.311	0.23
385.77	0.23
386.229	0.23
386.688	0.23
387.147	0.23
387.606	0.23
388.065	0.23
388.524	0.23
388.983	0.23
389.442	0.23
389.901	0.23
390.36	0.23
390.819	0.23
391.277	0.23
391.736	0.23
392.195	0.22
392.654	0.22
393.112	0.22
393.571	0.22
394.03	0.22
394.488	0.22
394.947	0.22
395.405	0.22
395.864	0.22
396.322	0.22
396.781	0.22
397.239	0.22
397.698	0.22
398.156	0.22
398.614	0.22
399.073	0.22
399.531	0.22
399.989	0.22
400.447	0.22
400.905	0.22
401.364	0.22
401.822	0.22
402.28	0.22
402.738	0.22
403.196	0.22
403.654	0.22
404.112	0.22
404.57	0.22
405.028	0.22
405.486	0.22
405.944	0.22
406.402	0.22
406.859	0.22
407.317	0.22
407.775	0.22
408.233	0.21
408.691	0.21
409.148	0.21
409.606	0.21
410.064	0.21
410.521	0.21
410.979	0.21
411.436	0.21
411.894	0.21
412.351	0.21
412.809	0.21
413.266	0.21
413.724	0.21
414.181	0.21
414.638	0.21
415.096	0.21
415.553	0.21
416.01	0.21
416.467	0.21
416.925	0.21
417.382	0.21
417.839	0.21
418.296	0.21
418.753	0.21
419.21	0.21
419.667	0.21
420.124	0.21
420.581	0.21
421.038	0.21
421.495	0.21
421.952	0.21
422.409	0.21
422.866	0.21
423.322	0.21
423.779	0.21
424.236	0.21
424.693	0.21
425.149	0.21
425.606	0.21
426.063	0.21
426.519	0.21
426.976	0.21
427.433	0.21
427.889	0.21
428.346	0.2
428.802	0.2
429.258	0.2
429.715	0.2
430.171	0.2
430.628	0.2
431.084	0.2
431.54	0.2
431.997	0.2
432.453	0.2
432.909	0.2
433.365	0.2
433.821	0.2
434.277	0.2
434.734	0.2
435.19	0.2
435.646	0.2
436.102	0.2
436.558	0.2
437.014	0.2
437.47	0.2
437.925	0.2
438.381	0.2
438.837	0.2
439.293	0.2
439.749	0.2
440.205	0.2
440.66	0.2
441.116	0.2
441.572	0.2
442.027	0.2
442.483	0.2
442.939	0.2
443.394	0.2
443.85	0.2
444.305	0.2
444.761	0.2
445.216	0.2
445.672	0.2
446.127	0.2
446.582	0.2
447.038	0.2
447.493	0.2
447.948	0.2
448.403	0.2
448.859	0.2
449.314	0.2
449.769	0.2
450.224	0.2
450.679	0.2
451.134	0.2
451.589	0.2
452.044	0.2
452.499	0.2
452.954	0.2
453.409	0.2
453.864	0.2
454.319	0.2
454.774	0.2
455.229	0.2
455.684	0.2
456.138	0.2
456.593	0.2
457.048	0.2
457.503	0.2
457.957	0.2
458.412	0.2
458.866	0.2
459.321	0.2
459.776	0.2
460.23	0.2
460.685	0.2
461.139	0.2
461.593	0.2
462.048	0.2
462.502	0.2
462.957	0.2
463.411	0.2
463.865	0.2
464.319	0.2
464.774	0.2
465.228	0.2
465.682	0.2
466.136	0.2
466.59	0.2
467.044	0.2
467.499	0.2
467.953	0.2
468.407	0.2
468.861	0.2
469.315	0.2
469.768	0.2
470.222	0.2
470.676	0.2
471.13	0.2
471.584	0.2
472.038	0.2
472.491	0.2
472.945	0.2
473.399	0.2
473.852	0.2
474.306	0.2
474.76	0.2
475.213	0.2
475.667	0.2
476.12	0.2
476.574	0.21
477.027	0.21
477.481	0.21
477.934	0.21
478.388	0.21
478.841	0.21
479.294	0.21
479.748	0.21
480.201	0.21
480.654	0.21
481.107	0.21
481.561	0.21
482.014	0.21
482.467	0.21
482.92	0.21
483.373	0.22
483.826	0.22
484.279	0.22
484.732	0.22
485.185	0.22
485.638	0.22
486.091	0.22
486.544	0.22
486.997	0.22
487.449	0.22
487.902	0.22
488.355	0.22
488.808	0.23
489.26	0.23
489.713	0.23
490.166	0.23
490.618	0.23
491.071	0.23
491.523	0.23
491.976	0.23
492.429	0.24
492.881	0.24
493.333	0.24
493.786	0.24
494.238	0.24
494.691	0.24
495.143	0.24
495.595	0.25
496.048	0.25
496.5	0.25
496.952	0.25
497.404	0.25
497.856	0.25
498.309	0.26
498.761	0.26
499.213	0.26
499.665	0.26
500.117	0.26
500.569	0.27
501.021	0.27
501.473	0.27
501.925	0.27
502.377	0.27
502.828	0.27
503.28	0.28
503.732	0.28
504.184	0.28
504.636	0.28
505.087	0.28
505.539	0.28
505.991	0.29
506.442	0.29
506.894	0.29
507.345	0.29
507.797	0.29
508.249	0.29
508.7	0.3
509.151	0.3
509.603	0.3
510.054	0.3
510.506	0.3
510.957	0.3
511.408	0.31
511.86	0.31
512.311	0.31
512.762	0.31
513.213	0.31
513.665	0.31
514.116	0.31
514.567	0.31
515.018	0.32
515.469	0.32
515.92	0.32
516.371	0.32
516.822	0.32
517.273	0.32
517.724	0.32
518.175	0.32
518.626	0.32
519.076	0.32
519.527	0.33
519.978	0.33
520.429	0.33
520.88	0.33
521.33	0.33
521.781	0.33
522.232	0.33
522.682	0.33
523.133	0.33
523.583	0.33
524.034	0.33
524.484	0.33
524.935	0.33
525.385	0.33
525.836	0.33
526.286	0.33
526.736	0.33
527.187	0.33
527.637	0.33
528.087	0.33
528.538	0.33
528.988	0.33
529.438	0.33
529.888	0.33
530.338	0.33
530.788	0.33
531.238	0.33
531.688	0.33
532.139	0.32
532.589	0.32
533.038	0.32
533.488	0.32
533.938	0.32
534.388	0.32
534.838	0.32
535.288	0.32
535.738	0.32
536.187	0.31
536.637	0.31
537.087	0.31
537.537	0.31
537.986	0.31
538.436	0.31
538.885	0.31
539.335	0.31
539.785	0.3
540.234	0.3
540.684	0.3
541.133	0.3
541.582	0.3
542.032	0.3
542.481	0.3
542.931	0.29
543.38	0.29
543.829	0.29
544.278	0.29
544.728	0.29
545.177	0.29
545.626	0.28
546.075	0.28
546.524	0.28
546.973	0.28
547.422	0.28
547.871	0.27
548.32	0.27
548.769	0.27
549.218	0.27
549.667	0.27
550.116	0.26
550.565	0.26
551.014	0.26
551.463	0.26
551.911	0.26
552.36	0.25
552.809	0.25
553.258	0.25
553.706	0.25
554.155	0.25
554.603	0.24
555.052	0.24
555.501	0.24
555.949	0.24
556.398	0.24
556.846	0.24
557.294	0.23
557.743	0.23
558.191	0.23
558.64	0.23
559.088	0.23
559.536	0.23
559.985	0.22
560.433	0.22
560.881	0.22
561.329	0.22
561.777	0.22
562.225	0.22
562.674	0.21
563.122	0.21
563.57	0.21
564.018	0.21
564.466	0.21
564.914	0.21
565.362	0.2
565.809	0.2
566.257	0.2
566.705	0.2
567.153	0.2
567.601	0.2
568.048	0.2
568.496	0.19
568.944	0.19
569.392	0.19
569.839	0.19
570.287	0.19
570.734	0.19
571.182	0.19
571.63	0.18
572.077	0.18
572.525	0.18
572.972	0.18
573.419	0.18
573.867	0.18
574.314	0.18
574.761	0.18
575.209	0.17
575.656	0.17
576.103	0.17
576.551	0.17
576.998	0.17
577.445	0.17
577.892	0.17
578.339	0.17
578.786	0.17
579.233	0.16
579.68	0.16
580.127	0.16
580.574	0.16
581.021	0.16
581.468	0.16
581.915	0.16
582.362	0.16
582.809	0.15
583.255	0.15
583.702	0.15
584.149	0.15
584.596	0.15
585.042	0.15
585.489	0.15
585.936	0.15
586.382	0.14
586.829	0.14
587.275	0.14
587.722	0.14
588.168	0.14
588.615	0.14
589.061	0.14
589.508	0.14
589.954	0.14
590.4	0.14
590.847	0.14
591.293	0.14
591.739	0.14
592.185	0.13
592.632	0.13
593.078	0.13
593.524	0.13
593.97	0.13
594.416	0.13
594.862	0.13
595.308	0.13
595.754	0.13
596.2	0.13
596.646	0.13
597.092	0.13
597.538	0.13
597.984	0.12
598.43	0.12
598.876	0.12
599.321	0.12
599.767	0.12
600.213	0.12
600.659	0.12
601.104	0.12
601.55	0.12
601.995	0.12
602.441	0.12
602.887	0.12
603.332	0.12
603.778	0.12
604.223	0.12
604.668	0.12
605.114	0.12
605.559	0.12
606.005	0.12
606.45	0.12
606.895	0.12
607.341	0.12
607.786	0.12
608.231	0.12
608.676	0.12
609.121	0.12
609.566	0.11
610.012	0.11
610.457	0.11
610.902	0.11
611.347	0.11
611.792	0.11
612.237	0.11
612.682	0.11
613.127	0.11
613.571	0.11
614.016	0.11
614.461	0.11
614.906	0.11
615.351	0.11
615.795	0.11
616.24	0.11
616.685	0.11
617.129	0.11
617.574	0.11
618.019	0.11
618.463	0.11
618.908	0.11
619.352	0.11
619.797	0.11
620.241	0.11
620.686	0.11
621.13	0.11
621.574	0.11
622.019	0.11
622.463	0.11
622.907	0.11
623.352	0.12
623.796	0.12
624.24	0.12
624.684	0.12
625.128	0.12
625.572	0.12
626.016	0.12
626.461	0.12
626.905	0.12
627.349	0.12
627.793	0.12
628.236	0.12
628.68	0.12
629.124	0.12
629.568	0.12
630.012	0.12
630.456	0.12
630.9	0.12
631.343	0.12
631.787	0.12
632.231	0.12
632.674	0.12
633.118	0.12
633.562	0.13
634.005	0.13
634.449	0.13
634.892	0.13
635.336	0.13
635.779	0.13
636.223	0.14
636.666	0.14
637.109	0.14
637.553	0.14
637.996	0.14
638.439	0.14
638.883	0.14
639.326	0.14
639.769	0.14
640.212	0.15
640.655	0.15
641.099	0.15
641.542	0.15
641.985	0.15
642.428	0.15
642.871	0.15
643.314	0.16
643.757	0.16
644.2	0.16
644.643	0.16
645.085	0.16
645.528	0.17
645.971	0.17
646.414	0.17
646.857	0.17
647.299	0.18
647.742	0.18
648.185	0.18
648.627	0.18
649.07	0.19
649.513	0.19
649.955	0.19
650.398	0.19
650.84	0.2
651.283	0.2
651.725	0.2
652.168	0.2
652.61	0.21
653.052	0.21
653.495	0.21
653.937	0.17
654.379	0.13
654.821	0.14
655.264	0.14
655.706	0.14
656.148	0.14
656.59	0.15
657.032	0.15
657.474	0.15
657.916	0.15
658.358	0.14
658.8	0.18
659.242	0.24
659.684	0.25
660.126	0.25
660.568	0.25
661.01	0.25
661.452	0.26
661.894	0.26
662.335	0.26
662.777	0.27
663.219	0.27
663.661	0.27
664.102	0.27
664.544	0.28
664.985	0.28
665.427	0.28
665.869	0.29
666.31	0.29
666.752	0.29
667.193	0.29
667.634	0.3
668.076	0.3
668.517	0.3
668.959	0.3
669.4	0.31
669.841	0.31
670.282	0.31
670.724	0.31
671.165	0.31
671.606	0.32
672.047	0.32
672.488	0.32
672.929	0.32
673.37	0.32
673.811	0.33
674.252	0.33
674.693	0.33
675.134	0.33
675.575	0.34
676.016	0.34
676.457	0.34
676.898	0.34
677.339	0.34
677.78	0.34
678.22	0.34
678.661	0.34
679.102	0.34
679.542	0.34
679.983	0.35
680.424	0.35
680.864	0.35
681.305	0.35
681.745	0.35
682.186	0.35
682.626	0.35
683.067	0.35
683.507	0.35
683.948	0.35
684.388	0.35
684.828	0.35
685.269	0.35
685.709	0.35
686.149	0.35
686.589	0.35
687.029	0.35
687.47	0.35
687.91	0.35
688.35	0.35
688.79	0.35
689.23	0.35
689.67	0.35
690.11	0.35
690.55	0.35
690.99	0.35
691.43	0.35
691.87	0.35
692.31	0.35
692.749	0.35
693.189	0.35
693.629	0.35
694.069	0.35
694.508	0.34
694.948	0.34
695.388	0.34
695.827	0.34
696.267	0.34
696.706	0.34
697.146	0.34
697.586	0.33
698.025	0.33
698.464	0.33
698.904	0.33
699.343	0.33
699.783	0.33
700.222	0.33
700.661	0.33
701.101	0.32
701.54	0.32
701.979	0.32
702.418	0.32
702.857	0.32
703.297	0.32
703.736	0.31
704.175	0.31
704.614	0.31
705.053	0.31
705.492	0.3
705.931	0.3
706.37	0.3
706.809	0.3
707.248	0.3
707.687	0.3
708.125	0.29
708.564	0.29
709.003	0.29
709.442	0.29
709.88	0.28
710.319	0.28
710.758	0.28
711.196	0.28
711.635	0.28
712.074	0.27
712.512	0.27
712.951	0.27
713.389	0.27
713.828	0.27
714.266	0.27
714.705	0.26
715.143	0.26
715.581	0.26
716.02	0.26
716.458	0.26
716.896	0.26
717.334	0.25
717.773	0.25
718.211	0.25
718.649	0.25
719.087	0.25
719.525	0.25
719.963	0.24
720.401	0.24
720.839	0.24
721.277	0.24
721.715	0.24
722.153	0.23
722.591	0.23
723.029	0.23
723.467	0.23
723.905	0.23
724.342	0.22
724.78	0.22
725.218	0.22
725.656	0.22
726.093	0.22
726.531	0.22
726.969	0.21
727.406	0.21
727.844	0.21
728.281	0.21
728.719	0.21
729.156	0.21
729.594	0.2
730.031	0.2
730.469	0.2
730.906	0.2
731.343	0.2
731.781	0.2
732.218	0.2
732.655	0.19
733.092	0.19
733.53	0.19
733.967	0.19
734.404	0.19
734.841	0.19
735.278	0.18
735.715	0.18
736.152	0.18
736.589	0.18
737.026	0.17
737.463	0.17
737.9	0.17
738.337	0.17
738.774	0.17
739.211	0.17
739.647	0.16
740.084	0.16
740.521	0.16
740.958	0.16
741.394	0.16
741.831	0.16
742.268	0.16
742.704	0.16
743.141	0.16
743.577	0.15
744.014	0.15
744.45	0.15
744.887	0.15
745.323	0.15
745.76	0.15
746.196	0.14
746.632	0.14
747.069	0.14
747.505	0.14
747.941	0.14
748.378	0.14
748.814	0.14
749.25	0.14
749.686	0.14
750.122	0.13
750.558	0.13
750.994	0.13
751.43	0.13
751.866	0.13
752.302	0.13
752.738	0.13
753.174	0.13
753.61	0.12
754.046	0.12
754.482	0.12
754.918	0.12
755.354	0.12
755.789	0.12
756.225	0.11
756.661	0.11
757.096	0.11
757.532	0.11
757.968	0.11
758.403	0.11
758.839	0.11
759.274	0.11
759.71	0.11
760.145	0.11
760.581	0.11
761.016	0.1
761.452	0.1
761.887	0.1
762.322	0.1
762.758	0.1
763.193	0.1
763.628	0.1
764.063	0.1
764.499	0.1
764.934	0.1
765.369	0.09
765.804	0.09
766.239	0.09
766.674	0.09
767.109	0.09
767.544	0.09
767.979	0.08
768.414	0.08
768.849	0.08
769.284	0.08
769.719	0.08
770.154	0.08
770.588	0.08
771.023	0.07
771.458	0.07
771.893	0.07
772.327	0.07
772.762	0.07
773.197	0.06
773.631	0.06
774.066	0.06
774.5	0.05
774.935	0.05
775.369	0.05
775.804	0.05
776.238	0.04
776.673	0.04
777.107	0.04
777.541	0.04
777.976	0.04
778.41	0.03
778.844	0.03
779.279	0.03
779.713	0.03
780.147	0.03
780.581	0.02
781.015	0.02
781.449	0.02
781.883	0.01
782.317	0.01
782.751	0
783.185	0
783.619	-0
784.053	-0.01
784.487	-0.01
784.921	-0.02
785.355	-0.02
785.789	-0.02
786.223	-0.03
786.656	-0.03
787.09	-0.03
787.524	-0.03
787.957	-0.04
788.391	-0.04
788.825	-0.05
789.258	-0.05
789.692	-0.06
790.125	-0.06
790.559	-0.07
790.992	-0.07
791.426	-0.08
791.859	-0.08
792.293	-0.08
792.726	-0.08
793.159	-0.08
793.593	-0.08
794.026	-0.09
794.459	-0.1
794.892	-0.1
795.326	-0.11
795.759	-0.11
796.192	-0.11
796.625	-0.12
797.058	-0.13
797.491	-0.14
797.924	-0.15
798.357	-0.15
798.79	-0.15
799.223	-0.15
799.656	-0.15
800.089	-0.15
800.522	-0.15
800.955	-0.16
801.387	-0.15
801.82	-0.16
802.253	-0.16
802.686	-0.16
803.118	-0.16
803.551	-0.16
803.984	-0.15
804.416	-0.15
804.849	-0.14
805.281	-0.14
805.714	-0.14
806.146	-0.14
806.579	-0.13
807.011	-0.13
807.444	-0.13
807.876	-0.13
808.308	-0.13
808.741	-0.14
809.173	-0.14
809.605	-0.15
810.037	-0.15
810.47	-0.15
810.902	-0.15
811.334	-0.15
811.766	-0.14
812.198	-0.14
812.63	-0.13
813.062	-0.13
813.494	-0.12
813.926	-0.11
814.358	-0.1
814.79	-0.09
815.222	-0.08
815.654	-0.07
816.086	-0.06
816.518	-0.06
816.949	-0.05
817.381	-0.04
817.813	-0.04
818.245	-0.03
818.676	-0.03
819.108	-0.02
819.54	-0.02
819.971	-0.01
820.403	-0.01
820.834	-0.01
821.266	-0
821.697	0
822.129	0
822.56	0.01
822.991	0.01
823.423	0.01
823.854	0.01
824.286	0.01
824.717	0.01
825.148	0.02
825.579	0.02
826.01	0.02
826.442	0.02
826.873	0.02
827.304	0.02
827.735	0.02
828.166	0.02
828.597	0.02
829.028	0.02
829.459	0.02
829.89	0.03
830.321	0.03
830.752	0.03
831.183	0.03
831.613	0.03
832.044	0.03
832.475	0.03
832.906	0.03
833.336	0.03
833.767	0.03
834.198	0.03
834.628	0.03
835.059	0.03
835.49	0.03
835.92	0.03
836.351	0.03
836.781	0.03
837.212	0.03
837.642	0.03
838.072	0.03
838.503	0.03
838.933	0.03
839.364	0.03
839.794	0.03
840.224	0.03
840.654	0.03
841.085	0.03
841.515	0.03
841.945	0.03
842.375	0.03
842.805	0.03
843.235	0.03
843.665	0.03
844.095	0.03
844.525	0.03
844.955	0.03
845.385	0.03
845.815	0.03
846.245	0.03
846.675	0.03
847.105	0.03
847.534	0.03
847.964	0.03
848.394	0.03
848.824	0.03
849.253	0.03
849.683	0.03
850.112	0.03
850.542	0.03
850.972	0.03
851.401	0.03
851.831	0.03
852.26	0.03
852.69	0.03
853.119	0.03
853.548	0.03
853.978	0.03
854.407	0.03
854.836	0.03
855.266	0.03
855.695	0.03
856.124	0.03
856.553	0.03
856.983	0.03
857.412	0.03
857.841	0.03
858.27	0.03
858.699	0.03
859.128	0.03
859.557	0.04
859.986	0.04
860.415	0.04
860.844	0.04
861.273	0.04
861.702	0.04
862.13	0.04
862.559	0.04
862.988	0.03
863.417	0.03
863.845	0.03
864.274	0.03
864.703	0.03
865.131	0.03
865.56	0.03
865.989	0.03
866.417	0.03
866.846	0.03
867.274	0.03
867.703	0.03
868.131	0.03
868.559	0.03
868.988	0.03
869.416	0.03
869.844	0.03
870.273	0.03
870.701	0.03
871.129	0.02
871.557	0.02
871.986	0.02
872.414	0.02
872.842	0.02
873.27	0.02
873.698	0.02
874.126	0.02
874.554	0.02
874.982	0.02
875.41	0.02
875.838	0.02
876.266	0.02
876.694	0.02
877.122	0.02
877.549	0.02
877.977	0.02
878.405	0.02
878.833	0.02
879.26	0.02
879.688	0.02
880.116	0.02
880.543	0.02
880.971	0.02
881.399	0.02
881.826	0.02
882.254	0.02
882.681	0.02
883.109	0.02
883.536	0.02
883.963	0.02
884.391	0.02
884.818	0.02
885.245	0.02
885.673	0.02
886.1	0.02
886.527	0.02
886.954	0.02
887.381	0.02
887.809	0.02
888.236	0.02
888.663	0.02
889.09	0.02
889.517	0.02
889.944	0.02
890.371	0.02
890.798	0.02
891.225	0.02
891.652	0.02
892.078	0.02
892.505	0.02
892.932	0.02
893.359	0.02
893.786	0.02
894.212	0.02
894.639	0.02
895.066	0.02
895.492	0.02
895.919	0.01
896.346	0.01
896.772	0.01
897.199	0.01
897.625	0.01
898.052	0.01
898.478	0.01
898.904	0.01
899.331	0
899.757	0
900.183	0
900.61	0
901.036	-0
901.462	-0
901.888	-0
902.315	-0
902.741	0
903.167	0
903.593	0
904.019	0
904.445	0
904.871	0
905.297	0
905.723	0.01
906.149	0.01
906.575	0.01
907.001	0.01
907.427	0.01
907.852	0.01
908.278	0.01
908.704	0.01
909.13	0.01
909.555	0.01
909.981	0.01
910.407	0.01
910.832	0.01
911.258	0.01
911.684	0.01
912.109	0.01
912.535	0.01
912.96	0.01
913.386	0.01
913.811	0.01
914.236	0.01
914.662	0.01
915.087	0.01
915.512	0.01
915.938	0.01
916.363	0.01
916.788	0.01
917.213	0.01
917.639	0.01
918.064	0.01
918.489	0.01
918.914	0.01
919.339	0.01
919.764	0.01
920.189	0.01
920.614	0.01
921.039	0.01
921.464	0.01
921.889	0.01
922.314	0.01
922.738	0.02
923.163	0.02
923.588	0.02
924.013	0.02
924.437	0.02
924.862	0.02
925.287	0.02
925.711	0.02
926.136	0.02
926.561	0.02
926.985	0.02
927.41	0.02
927.834	0.02
928.259	0.02
928.683	0.02
929.108	0.02
929.532	0.02
929.956	0.02
930.381	0.01
930.805	0.01
931.229	0.01
931.653	0.01
932.078	0.01
932.502	0.01
932.926	0.01
933.35	0.01
933.774	0.01
934.198	0.01
934.622	0.01
935.046	0.01
935.47	0.01
935.894	0.01
936.318	0.01
936.742	0.01
937.166	0.01
937.59	0.01
938.014	0.01
938.437	0.01
938.861	0.01
939.285	0.01
939.709	0.01
940.132	0.01
940.556	0.01
940.98	0.01
941.403	0.01
941.827	0.01
942.25	0.01
942.674	0.01
943.097	0.01
943.521	0.01
943.944	0.01
944.368	0.01
944.791	0.01
945.214	0.01
945.638	0.01
946.061	0.01
946.484	0.01
946.907	0.01
947.331	0.01
947.754	0.01
948.177	0
948.6	0
949.023	0
949.446	-0
949.869	-0
950.292	-0
950.715	-0
951.138	-0.01
951.561	-0.01
951.984	-0.01
952.407	-0.01
952.83	-0.01
953.252	-0.01
953.675	-0.01
954.098	-0.01
954.521	-0.01
954.943	-0.01
955.366	-0.01
955.789	-0.01
956.211	-0.01
956.634	-0.01
957.056	-0
957.479	-0
957.902	-0
958.324	0
958.746	0
959.169	0
959.591	0
960.014	0.01
960.436	0.01
960.858	0.01
961.281	0.01
961.703	0.01
962.125	0.01
962.547	0.01
962.969	0.01
963.391	0.01
963.814	0.01
964.236	0.01
964.658	0.01
965.08	0.01
965.502	0.01
965.924	0.01
966.346	0.01
966.768	0.01
967.189	0.01
967.611	0.01
968.033	0.01
968.455	0.01
968.877	0.01
969.298	0.01
969.72	0.01
970.142	0.01
970.563	0.01
970.985	0.01
971.407	0.01
971.828	0.01
972.25	0.01
972.671	0.01
973.093	0.01
973.514	0.01
973.936	0.01
974.357	0.01
974.778	0.01
975.2	0.01
975.621	0.01
976.042	0.01
976.464	0.01
976.885	0.01
977.306	0.01
977.727	0.01
978.148	0.01
978.57	0.01
978.991	0.01
979.412	0.01
979.833	0.01
980.254	0.01
980.675	0.01
981.096	0.01
981.517	0.01
981.937	0.01
982.358	0.01
982.779	0.01
983.2	0.01
983.621	0.01
984.042	0.01
984.462	0.01
984.883	0.01
985.304	0.01
985.724	0.01
986.145	0
986.565	0
986.986	0
987.407	0
987.827	0
988.248	0
988.668	0
989.088	0
989.509	0
989.929	0
990.35	0
990.77	0
991.19	0
991.61	0
992.031	0
992.451	-0
992.871	-0
993.291	-0
993.711	-0
994.131	-0
994.551	-0
994.971	-0.01
995.391	-0.01
995.811	-0.01
996.231	-0.01
996.651	-0.01
997.071	-0.01
997.491	-0.01
997.911	-0.01
998.331	-0.01
998.75	-0.01
999.17	-0.01
999.59	-0.01
1000.009	-0
1000.429	-0
1000.849	-0
1001.268	-0
1001.688	-0
1002.107	-0
1002.527	-0
1002.946	-0
1003.366	-0
1003.785	-0.01
1004.205	-0.01
1004.624	-0.01
1005.044	-0.01
1005.463	-0.01
1005.882	-0.01
1006.301	-0.01
1006.721	-0.01
1007.14	-0.01
1007.559	-0.01
1007.978	-0.01
1008.397	-0.01
1008.816	-0.01
1009.235	-0.01
1009.655	-0.01
1010.074	-0.02
1010.492	-0.02
1010.911	-0.02
1011.33	-0.02
1011.749	-0.02
1012.168	-0.02
1012.587	-0.02
1013.006	-0.02
1013.425	-0.02
1013.843	-0.01
1014.262	-0.01
1014.681	-0.01
1015.099	-0.01
1015.518	-0.01
1015.937	-0.01
1016.355	-0.01
1016.774	-0.01
1017.192	-0.01
1017.611	-0.01
1018.029	-0.01
1018.448	-0.01
1018.866	-0.01
1019.285	-0.01
1019.703	-0.01
1020.121	-0.01
1020.54	-0.01
1020.958	-0.01
1021.376	-0.01
1021.794	-0.01
1022.213	-0.01
1022.631	-0.01
1023.049	-0.01
1023.467	-0.01
1023.885	-0.01
1024.303	-0.01
1024.721	-0.01
1025.139	-0.01
1025.557	-0.01
1025.975	-0.01
1026.393	-0.01
1026.811	-0.01
1027.229	-0.01
1027.647	-0.01
1028.065	-0.01
1028.482	-0.01
1028.9	-0.01
1029.318	-0.01
1029.735	-0.01
1030.153	-0.01
1030.571	-0.01
1030.988	-0.01
1031.406	-0.01
1031.823	-0
1032.241	-0
1032.659	-0
1033.076	-0
1033.493	-0
1033.911	-0
1034.328	-0
1034.746	-0
1035.163	-0
1035.58	-0
1035.997	-0
1036.415	-0
1036.832	-0
1037.249	-0
1037.666	-0
1038.083	-0
1038.501	-0
1038.918	-0
1039.335	-0
1039.752	-0
1040.169	-0
1040.586	-0
1041.003	-0
1041.419	-0
1041.836	-0
1042.253	-0
1042.67	-0
1043.087	-0
1043.504	-0
1043.92	-0
1044.337	-0
1044.754	-0
1045.17	-0
1045.587	-0
1046.004	-0
1046.42	-0
1046.837	-0
1047.253	-0
1047.67	-0
1048.086	-0
1048.503	-0
1048.919	-0
1049.335	-0
1049.752	-0
1050.168	-0
1050.584	-0
1051.001	-0
1051.417	-0
1051.833	-0
1052.249	-0
1052.665	-0
1053.081	-0
1053.497	-0
1053.914	-0
1054.33	-0
1054.746	-0
1055.162	-0
1055.578	-0.01
1055.993	-0.01
1056.409	-0.01
1056.825	-0.01
1057.241	-0.01
1057.657	-0.01
1058.073	-0.01
1058.488	-0.01
1058.904	-0.01
1059.32	-0.01
1059.736	-0.01
1060.151	-0.01
1060.567	-0.01
1060.982	-0.01
1061.398	-0.01
1061.813	-0.01
1062.229	-0.01
1062.644	-0.01
1063.06	-0.01
1063.475	-0.01
1063.891	-0.01
1064.306	-0.01
1064.721	-0.01
1065.137	-0.01
1065.552	-0.01
1065.967	-0.01
1066.382	-0.01
1066.798	-0.01
1067.213	-0.01
1067.628	-0.01
1068.043	-0.01
1068.458	-0.01
1068.873	-0.01
1069.288	-0.01
1069.703	-0.01
1070.118	-0.01
1070.533	-0.01
1070.948	-0.01
1071.363	-0.01
1071.778	-0.01
1072.193	-0.02
1072.607	-0.02
1073.022	-0.02
1073.437	-0.02
1073.852	-0.02
1074.266	-0.02
1074.681	-0.02
1075.096	-0.02
1075.51	-0.02
1075.925	-0.02
1076.339	-0.02
1076.754	-0.02
1077.168	-0.02
1077.583	-0.02
1077.997	-0.02
1078.412	-0.03
1078.826	-0.03
1079.24	-0.03
1079.655	-0.03
1080.069	-0.03
1080.483	-0.03
1080.897	-0.03
1081.312	-0.02
1081.726	-0.02
1082.14	-0.02
1082.554	-0.02
1082.968	-0.02
1083.382	-0.02
1083.796	-0.02
1084.21	-0.02
1084.624	-0.02
1085.038	-0.02
1085.452	-0.02
1085.866	-0.02
1086.28	-0.02
1086.694	-0.02
1087.108	-0.02
1087.521	-0.02
1087.935	-0.02
1088.349	-0.02
1088.763	-0.02
1089.176	-0.02
1089.59	-0.02
1090.004	-0.03
1090.417	-0.03
1090.831	-0.03
1091.244	-0.03
1091.658	-0.03
1092.071	-0.03
1092.485	-0.03
1092.898	-0.03
1093.312	-0.03
1093.725	-0.03
1094.138	-0.03
1094.552	-0.03
1094.965	-0.03
1095.378	-0.03
1095.791	-0.03
1096.205	-0.03
1096.618	-0.03
1097.031	-0.03
1097.444	-0.04
1097.857	-0.04
1098.27	-0.04
1098.683	-0.04
1099.096	-0.04
1099.509	-0.04
1099.922	-0.04
1100.335	-0.04
1100.748	-0.04
1101.161	-0.04
1101.574	-0.04
1101.986	-0.04
1102.399	-0.04
1102.812	-0.04
1103.225	-0.04
1103.637	-0.04
1104.05	-0.04
1104.463	-0.05
1104.875	-0.05
1105.288	-0.05
1105.7	-0.05
1106.113	-0.05
1106.525	-0.05
1106.938	-0.06
1107.35	-0.06
1107.763	-0.06
1108.175	-0.06
1108.588	-0.06
1109	-0.06
1109.412	-0.06
1109.824	-0.06
1110.237	-0.06
1110.649	-0.07
1111.061	-0.07
