Data from 2024-02-06-100ns-20nr-25nacl-100h2o-7bp2-1_5a808-40to10hyt-0_5cpm_Absorbance__60__00187.txt Node

Date: Tue Feb 06 12:37:51 CET 2024
User: Laser008
Spectrometer: MAYP115816
Trigger mode: 0
Integration Time (sec): 2.000000E-1
Scans to average: 10
Electric dark correction enabled: true
Nonlinearity correction enabled: true
Boxcar width: 5
XAxis mode: Wavelengths
Number of Pixels in Spectrum: 2068
>>>>>Begin Spectral Data<<<<<
198.914	-0.31
199.384	-0.27
199.855	-0.21
200.325	-0.17
200.796	-0.15
201.266	-0.13
201.737	-0.13
202.207	-0.12
202.677	-0.12
203.147	-0.11
203.618	-0.1
204.088	-0.09
204.558	-0.08
205.028	-0.08
205.498	-0.08
205.968	-0.08
206.439	-0.08
206.909	-0.08
207.379	-0.07
207.849	-0.07
208.319	-0.07
208.789	-0.07
209.258	-0.08
209.728	-0.08
210.198	-0.08
210.668	-0.08
211.138	-0.08
211.608	-0.08
212.077	-0.08
212.547	-0.09
213.017	-0.09
213.486	-0.09
213.956	-0.09
214.426	-0.09
214.895	-0.09
215.365	-0.09
215.834	-0.09
216.304	-0.09
216.773	-0.09
217.243	-0.09
217.712	-0.08
218.181	-0.08
218.651	-0.08
219.12	-0.08
219.589	-0.07
220.058	-0.07
220.528	-0.07
220.997	-0.07
221.466	-0.07
221.935	-0.06
222.404	-0.06
222.873	-0.06
223.342	-0.06
223.812	-0.06
224.281	-0.05
224.749	-0.05
225.218	-0.05
225.687	-0.04
226.156	-0.03
226.625	-0.03
227.094	-0.02
227.563	-0.01
228.031	-0
228.5	0
228.969	0.02
229.438	0.03
229.906	0.05
230.375	0.07
230.844	0.08
231.312	0.1
231.781	0.12
232.249	0.13
232.718	0.15
233.186	0.17
233.655	0.18
234.123	0.2
234.591	0.21
235.06	0.22
235.528	0.23
235.996	0.24
236.465	0.25
236.933	0.26
237.401	0.27
237.869	0.27
238.337	0.28
238.805	0.28
239.274	0.29
239.742	0.29
240.21	0.3
240.678	0.3
241.146	0.3
241.614	0.31
242.081	0.31
242.549	0.31
243.017	0.31
243.485	0.32
243.953	0.32
244.421	0.32
244.888	0.32
245.356	0.32
245.824	0.33
246.291	0.33
246.759	0.33
247.227	0.33
247.694	0.33
248.162	0.34
248.629	0.34
249.097	0.34
249.564	0.34
250.032	0.34
250.499	0.35
250.967	0.35
251.434	0.35
251.901	0.35
252.369	0.35
252.836	0.35
253.303	0.36
253.77	0.36
254.237	0.36
254.705	0.36
255.172	0.36
255.639	0.36
256.106	0.36
256.573	0.36
257.04	0.37
257.507	0.37
257.974	0.37
258.441	0.37
258.908	0.37
259.375	0.37
259.841	0.37
260.308	0.37
260.775	0.37
261.242	0.37
261.709	0.37
262.175	0.37
262.642	0.37
263.109	0.37
263.575	0.37
264.042	0.37
264.508	0.37
264.975	0.37
265.441	0.36
265.908	0.36
266.374	0.36
266.841	0.36
267.307	0.36
267.773	0.36
268.24	0.36
268.706	0.36
269.172	0.35
269.639	0.35
270.105	0.35
270.571	0.35
271.037	0.35
271.503	0.35
271.969	0.34
272.435	0.34
272.902	0.34
273.368	0.34
273.834	0.34
274.3	0.34
274.765	0.33
275.231	0.33
275.697	0.33
276.163	0.33
276.629	0.33
277.095	0.32
277.56	0.32
278.026	0.32
278.492	0.32
278.958	0.32
279.423	0.31
279.889	0.31
280.354	0.31
280.82	0.31
281.286	0.3
281.751	0.3
282.217	0.3
282.682	0.3
283.147	0.3
283.613	0.29
284.078	0.29
284.544	0.29
285.009	0.29
285.474	0.29
285.939	0.29
286.405	0.28
286.87	0.28
287.335	0.28
287.8	0.28
288.265	0.28
288.73	0.28
289.195	0.27
289.66	0.27
290.125	0.27
290.59	0.27
291.055	0.27
291.52	0.27
291.985	0.27
292.45	0.27
292.915	0.26
293.38	0.26
293.844	0.26
294.309	0.26
294.774	0.26
295.239	0.26
295.703	0.26
296.168	0.26
296.632	0.26
297.097	0.26
297.562	0.26
298.026	0.26
298.491	0.26
298.955	0.25
299.419	0.25
299.884	0.25
300.348	0.25
300.813	0.25
301.277	0.25
301.741	0.25
302.205	0.25
302.67	0.25
303.134	0.25
303.598	0.25
304.062	0.25
304.526	0.25
304.99	0.25
305.454	0.25
305.919	0.25
306.383	0.25
306.847	0.25
307.31	0.25
307.774	0.25
308.238	0.25
308.702	0.24
309.166	0.24
309.63	0.24
310.094	0.24
310.557	0.24
311.021	0.24
311.485	0.24
311.948	0.24
312.412	0.24
312.876	0.24
313.339	0.24
313.803	0.24
314.266	0.24
314.73	0.24
315.193	0.24
315.657	0.24
316.12	0.24
316.584	0.24
317.047	0.24
317.51	0.24
317.973	0.24
318.437	0.24
318.9	0.24
319.363	0.24
319.826	0.24
320.29	0.24
320.753	0.23
321.216	0.23
321.679	0.23
322.142	0.23
322.605	0.23
323.068	0.23
323.531	0.23
323.994	0.23
324.457	0.23
324.92	0.23
325.382	0.23
325.845	0.23
326.308	0.23
326.771	0.23
327.233	0.23
327.696	0.23
328.159	0.23
328.622	0.23
329.084	0.23
329.547	0.23
330.009	0.23
330.472	0.23
330.934	0.23
331.397	0.23
331.859	0.23
332.322	0.23
332.784	0.23
333.246	0.22
333.709	0.22
334.171	0.22
334.633	0.22
335.096	0.22
335.558	0.22
336.02	0.22
336.482	0.22
336.944	0.22
337.406	0.22
337.868	0.22
338.331	0.22
338.793	0.22
339.255	0.22
339.717	0.22
340.178	0.22
340.64	0.22
341.102	0.22
341.564	0.22
342.026	0.22
342.488	0.22
342.949	0.22
343.411	0.22
343.873	0.22
344.335	0.22
344.796	0.22
345.258	0.22
345.719	0.22
346.181	0.22
346.643	0.22
347.104	0.22
347.566	0.21
348.027	0.21
348.488	0.21
348.95	0.21
349.411	0.21
349.873	0.21
350.334	0.21
350.795	0.21
351.256	0.21
351.718	0.21
352.179	0.21
352.64	0.21
353.101	0.21
353.562	0.21
354.023	0.21
354.484	0.21
354.945	0.21
355.406	0.21
355.867	0.21
356.328	0.21
356.789	0.21
357.25	0.21
357.711	0.21
358.172	0.21
358.633	0.21
359.093	0.21
359.554	0.21
360.015	0.21
360.476	0.21
360.936	0.21
361.397	0.21
361.858	0.21
362.318	0.21
362.779	0.21
363.239	0.21
363.7	0.21
364.16	0.21
364.621	0.21
365.081	0.21
365.541	0.21
366.002	0.21
366.462	0.21
366.922	0.21
367.383	0.21
367.843	0.21
368.303	0.21
368.763	0.21
369.223	0.21
369.684	0.21
370.144	0.21
370.604	0.21
371.064	0.21
371.524	0.21
371.984	0.21
372.444	0.21
372.904	0.21
373.363	0.21
373.823	0.21
374.283	0.21
374.743	0.21
375.203	0.21
375.663	0.21
376.122	0.21
376.582	0.21
377.042	0.21
377.501	0.21
377.961	0.21
378.42	0.21
378.88	0.21
379.34	0.21
379.799	0.21
380.259	0.21
380.718	0.21
381.177	0.21
381.637	0.21
382.096	0.21
382.555	0.21
383.015	0.21
383.474	0.21
383.933	0.21
384.393	0.21
384.852	0.21
385.311	0.21
385.77	0.21
386.229	0.21
386.688	0.21
387.147	0.2
387.606	0.2
388.065	0.2
388.524	0.2
388.983	0.2
389.442	0.2
389.901	0.2
390.36	0.2
390.819	0.2
391.277	0.2
391.736	0.2
392.195	0.2
392.654	0.2
393.112	0.2
393.571	0.2
394.03	0.2
394.488	0.2
394.947	0.2
395.405	0.2
395.864	0.2
396.322	0.2
396.781	0.2
397.239	0.2
397.698	0.2
398.156	0.2
398.614	0.2
399.073	0.2
399.531	0.2
399.989	0.2
400.447	0.2
400.905	0.2
401.364	0.2
401.822	0.2
402.28	0.2
402.738	0.2
403.196	0.2
403.654	0.2
404.112	0.2
404.57	0.2
405.028	0.2
405.486	0.2
405.944	0.2
406.402	0.2
406.859	0.2
407.317	0.2
407.775	0.2
408.233	0.2
408.691	0.2
409.148	0.2
409.606	0.2
410.064	0.2
410.521	0.2
410.979	0.2
411.436	0.2
411.894	0.2
412.351	0.2
412.809	0.2
413.266	0.2
413.724	0.2
414.181	0.19
414.638	0.19
415.096	0.19
415.553	0.19
416.01	0.19
416.467	0.19
416.925	0.19
417.382	0.19
417.839	0.19
418.296	0.19
418.753	0.19
419.21	0.19
419.667	0.19
420.124	0.19
420.581	0.19
421.038	0.19
421.495	0.19
421.952	0.19
422.409	0.19
422.866	0.19
423.322	0.19
423.779	0.19
424.236	0.19
424.693	0.19
425.149	0.19
425.606	0.19
426.063	0.19
426.519	0.19
426.976	0.19
427.433	0.19
427.889	0.19
428.346	0.19
428.802	0.19
429.258	0.19
429.715	0.19
430.171	0.19
430.628	0.19
431.084	0.19
431.54	0.19
431.997	0.19
432.453	0.19
432.909	0.19
433.365	0.19
433.821	0.19
434.277	0.19
434.734	0.19
435.19	0.19
435.646	0.19
436.102	0.19
436.558	0.19
437.014	0.19
437.47	0.19
437.925	0.19
438.381	0.19
438.837	0.18
439.293	0.18
439.749	0.18
440.205	0.18
440.66	0.18
441.116	0.18
441.572	0.18
442.027	0.18
442.483	0.18
442.939	0.18
443.394	0.18
443.85	0.18
444.305	0.18
444.761	0.18
445.216	0.18
445.672	0.18
446.127	0.18
446.582	0.18
447.038	0.18
447.493	0.18
447.948	0.18
448.403	0.18
448.859	0.18
449.314	0.18
449.769	0.18
450.224	0.18
450.679	0.18
451.134	0.18
451.589	0.18
452.044	0.18
452.499	0.18
452.954	0.18
453.409	0.18
453.864	0.18
454.319	0.18
454.774	0.18
455.229	0.18
455.684	0.18
456.138	0.18
456.593	0.18
457.048	0.18
457.503	0.18
457.957	0.18
458.412	0.18
458.866	0.18
459.321	0.18
459.776	0.18
460.23	0.18
460.685	0.18
461.139	0.18
461.593	0.18
462.048	0.18
462.502	0.18
462.957	0.18
463.411	0.18
463.865	0.18
464.319	0.18
464.774	0.18
465.228	0.18
465.682	0.18
466.136	0.18
466.59	0.18
467.044	0.18
467.499	0.18
467.953	0.18
468.407	0.18
468.861	0.18
469.315	0.18
469.768	0.18
470.222	0.18
470.676	0.18
471.13	0.18
471.584	0.18
472.038	0.18
472.491	0.18
472.945	0.18
473.399	0.18
473.852	0.18
474.306	0.18
474.76	0.18
475.213	0.18
475.667	0.18
476.12	0.18
476.574	0.18
477.027	0.18
477.481	0.18
477.934	0.18
478.388	0.18
478.841	0.18
479.294	0.18
479.748	0.18
480.201	0.18
480.654	0.18
481.107	0.18
481.561	0.18
482.014	0.18
482.467	0.18
482.92	0.18
483.373	0.18
483.826	0.18
484.279	0.18
484.732	0.18
485.185	0.18
485.638	0.18
486.091	0.18
486.544	0.18
486.997	0.18
487.449	0.19
487.902	0.19
488.355	0.19
488.808	0.19
489.26	0.19
489.713	0.19
490.166	0.19
490.618	0.19
491.071	0.19
491.523	0.19
491.976	0.19
492.429	0.19
492.881	0.19
493.333	0.19
493.786	0.19
494.238	0.19
494.691	0.2
495.143	0.2
495.595	0.2
496.048	0.2
496.5	0.2
496.952	0.2
497.404	0.2
497.856	0.2
498.309	0.2
498.761	0.2
499.213	0.2
499.665	0.21
500.117	0.21
500.569	0.21
501.021	0.21
501.473	0.21
501.925	0.21
502.377	0.21
502.828	0.21
503.28	0.22
503.732	0.22
504.184	0.22
504.636	0.22
505.087	0.22
505.539	0.22
505.991	0.22
506.442	0.22
506.894	0.22
507.345	0.22
507.797	0.23
508.249	0.23
508.7	0.23
509.151	0.23
509.603	0.23
510.054	0.23
510.506	0.23
510.957	0.23
511.408	0.23
511.86	0.23
512.311	0.24
512.762	0.24
513.213	0.24
513.665	0.24
514.116	0.24
514.567	0.24
515.018	0.24
515.469	0.24
515.92	0.24
516.371	0.24
516.822	0.25
517.273	0.25
517.724	0.25
518.175	0.25
518.626	0.25
519.076	0.25
519.527	0.25
519.978	0.25
520.429	0.25
520.88	0.25
521.33	0.25
521.781	0.25
522.232	0.25
522.682	0.26
523.133	0.26
523.583	0.26
524.034	0.26
524.484	0.26
524.935	0.26
525.385	0.26
525.836	0.26
526.286	0.26
526.736	0.26
527.187	0.26
527.637	0.27
528.087	0.27
528.538	0.27
528.988	0.27
529.438	0.27
529.888	0.27
530.338	0.27
530.788	0.27
531.238	0.27
531.688	0.27
532.139	0.27
532.589	0.27
533.038	0.27
533.488	0.27
533.938	0.27
534.388	0.27
534.838	0.27
535.288	0.27
535.738	0.27
536.187	0.27
536.637	0.28
537.087	0.28
537.537	0.28
537.986	0.28
538.436	0.28
538.885	0.28
539.335	0.28
539.785	0.28
540.234	0.28
540.684	0.28
541.133	0.28
541.582	0.28
542.032	0.28
542.481	0.28
542.931	0.28
543.38	0.28
543.829	0.28
544.278	0.28
544.728	0.28
545.177	0.28
545.626	0.28
546.075	0.29
546.524	0.29
546.973	0.29
547.422	0.29
547.871	0.29
548.32	0.29
548.769	0.29
549.218	0.29
549.667	0.29
550.116	0.29
550.565	0.29
551.014	0.29
551.463	0.29
551.911	0.29
552.36	0.29
552.809	0.29
553.258	0.29
553.706	0.29
554.155	0.29
554.603	0.29
555.052	0.29
555.501	0.29
555.949	0.29
556.398	0.29
556.846	0.29
557.294	0.29
557.743	0.29
558.191	0.29
558.64	0.29
559.088	0.29
559.536	0.29
559.985	0.29
560.433	0.29
560.881	0.29
561.329	0.29
561.777	0.29
562.225	0.29
562.674	0.29
563.122	0.29
563.57	0.29
564.018	0.29
564.466	0.29
564.914	0.29
565.362	0.29
565.809	0.29
566.257	0.29
566.705	0.29
567.153	0.29
567.601	0.29
568.048	0.29
568.496	0.29
568.944	0.29
569.392	0.29
569.839	0.29
570.287	0.29
570.734	0.29
571.182	0.29
571.63	0.29
572.077	0.29
572.525	0.28
572.972	0.28
573.419	0.28
573.867	0.28
574.314	0.28
574.761	0.28
575.209	0.28
575.656	0.28
576.103	0.28
576.551	0.28
576.998	0.28
577.445	0.28
577.892	0.28
578.339	0.28
578.786	0.28
579.233	0.28
579.68	0.28
580.127	0.28
580.574	0.27
581.021	0.27
581.468	0.27
581.915	0.27
582.362	0.27
582.809	0.27
583.255	0.27
583.702	0.27
584.149	0.27
584.596	0.27
585.042	0.26
585.489	0.26
585.936	0.26
586.382	0.26
586.829	0.26
587.275	0.26
587.722	0.26
588.168	0.26
588.615	0.26
589.061	0.26
589.508	0.26
589.954	0.26
590.4	0.25
590.847	0.25
591.293	0.25
591.739	0.25
592.185	0.25
592.632	0.25
593.078	0.25
593.524	0.25
593.97	0.25
594.416	0.25
594.862	0.25
595.308	0.24
595.754	0.24
596.2	0.24
596.646	0.24
597.092	0.24
597.538	0.24
597.984	0.24
598.43	0.24
598.876	0.23
599.321	0.23
599.767	0.23
600.213	0.23
600.659	0.23
601.104	0.23
601.55	0.23
601.995	0.23
602.441	0.23
602.887	0.23
603.332	0.23
603.778	0.22
604.223	0.22
604.668	0.22
605.114	0.22
605.559	0.22
606.005	0.22
606.45	0.22
606.895	0.22
607.341	0.22
607.786	0.22
608.231	0.21
608.676	0.21
609.121	0.21
609.566	0.21
610.012	0.21
610.457	0.21
610.902	0.21
611.347	0.21
611.792	0.21
612.237	0.21
612.682	0.21
613.127	0.2
613.571	0.2
614.016	0.2
614.461	0.2
614.906	0.2
615.351	0.2
615.795	0.2
616.24	0.2
616.685	0.2
617.129	0.2
617.574	0.2
618.019	0.19
618.463	0.19
618.908	0.19
619.352	0.19
619.797	0.19
620.241	0.19
620.686	0.19
621.13	0.19
621.574	0.19
622.019	0.19
622.463	0.19
622.907	0.19
623.352	0.19
623.796	0.19
624.24	0.19
624.684	0.19
625.128	0.19
625.572	0.18
626.016	0.18
626.461	0.18
626.905	0.18
627.349	0.18
627.793	0.18
628.236	0.18
628.68	0.18
629.124	0.18
629.568	0.18
630.012	0.18
630.456	0.18
630.9	0.18
631.343	0.18
631.787	0.18
632.231	0.18
632.674	0.18
633.118	0.18
633.562	0.18
634.005	0.18
634.449	0.18
634.892	0.18
635.336	0.18
635.779	0.18
636.223	0.18
636.666	0.18
637.109	0.18
637.553	0.18
637.996	0.18
638.439	0.18
638.883	0.18
639.326	0.18
639.769	0.18
640.212	0.18
640.655	0.18
641.099	0.18
641.542	0.18
641.985	0.18
642.428	0.19
642.871	0.19
643.314	0.19
643.757	0.19
644.2	0.19
644.643	0.19
645.085	0.19
645.528	0.19
645.971	0.19
646.414	0.19
646.857	0.2
647.299	0.2
647.742	0.2
648.185	0.2
648.627	0.2
649.07	0.2
649.513	0.2
649.955	0.21
650.398	0.21
650.84	0.21
651.283	0.21
651.725	0.21
652.168	0.21
652.61	0.21
653.052	0.22
653.495	0.22
653.937	0.17
654.379	0.13
654.821	0.14
655.264	0.14
655.706	0.14
656.148	0.14
656.59	0.15
657.032	0.15
657.474	0.15
657.916	0.15
658.358	0.14
658.8	0.18
659.242	0.24
659.684	0.24
660.126	0.24
660.568	0.25
661.01	0.25
661.452	0.25
661.894	0.25
662.335	0.25
662.777	0.26
663.219	0.26
663.661	0.26
664.102	0.26
664.544	0.26
664.985	0.27
665.427	0.27
665.869	0.27
666.31	0.27
666.752	0.27
667.193	0.28
667.634	0.28
668.076	0.28
668.517	0.28
668.959	0.28
669.4	0.29
669.841	0.29
670.282	0.29
670.724	0.29
671.165	0.29
671.606	0.29
672.047	0.3
672.488	0.3
672.929	0.3
673.37	0.3
673.811	0.3
674.252	0.3
674.693	0.31
675.134	0.31
675.575	0.31
676.016	0.31
676.457	0.31
676.898	0.31
677.339	0.32
677.78	0.32
678.22	0.32
678.661	0.32
679.102	0.32
679.542	0.32
679.983	0.32
680.424	0.32
680.864	0.32
681.305	0.33
681.745	0.33
682.186	0.33
682.626	0.33
683.067	0.33
683.507	0.33
683.948	0.33
684.388	0.33
684.828	0.33
685.269	0.33
685.709	0.34
686.149	0.34
686.589	0.34
687.029	0.34
687.47	0.34
687.91	0.34
688.35	0.34
688.79	0.34
689.23	0.34
689.67	0.34
690.11	0.34
690.55	0.34
690.99	0.34
691.43	0.34
691.87	0.34
692.31	0.34
692.749	0.34
693.189	0.34
693.629	0.34
694.069	0.34
694.508	0.34
694.948	0.34
695.388	0.34
695.827	0.34
696.267	0.34
696.706	0.34
697.146	0.34
697.586	0.34
698.025	0.34
698.464	0.34
698.904	0.34
699.343	0.34
699.783	0.34
700.222	0.34
700.661	0.34
701.101	0.34
701.54	0.34
701.979	0.33
702.418	0.33
702.857	0.33
703.297	0.33
703.736	0.33
704.175	0.33
704.614	0.33
705.053	0.33
705.492	0.33
705.931	0.33
706.37	0.33
706.809	0.33
707.248	0.33
707.687	0.33
708.125	0.32
708.564	0.32
709.003	0.32
709.442	0.32
709.88	0.32
710.319	0.32
710.758	0.32
711.196	0.32
711.635	0.32
712.074	0.31
712.512	0.31
712.951	0.31
713.389	0.31
713.828	0.31
714.266	0.31
714.705	0.31
715.143	0.31
715.581	0.31
716.02	0.31
716.458	0.31
716.896	0.31
717.334	0.31
717.773	0.31
718.211	0.31
718.649	0.3
719.087	0.3
719.525	0.3
719.963	0.3
720.401	0.3
720.839	0.3
721.277	0.3
721.715	0.3
722.153	0.3
722.591	0.3
723.029	0.3
723.467	0.3
723.905	0.3
724.342	0.29
724.78	0.29
725.218	0.29
725.656	0.29
726.093	0.29
726.531	0.29
726.969	0.29
727.406	0.29
727.844	0.29
728.281	0.29
728.719	0.29
729.156	0.29
729.594	0.28
730.031	0.28
730.469	0.28
730.906	0.28
731.343	0.28
731.781	0.28
732.218	0.28
732.655	0.28
733.092	0.28
733.53	0.27
733.967	0.27
734.404	0.27
734.841	0.27
735.278	0.27
735.715	0.27
736.152	0.27
736.589	0.26
737.026	0.26
737.463	0.26
737.9	0.26
738.337	0.26
738.774	0.26
739.211	0.26
739.647	0.26
740.084	0.26
740.521	0.25
740.958	0.25
741.394	0.25
741.831	0.25
742.268	0.25
742.704	0.25
743.141	0.25
743.577	0.25
744.014	0.24
744.45	0.24
744.887	0.24
745.323	0.24
745.76	0.24
746.196	0.24
746.632	0.24
747.069	0.24
747.505	0.23
747.941	0.23
748.378	0.23
748.814	0.23
749.25	0.23
749.686	0.23
750.122	0.23
750.558	0.23
750.994	0.23
751.43	0.23
751.866	0.22
752.302	0.22
752.738	0.22
753.174	0.22
753.61	0.22
754.046	0.22
754.482	0.21
754.918	0.21
755.354	0.21
755.789	0.21
756.225	0.21
756.661	0.21
757.096	0.21
757.532	0.21
757.968	0.21
758.403	0.21
758.839	0.21
759.274	0.2
759.71	0.2
760.145	0.2
760.581	0.2
761.016	0.2
761.452	0.2
761.887	0.2
762.322	0.19
762.758	0.19
763.193	0.19
763.628	0.19
764.063	0.19
764.499	0.18
764.934	0.18
765.369	0.18
765.804	0.18
766.239	0.18
766.674	0.17
767.109	0.17
767.544	0.17
767.979	0.16
768.414	0.16
768.849	0.16
769.284	0.16
769.719	0.15
770.154	0.15
770.588	0.15
771.023	0.14
771.458	0.14
771.893	0.14
772.327	0.13
772.762	0.13
773.197	0.12
773.631	0.12
774.066	0.11
774.5	0.11
774.935	0.1
775.369	0.1
775.804	0.1
776.238	0.09
776.673	0.09
777.107	0.08
777.541	0.08
777.976	0.07
778.41	0.07
778.844	0.06
779.279	0.06
779.713	0.06
780.147	0.05
780.581	0.05
781.015	0.04
781.449	0.04
781.883	0.03
782.317	0.02
782.751	0.02
783.185	0.01
783.619	0.01
784.053	-0
784.487	-0.01
784.921	-0.01
785.355	-0.02
785.789	-0.03
786.223	-0.03
786.656	-0.04
787.09	-0.04
787.524	-0.05
787.957	-0.06
788.391	-0.07
788.825	-0.08
789.258	-0.08
789.692	-0.09
790.125	-0.1
790.559	-0.1
790.992	-0.11
791.426	-0.12
791.859	-0.12
792.293	-0.11
792.726	-0.1
793.159	-0.1
793.593	-0.1
794.026	-0.1
794.459	-0.11
794.892	-0.11
795.326	-0.11
795.759	-0.11
796.192	-0.11
796.625	-0.12
797.058	-0.13
797.491	-0.14
797.924	-0.15
798.357	-0.15
798.79	-0.15
799.223	-0.15
799.656	-0.15
800.089	-0.15
800.522	-0.15
800.955	-0.16
801.387	-0.15
801.82	-0.16
802.253	-0.16
802.686	-0.16
803.118	-0.16
803.551	-0.16
803.984	-0.15
804.416	-0.15
804.849	-0.14
805.281	-0.14
805.714	-0.14
806.146	-0.14
806.579	-0.13
807.011	-0.13
807.444	-0.13
807.876	-0.13
808.308	-0.13
808.741	-0.14
809.173	-0.14
809.605	-0.15
810.037	-0.15
810.47	-0.15
810.902	-0.16
811.334	-0.16
811.766	-0.16
812.198	-0.15
812.63	-0.15
813.062	-0.15
813.494	-0.15
813.926	-0.14
814.358	-0.14
814.79	-0.13
815.222	-0.12
815.654	-0.11
816.086	-0.1
816.518	-0.09
816.949	-0.08
817.381	-0.07
817.813	-0.06
818.245	-0.05
818.676	-0.04
819.108	-0.03
819.54	-0.02
819.971	-0.01
820.403	-0
820.834	0
821.266	0.01
821.697	0.02
822.129	0.02
822.56	0.03
822.991	0.03
823.423	0.03
823.854	0.04
824.286	0.04
824.717	0.05
825.148	0.05
825.579	0.05
826.01	0.05
826.442	0.06
826.873	0.06
827.304	0.06
827.735	0.06
828.166	0.07
828.597	0.07
829.028	0.07
829.459	0.07
829.89	0.07
830.321	0.07
830.752	0.07
831.183	0.08
831.613	0.08
832.044	0.08
832.475	0.08
832.906	0.08
833.336	0.08
833.767	0.08
834.198	0.08
834.628	0.08
835.059	0.08
835.49	0.08
835.92	0.08
836.351	0.08
836.781	0.09
837.212	0.09
837.642	0.09
838.072	0.09
838.503	0.09
838.933	0.09
839.364	0.09
839.794	0.09
840.224	0.09
840.654	0.09
841.085	0.09
841.515	0.09
841.945	0.09
842.375	0.09
842.805	0.09
843.235	0.09
843.665	0.09
844.095	0.09
844.525	0.09
844.955	0.09
845.385	0.09
845.815	0.09
846.245	0.09
846.675	0.09
847.105	0.09
847.534	0.09
847.964	0.09
848.394	0.09
848.824	0.09
849.253	0.09
849.683	0.08
850.112	0.08
850.542	0.08
850.972	0.08
851.401	0.08
851.831	0.08
852.26	0.08
852.69	0.08
853.119	0.08
853.548	0.08
853.978	0.08
854.407	0.08
854.836	0.08
855.266	0.09
855.695	0.09
856.124	0.09
856.553	0.09
856.983	0.09
857.412	0.09
857.841	0.09
858.27	0.09
858.699	0.09
859.128	0.09
859.557	0.09
859.986	0.09
860.415	0.09
860.844	0.09
861.273	0.09
861.702	0.09
862.13	0.09
862.559	0.09
862.988	0.09
863.417	0.09
863.845	0.09
864.274	0.09
864.703	0.09
865.131	0.08
865.56	0.08
865.989	0.08
866.417	0.08
866.846	0.08
867.274	0.08
867.703	0.08
868.131	0.08
868.559	0.08
868.988	0.08
869.416	0.08
869.844	0.08
870.273	0.08
870.701	0.07
871.129	0.07
871.557	0.07
871.986	0.07
872.414	0.07
872.842	0.07
873.27	0.07
873.698	0.07
874.126	0.07
874.554	0.07
874.982	0.07
875.41	0.07
875.838	0.07
876.266	0.07
876.694	0.07
877.122	0.07
877.549	0.07
877.977	0.07
878.405	0.07
878.833	0.07
879.26	0.07
879.688	0.07
880.116	0.07
880.543	0.07
880.971	0.07
881.399	0.07
881.826	0.07
882.254	0.07
882.681	0.07
883.109	0.07
883.536	0.07
883.963	0.07
884.391	0.07
884.818	0.07
885.245	0.07
885.673	0.07
886.1	0.07
886.527	0.07
886.954	0.07
887.381	0.07
887.809	0.07
888.236	0.07
888.663	0.07
889.09	0.07
889.517	0.07
889.944	0.07
890.371	0.07
890.798	0.07
891.225	0.07
891.652	0.07
892.078	0.07
892.505	0.06
892.932	0.06
893.359	0.06
893.786	0.06
894.212	0.06
894.639	0.06
895.066	0.06
895.492	0.06
895.919	0.06
896.346	0.06
896.772	0.06
897.199	0.05
897.625	0.05
898.052	0.05
898.478	0.05
898.904	0.05
899.331	0.05
899.757	0.05
900.183	0.05
900.61	0.05
901.036	0.05
901.462	0.05
901.888	0.05
902.315	0.05
902.741	0.05
903.167	0.05
903.593	0.05
904.019	0.05
904.445	0.05
904.871	0.05
905.297	0.05
905.723	0.05
906.149	0.05
906.575	0.05
907.001	0.05
907.427	0.05
907.852	0.05
908.278	0.05
908.704	0.05
909.13	0.05
909.555	0.05
909.981	0.05
910.407	0.05
910.832	0.05
911.258	0.05
911.684	0.05
912.109	0.05
912.535	0.05
912.96	0.05
913.386	0.05
913.811	0.05
914.236	0.05
914.662	0.05
915.087	0.05
915.512	0.05
915.938	0.05
916.363	0.05
916.788	0.05
917.213	0.05
917.639	0.05
918.064	0.05
918.489	0.05
918.914	0.05
919.339	0.05
919.764	0.05
920.189	0.05
920.614	0.05
921.039	0.05
921.464	0.05
921.889	0.05
922.314	0.05
922.738	0.05
923.163	0.05
923.588	0.05
924.013	0.05
924.437	0.06
924.862	0.06
925.287	0.06
925.711	0.06
926.136	0.06
926.561	0.06
926.985	0.06
927.41	0.06
927.834	0.05
928.259	0.05
928.683	0.05
929.108	0.05
929.532	0.05
929.956	0.05
930.381	0.05
930.805	0.05
931.229	0.05
931.653	0.05
932.078	0.05
932.502	0.05
932.926	0.05
933.35	0.04
933.774	0.04
934.198	0.04
934.622	0.04
935.046	0.04
935.47	0.04
935.894	0.04
936.318	0.04
936.742	0.04
937.166	0.04
937.59	0.04
938.014	0.04
938.437	0.04
938.861	0.04
939.285	0.04
939.709	0.04
940.132	0.04
940.556	0.04
940.98	0.04
941.403	0.04
941.827	0.04
942.25	0.03
942.674	0.03
943.097	0.03
943.521	0.03
943.944	0.03
944.368	0.03
944.791	0.03
945.214	0.03
945.638	0.03
946.061	0.03
946.484	0.03
946.907	0.03
947.331	0.03
947.754	0.03
948.177	0.03
948.6	0.03
949.023	0.03
949.446	0.03
949.869	0.03
950.292	0.03
950.715	0.03
951.138	0.03
951.561	0.02
951.984	0.02
952.407	0.02
952.83	0.02
953.252	0.02
953.675	0.02
954.098	0.02
954.521	0.02
954.943	0.02
955.366	0.02
955.789	0.03
956.211	0.03
956.634	0.03
957.056	0.03
957.479	0.03
957.902	0.03
958.324	0.03
958.746	0.04
959.169	0.04
959.591	0.04
960.014	0.04
960.436	0.04
960.858	0.04
961.281	0.04
961.703	0.04
962.125	0.04
962.547	0.04
962.969	0.04
963.391	0.04
963.814	0.04
964.236	0.04
964.658	0.04
965.08	0.04
965.502	0.04
965.924	0.04
966.346	0.04
966.768	0.04
967.189	0.04
967.611	0.04
968.033	0.04
968.455	0.04
968.877	0.04
969.298	0.04
969.72	0.04
970.142	0.03
970.563	0.03
970.985	0.03
971.407	0.03
971.828	0.03
972.25	0.03
972.671	0.03
973.093	0.03
973.514	0.03
973.936	0.03
974.357	0.03
974.778	0.03
975.2	0.03
975.621	0.03
976.042	0.03
976.464	0.03
976.885	0.03
977.306	0.03
977.727	0.03
978.148	0.04
978.57	0.04
978.991	0.04
979.412	0.04
979.833	0.04
980.254	0.04
980.675	0.04
981.096	0.04
981.517	0.04
981.937	0.04
982.358	0.04
982.779	0.04
983.2	0.04
983.621	0.04
984.042	0.04
984.462	0.03
984.883	0.03
985.304	0.03
985.724	0.03
986.145	0.03
986.565	0.03
986.986	0.03
987.407	0.03
987.827	0.03
988.248	0.03
988.668	0.03
989.088	0.03
989.509	0.03
989.929	0.03
990.35	0.03
990.77	0.03
991.19	0.02
991.61	0.02
992.031	0.02
992.451	0.02
992.871	0.02
993.291	0.02
993.711	0.02
994.131	0.02
994.551	0.02
994.971	0.02
995.391	0.02
995.811	0.02
996.231	0.02
996.651	0.02
997.071	0.02
997.491	0.02
997.911	0.02
998.331	0.02
998.75	0.02
999.17	0.03
999.59	0.03
1000.009	0.03
1000.429	0.03
1000.849	0.03
1001.268	0.03
1001.688	0.03
1002.107	0.03
1002.527	0.03
1002.946	0.03
1003.366	0.03
1003.785	0.03
1004.205	0.03
1004.624	0.03
1005.044	0.03
1005.463	0.02
1005.882	0.02
1006.301	0.02
1006.721	0.02
1007.14	0.02
1007.559	0.02
1007.978	0.02
1008.397	0.02
1008.816	0.02
1009.235	0.02
1009.655	0.02
1010.074	0.02
1010.492	0.02
1010.911	0.02
1011.33	0.02
1011.749	0.02
1012.168	0.02
1012.587	0.02
1013.006	0.02
1013.425	0.02
1013.843	0.02
1014.262	0.02
1014.681	0.02
1015.099	0.02
1015.518	0.02
1015.937	0.02
1016.355	0.02
1016.774	0.02
1017.192	0.02
1017.611	0.02
1018.029	0.02
1018.448	0.02
1018.866	0.02
1019.285	0.02
1019.703	0.02
1020.121	0.02
1020.54	0.02
1020.958	0.02
1021.376	0.02
1021.794	0.02
1022.213	0.02
1022.631	0.02
1023.049	0.02
1023.467	0.02
1023.885	0.02
1024.303	0.02
1024.721	0.02
1025.139	0.02
1025.557	0.02
1025.975	0.02
1026.393	0.02
1026.811	0.02
1027.229	0.02
1027.647	0.02
1028.065	0.02
1028.482	0.02
1028.9	0.02
1029.318	0.02
1029.735	0.02
1030.153	0.02
1030.571	0.02
1030.988	0.02
1031.406	0.02
1031.823	0.02
1032.241	0.02
1032.659	0.02
1033.076	0.02
1033.493	0.02
1033.911	0.02
1034.328	0.02
1034.746	0.02
1035.163	0.02
1035.58	0.02
1035.997	0.02
1036.415	0.02
1036.832	0.02
1037.249	0.02
1037.666	0.02
1038.083	0.02
1038.501	0.02
1038.918	0.02
1039.335	0.02
1039.752	0.02
1040.169	0.02
1040.586	0.02
1041.003	0.02
1041.419	0.02
1041.836	0.02
1042.253	0.02
1042.67	0.02
1043.087	0.02
1043.504	0.02
1043.92	0.02
1044.337	0.02
1044.754	0.02
1045.17	0.02
1045.587	0.02
1046.004	0.02
1046.42	0.02
1046.837	0.02
1047.253	0.02
1047.67	0.02
1048.086	0.02
1048.503	0.02
1048.919	0.02
1049.335	0.02
1049.752	0.02
1050.168	0.02
1050.584	0.02
1051.001	0.02
1051.417	0.02
1051.833	0.02
1052.249	0.02
1052.665	0.02
1053.081	0.02
1053.497	0.02
1053.914	0.02
1054.33	0.02
1054.746	0.02
1055.162	0.01
1055.578	0.01
1055.993	0.01
1056.409	0.01
1056.825	0.01
1057.241	0.01
1057.657	0.01
1058.073	0.01
1058.488	0.01
1058.904	0.01
1059.32	0.01
1059.736	0
1060.151	0
1060.567	0
1060.982	0
1061.398	0
1061.813	0
1062.229	0
1062.644	0
1063.06	0
1063.475	0
1063.891	0
1064.306	0
1064.721	0
1065.137	0
1065.552	0
1065.967	0
1066.382	0
1066.798	0
1067.213	0
1067.628	0
1068.043	0
1068.458	0
1068.873	0
1069.288	0
1069.703	0
1070.118	0
1070.533	0
1070.948	0
1071.363	0
1071.778	-0
1072.193	-0
1072.607	-0
1073.022	-0
1073.437	-0
1073.852	-0
1074.266	-0
1074.681	-0
1075.096	-0.01
1075.51	-0.01
1075.925	-0.01
1076.339	-0.01
1076.754	-0.01
1077.168	-0.01
1077.583	-0.01
1077.997	-0.01
1078.412	-0.01
1078.826	-0.01
1079.24	-0.01
1079.655	-0.01
1080.069	-0.01
1080.483	-0.01
1080.897	-0.01
1081.312	-0.01
1081.726	-0.01
1082.14	-0.01
1082.554	-0.01
1082.968	-0.01
1083.382	-0.01
1083.796	-0.01
1084.21	-0.01
1084.624	-0.01
1085.038	-0
1085.452	-0
1085.866	-0
1086.28	-0
1086.694	-0
1087.108	-0
1087.521	-0
1087.935	-0
1088.349	-0
1088.763	-0.01
1089.176	-0.01
1089.59	-0.01
1090.004	-0.01
1090.417	-0.01
1090.831	-0.01
1091.244	-0.01
1091.658	-0.01
1092.071	-0.01
1092.485	-0.01
1092.898	-0.01
1093.312	-0.01
1093.725	-0.01
1094.138	-0.01
1094.552	-0.01
1094.965	-0.01
1095.378	-0.01
1095.791	-0.01
1096.205	-0.01
1096.618	-0.01
1097.031	-0.02
1097.444	-0.02
1097.857	-0.02
1098.27	-0.02
1098.683	-0.02
1099.096	-0.02
1099.509	-0.02
1099.922	-0.02
1100.335	-0.02
1100.748	-0.02
1101.161	-0.02
1101.574	-0.02
1101.986	-0.02
1102.399	-0.02
1102.812	-0.02
1103.225	-0.03
1103.637	-0.03
1104.05	-0.03
1104.463	-0.03
1104.875	-0.03
1105.288	-0.03
1105.7	-0.03
1106.113	-0.03
1106.525	-0.04
1106.938	-0.04
1107.35	-0.04
1107.763	-0.04
1108.175	-0.04
1108.588	-0.04
1109	-0.05
1109.412	-0.05
1109.824	-0.05
1110.237	-0.05
1110.649	-0.05
1111.061	-0.05
