Data from 2024-02-06-100ns-20nr-25nacl-100h2o-7bp2-1_5a808-40to10hyt-0_5cpm_Absorbance__84__00211.txt Node

Date: Tue Feb 06 12:49:51 CET 2024
User: Laser008
Spectrometer: MAYP115816
Trigger mode: 0
Integration Time (sec): 2.000000E-1
Scans to average: 10
Electric dark correction enabled: true
Nonlinearity correction enabled: true
Boxcar width: 5
XAxis mode: Wavelengths
Number of Pixels in Spectrum: 2068
>>>>>Begin Spectral Data<<<<<
198.914	-0.32
199.384	-0.29
199.855	-0.23
200.325	-0.18
200.796	-0.16
201.266	-0.14
201.737	-0.13
202.207	-0.13
202.677	-0.12
203.147	-0.12
203.618	-0.11
204.088	-0.1
204.558	-0.09
205.028	-0.09
205.498	-0.09
205.968	-0.09
206.439	-0.09
206.909	-0.09
207.379	-0.08
207.849	-0.09
208.319	-0.09
208.789	-0.08
209.258	-0.09
209.728	-0.09
210.198	-0.09
210.668	-0.09
211.138	-0.09
211.608	-0.09
212.077	-0.09
212.547	-0.1
213.017	-0.1
213.486	-0.1
213.956	-0.1
214.426	-0.09
214.895	-0.09
215.365	-0.1
215.834	-0.09
216.304	-0.09
216.773	-0.09
217.243	-0.09
217.712	-0.09
218.181	-0.09
218.651	-0.08
219.12	-0.08
219.589	-0.08
220.058	-0.08
220.528	-0.08
220.997	-0.08
221.466	-0.08
221.935	-0.08
222.404	-0.08
222.873	-0.07
223.342	-0.07
223.812	-0.07
224.281	-0.06
224.749	-0.06
225.218	-0.05
225.687	-0.05
226.156	-0.04
226.625	-0.03
227.094	-0.02
227.563	-0.01
228.031	-0.01
228.5	0
228.969	0.02
229.438	0.03
229.906	0.05
230.375	0.06
230.844	0.08
231.312	0.1
231.781	0.12
232.249	0.14
232.718	0.15
233.186	0.17
233.655	0.19
234.123	0.21
234.591	0.22
235.06	0.24
235.528	0.25
235.996	0.26
236.465	0.27
236.933	0.28
237.401	0.29
237.869	0.29
238.337	0.3
238.805	0.3
239.274	0.31
239.742	0.31
240.21	0.32
240.678	0.32
241.146	0.32
241.614	0.33
242.081	0.33
242.549	0.33
243.017	0.33
243.485	0.34
243.953	0.34
244.421	0.34
244.888	0.34
245.356	0.35
245.824	0.35
246.291	0.35
246.759	0.35
247.227	0.35
247.694	0.36
248.162	0.36
248.629	0.36
249.097	0.36
249.564	0.36
250.032	0.37
250.499	0.37
250.967	0.37
251.434	0.37
251.901	0.37
252.369	0.37
252.836	0.38
253.303	0.38
253.77	0.38
254.237	0.38
254.705	0.38
255.172	0.38
255.639	0.38
256.106	0.38
256.573	0.38
257.04	0.39
257.507	0.39
257.974	0.39
258.441	0.39
258.908	0.39
259.375	0.39
259.841	0.39
260.308	0.39
260.775	0.39
261.242	0.39
261.709	0.39
262.175	0.39
262.642	0.39
263.109	0.39
263.575	0.39
264.042	0.38
264.508	0.38
264.975	0.38
265.441	0.38
265.908	0.38
266.374	0.38
266.841	0.38
267.307	0.38
267.773	0.38
268.24	0.37
268.706	0.37
269.172	0.37
269.639	0.37
270.105	0.37
270.571	0.36
271.037	0.36
271.503	0.36
271.969	0.36
272.435	0.36
272.902	0.36
273.368	0.35
273.834	0.35
274.3	0.35
274.765	0.35
275.231	0.34
275.697	0.34
276.163	0.34
276.629	0.34
277.095	0.34
277.56	0.33
278.026	0.33
278.492	0.33
278.958	0.33
279.423	0.32
279.889	0.32
280.354	0.32
280.82	0.32
281.286	0.31
281.751	0.31
282.217	0.31
282.682	0.31
283.147	0.31
283.613	0.3
284.078	0.3
284.544	0.3
285.009	0.3
285.474	0.3
285.939	0.29
286.405	0.29
286.87	0.29
287.335	0.29
287.8	0.29
288.265	0.29
288.73	0.28
289.195	0.28
289.66	0.28
290.125	0.28
290.59	0.28
291.055	0.28
291.52	0.27
291.985	0.27
292.45	0.27
292.915	0.27
293.38	0.27
293.844	0.27
294.309	0.27
294.774	0.27
295.239	0.26
295.703	0.26
296.168	0.26
296.632	0.26
297.097	0.26
297.562	0.26
298.026	0.26
298.491	0.26
298.955	0.26
299.419	0.26
299.884	0.26
300.348	0.26
300.813	0.26
301.277	0.26
301.741	0.26
302.205	0.25
302.67	0.25
303.134	0.25
303.598	0.25
304.062	0.25
304.526	0.25
304.99	0.25
305.454	0.25
305.919	0.25
306.383	0.25
306.847	0.25
307.31	0.25
307.774	0.25
308.238	0.25
308.702	0.25
309.166	0.25
309.63	0.25
310.094	0.25
310.557	0.25
311.021	0.24
311.485	0.24
311.948	0.24
312.412	0.24
312.876	0.24
313.339	0.24
313.803	0.24
314.266	0.24
314.73	0.24
315.193	0.24
315.657	0.24
316.12	0.24
316.584	0.24
317.047	0.24
317.51	0.24
317.973	0.24
318.437	0.24
318.9	0.24
319.363	0.24
319.826	0.24
320.29	0.24
320.753	0.24
321.216	0.23
321.679	0.23
322.142	0.23
322.605	0.23
323.068	0.23
323.531	0.23
323.994	0.23
324.457	0.23
324.92	0.23
325.382	0.23
325.845	0.23
326.308	0.23
326.771	0.23
327.233	0.23
327.696	0.23
328.159	0.23
328.622	0.23
329.084	0.23
329.547	0.23
330.009	0.23
330.472	0.23
330.934	0.23
331.397	0.23
331.859	0.22
332.322	0.22
332.784	0.22
333.246	0.22
333.709	0.22
334.171	0.22
334.633	0.22
335.096	0.22
335.558	0.22
336.02	0.22
336.482	0.22
336.944	0.22
337.406	0.22
337.868	0.22
338.331	0.22
338.793	0.22
339.255	0.22
339.717	0.22
340.178	0.22
340.64	0.22
341.102	0.22
341.564	0.22
342.026	0.22
342.488	0.22
342.949	0.22
343.411	0.22
343.873	0.22
344.335	0.21
344.796	0.21
345.258	0.21
345.719	0.21
346.181	0.21
346.643	0.21
347.104	0.21
347.566	0.21
348.027	0.21
348.488	0.21
348.95	0.21
349.411	0.21
349.873	0.21
350.334	0.21
350.795	0.21
351.256	0.21
351.718	0.21
352.179	0.21
352.64	0.21
353.101	0.21
353.562	0.21
354.023	0.21
354.484	0.21
354.945	0.21
355.406	0.21
355.867	0.21
356.328	0.21
356.789	0.21
357.25	0.21
357.711	0.21
358.172	0.21
358.633	0.21
359.093	0.21
359.554	0.21
360.015	0.21
360.476	0.21
360.936	0.21
361.397	0.21
361.858	0.21
362.318	0.21
362.779	0.21
363.239	0.21
363.7	0.21
364.16	0.21
364.621	0.21
365.081	0.21
365.541	0.21
366.002	0.21
366.462	0.21
366.922	0.21
367.383	0.21
367.843	0.21
368.303	0.21
368.763	0.21
369.223	0.21
369.684	0.21
370.144	0.21
370.604	0.21
371.064	0.21
371.524	0.21
371.984	0.21
372.444	0.21
372.904	0.21
373.363	0.21
373.823	0.21
374.283	0.21
374.743	0.21
375.203	0.21
375.663	0.21
376.122	0.21
376.582	0.21
377.042	0.21
377.501	0.21
377.961	0.21
378.42	0.2
378.88	0.2
379.34	0.2
379.799	0.2
380.259	0.2
380.718	0.2
381.177	0.2
381.637	0.2
382.096	0.2
382.555	0.2
383.015	0.2
383.474	0.2
383.933	0.2
384.393	0.2
384.852	0.2
385.311	0.2
385.77	0.2
386.229	0.2
386.688	0.2
387.147	0.2
387.606	0.2
388.065	0.2
388.524	0.2
388.983	0.2
389.442	0.2
389.901	0.2
390.36	0.2
390.819	0.2
391.277	0.2
391.736	0.2
392.195	0.2
392.654	0.2
393.112	0.2
393.571	0.2
394.03	0.2
394.488	0.2
394.947	0.2
395.405	0.2
395.864	0.2
396.322	0.2
396.781	0.2
397.239	0.2
397.698	0.2
398.156	0.2
398.614	0.2
399.073	0.2
399.531	0.2
399.989	0.2
400.447	0.2
400.905	0.2
401.364	0.19
401.822	0.19
402.28	0.19
402.738	0.19
403.196	0.19
403.654	0.19
404.112	0.19
404.57	0.19
405.028	0.19
405.486	0.19
405.944	0.19
406.402	0.19
406.859	0.19
407.317	0.19
407.775	0.19
408.233	0.19
408.691	0.19
409.148	0.19
409.606	0.19
410.064	0.19
410.521	0.19
410.979	0.19
411.436	0.19
411.894	0.19
412.351	0.19
412.809	0.19
413.266	0.19
413.724	0.19
414.181	0.19
414.638	0.19
415.096	0.19
415.553	0.19
416.01	0.19
416.467	0.19
416.925	0.19
417.382	0.19
417.839	0.19
418.296	0.19
418.753	0.19
419.21	0.19
419.667	0.19
420.124	0.19
420.581	0.19
421.038	0.19
421.495	0.19
421.952	0.19
422.409	0.19
422.866	0.19
423.322	0.19
423.779	0.19
424.236	0.19
424.693	0.19
425.149	0.19
425.606	0.19
426.063	0.19
426.519	0.19
426.976	0.19
427.433	0.19
427.889	0.18
428.346	0.18
428.802	0.18
429.258	0.18
429.715	0.18
430.171	0.18
430.628	0.18
431.084	0.18
431.54	0.18
431.997	0.18
432.453	0.18
432.909	0.18
433.365	0.18
433.821	0.18
434.277	0.18
434.734	0.18
435.19	0.18
435.646	0.18
436.102	0.18
436.558	0.18
437.014	0.18
437.47	0.18
437.925	0.18
438.381	0.18
438.837	0.18
439.293	0.18
439.749	0.18
440.205	0.18
440.66	0.18
441.116	0.18
441.572	0.18
442.027	0.18
442.483	0.18
442.939	0.18
443.394	0.18
443.85	0.18
444.305	0.18
444.761	0.18
445.216	0.18
445.672	0.18
446.127	0.18
446.582	0.18
447.038	0.18
447.493	0.18
447.948	0.18
448.403	0.18
448.859	0.18
449.314	0.18
449.769	0.18
450.224	0.18
450.679	0.18
451.134	0.18
451.589	0.18
452.044	0.18
452.499	0.18
452.954	0.18
453.409	0.18
453.864	0.18
454.319	0.18
454.774	0.18
455.229	0.18
455.684	0.18
456.138	0.18
456.593	0.18
457.048	0.18
457.503	0.18
457.957	0.18
458.412	0.18
458.866	0.17
459.321	0.17
459.776	0.17
460.23	0.17
460.685	0.17
461.139	0.17
461.593	0.17
462.048	0.17
462.502	0.17
462.957	0.17
463.411	0.17
463.865	0.17
464.319	0.17
464.774	0.17
465.228	0.17
465.682	0.17
466.136	0.17
466.59	0.17
467.044	0.17
467.499	0.17
467.953	0.17
468.407	0.17
468.861	0.17
469.315	0.17
469.768	0.17
470.222	0.17
470.676	0.17
471.13	0.17
471.584	0.17
472.038	0.17
472.491	0.17
472.945	0.17
473.399	0.17
473.852	0.17
474.306	0.18
474.76	0.17
475.213	0.18
475.667	0.18
476.12	0.18
476.574	0.18
477.027	0.18
477.481	0.18
477.934	0.18
478.388	0.18
478.841	0.18
479.294	0.18
479.748	0.18
480.201	0.18
480.654	0.18
481.107	0.18
481.561	0.18
482.014	0.18
482.467	0.18
482.92	0.18
483.373	0.18
483.826	0.18
484.279	0.18
484.732	0.18
485.185	0.18
485.638	0.18
486.091	0.18
486.544	0.19
486.997	0.19
487.449	0.19
487.902	0.19
488.355	0.19
488.808	0.19
489.26	0.19
489.713	0.19
490.166	0.19
490.618	0.19
491.071	0.19
491.523	0.19
491.976	0.19
492.429	0.19
492.881	0.19
493.333	0.2
493.786	0.2
494.238	0.2
494.691	0.2
495.143	0.2
495.595	0.2
496.048	0.2
496.5	0.2
496.952	0.2
497.404	0.2
497.856	0.2
498.309	0.21
498.761	0.21
499.213	0.21
499.665	0.21
500.117	0.21
500.569	0.21
501.021	0.21
501.473	0.21
501.925	0.22
502.377	0.22
502.828	0.22
503.28	0.22
503.732	0.22
504.184	0.22
504.636	0.22
505.087	0.22
505.539	0.22
505.991	0.23
506.442	0.23
506.894	0.23
507.345	0.23
507.797	0.23
508.249	0.23
508.7	0.23
509.151	0.23
509.603	0.24
510.054	0.24
510.506	0.24
510.957	0.24
511.408	0.24
511.86	0.24
512.311	0.24
512.762	0.24
513.213	0.24
513.665	0.24
514.116	0.24
514.567	0.24
515.018	0.25
515.469	0.25
515.92	0.25
516.371	0.25
516.822	0.25
517.273	0.25
517.724	0.25
518.175	0.25
518.626	0.25
519.076	0.25
519.527	0.25
519.978	0.25
520.429	0.25
520.88	0.26
521.33	0.26
521.781	0.26
522.232	0.26
522.682	0.26
523.133	0.26
523.583	0.26
524.034	0.26
524.484	0.26
524.935	0.26
525.385	0.26
525.836	0.26
526.286	0.26
526.736	0.26
527.187	0.26
527.637	0.26
528.087	0.26
528.538	0.26
528.988	0.26
529.438	0.26
529.888	0.26
530.338	0.26
530.788	0.26
531.238	0.26
531.688	0.26
532.139	0.26
532.589	0.26
533.038	0.26
533.488	0.26
533.938	0.26
534.388	0.26
534.838	0.26
535.288	0.26
535.738	0.26
536.187	0.26
536.637	0.26
537.087	0.26
537.537	0.26
537.986	0.26
538.436	0.26
538.885	0.26
539.335	0.26
539.785	0.26
540.234	0.26
540.684	0.26
541.133	0.26
541.582	0.26
542.032	0.26
542.481	0.26
542.931	0.26
543.38	0.26
543.829	0.26
544.278	0.26
544.728	0.26
545.177	0.26
545.626	0.26
546.075	0.26
546.524	0.26
546.973	0.26
547.422	0.26
547.871	0.26
548.32	0.26
548.769	0.25
549.218	0.25
549.667	0.25
550.116	0.25
550.565	0.25
551.014	0.25
551.463	0.25
551.911	0.25
552.36	0.25
552.809	0.25
553.258	0.25
553.706	0.25
554.155	0.25
554.603	0.25
555.052	0.25
555.501	0.25
555.949	0.25
556.398	0.25
556.846	0.25
557.294	0.25
557.743	0.25
558.191	0.25
558.64	0.25
559.088	0.25
559.536	0.25
559.985	0.24
560.433	0.24
560.881	0.24
561.329	0.24
561.777	0.24
562.225	0.24
562.674	0.24
563.122	0.24
563.57	0.24
564.018	0.24
564.466	0.24
564.914	0.24
565.362	0.24
565.809	0.24
566.257	0.24
566.705	0.24
567.153	0.24
567.601	0.24
568.048	0.24
568.496	0.24
568.944	0.24
569.392	0.24
569.839	0.24
570.287	0.23
570.734	0.23
571.182	0.23
571.63	0.23
572.077	0.23
572.525	0.23
572.972	0.23
573.419	0.23
573.867	0.23
574.314	0.23
574.761	0.23
575.209	0.23
575.656	0.23
576.103	0.23
576.551	0.23
576.998	0.23
577.445	0.23
577.892	0.23
578.339	0.23
578.786	0.23
579.233	0.23
579.68	0.22
580.127	0.22
580.574	0.22
581.021	0.22
581.468	0.22
581.915	0.22
582.362	0.22
582.809	0.22
583.255	0.22
583.702	0.22
584.149	0.21
584.596	0.21
585.042	0.21
585.489	0.21
585.936	0.21
586.382	0.21
586.829	0.21
587.275	0.21
587.722	0.21
588.168	0.21
588.615	0.21
589.061	0.21
589.508	0.21
589.954	0.21
590.4	0.21
590.847	0.21
591.293	0.2
591.739	0.2
592.185	0.2
592.632	0.2
593.078	0.2
593.524	0.2
593.97	0.2
594.416	0.2
594.862	0.2
595.308	0.2
595.754	0.2
596.2	0.2
596.646	0.2
597.092	0.19
597.538	0.19
597.984	0.19
598.43	0.19
598.876	0.19
599.321	0.19
599.767	0.19
600.213	0.19
600.659	0.19
601.104	0.19
601.55	0.19
601.995	0.19
602.441	0.19
602.887	0.19
603.332	0.19
603.778	0.19
604.223	0.19
604.668	0.19
605.114	0.19
605.559	0.18
606.005	0.18
606.45	0.18
606.895	0.18
607.341	0.18
607.786	0.18
608.231	0.18
608.676	0.18
609.121	0.18
609.566	0.18
610.012	0.18
610.457	0.18
610.902	0.18
611.347	0.18
611.792	0.18
612.237	0.18
612.682	0.18
613.127	0.18
613.571	0.18
614.016	0.18
614.461	0.18
614.906	0.17
615.351	0.17
615.795	0.17
616.24	0.17
616.685	0.17
617.129	0.17
617.574	0.17
618.019	0.17
618.463	0.17
618.908	0.17
619.352	0.17
619.797	0.17
620.241	0.17
620.686	0.17
621.13	0.17
621.574	0.17
622.019	0.17
622.463	0.17
622.907	0.17
623.352	0.17
623.796	0.17
624.24	0.17
624.684	0.17
625.128	0.17
625.572	0.17
626.016	0.17
626.461	0.17
626.905	0.17
627.349	0.17
627.793	0.17
628.236	0.16
628.68	0.16
629.124	0.16
629.568	0.16
630.012	0.16
630.456	0.16
630.9	0.16
631.343	0.16
631.787	0.16
632.231	0.16
632.674	0.16
633.118	0.17
633.562	0.17
634.005	0.17
634.449	0.17
634.892	0.17
635.336	0.17
635.779	0.17
636.223	0.17
636.666	0.17
637.109	0.17
637.553	0.17
637.996	0.17
638.439	0.17
638.883	0.17
639.326	0.17
639.769	0.17
640.212	0.18
640.655	0.18
641.099	0.18
641.542	0.18
641.985	0.18
642.428	0.18
642.871	0.18
643.314	0.18
643.757	0.18
644.2	0.18
644.643	0.19
645.085	0.19
645.528	0.19
645.971	0.19
646.414	0.19
646.857	0.19
647.299	0.19
647.742	0.2
648.185	0.2
648.627	0.2
649.07	0.2
649.513	0.2
649.955	0.21
650.398	0.21
650.84	0.21
651.283	0.21
651.725	0.21
652.168	0.22
652.61	0.22
653.052	0.22
653.495	0.22
653.937	0.17
654.379	0.14
654.821	0.14
655.264	0.14
655.706	0.15
656.148	0.15
656.59	0.15
657.032	0.15
657.474	0.15
657.916	0.15
658.358	0.14
658.8	0.18
659.242	0.24
659.684	0.25
660.126	0.25
660.568	0.25
661.01	0.25
661.452	0.26
661.894	0.26
662.335	0.26
662.777	0.26
663.219	0.27
663.661	0.27
664.102	0.27
664.544	0.27
664.985	0.27
665.427	0.28
665.869	0.28
666.31	0.28
666.752	0.28
667.193	0.28
667.634	0.29
668.076	0.29
668.517	0.29
668.959	0.29
669.4	0.3
669.841	0.3
670.282	0.3
670.724	0.3
671.165	0.3
671.606	0.31
672.047	0.31
672.488	0.31
672.929	0.31
673.37	0.31
673.811	0.31
674.252	0.32
674.693	0.32
675.134	0.32
675.575	0.32
676.016	0.32
676.457	0.33
676.898	0.33
677.339	0.33
677.78	0.33
678.22	0.33
678.661	0.33
679.102	0.33
679.542	0.33
679.983	0.33
680.424	0.33
680.864	0.33
681.305	0.33
681.745	0.33
682.186	0.34
682.626	0.34
683.067	0.34
683.507	0.34
683.948	0.34
684.388	0.34
684.828	0.34
685.269	0.34
685.709	0.34
686.149	0.34
686.589	0.34
687.029	0.34
687.47	0.34
687.91	0.34
688.35	0.34
688.79	0.34
689.23	0.34
689.67	0.34
690.11	0.34
690.55	0.34
690.99	0.34
691.43	0.34
691.87	0.34
692.31	0.34
692.749	0.34
693.189	0.34
693.629	0.34
694.069	0.34
694.508	0.34
694.948	0.34
695.388	0.34
695.827	0.34
696.267	0.34
696.706	0.34
697.146	0.34
697.586	0.34
698.025	0.33
698.464	0.33
698.904	0.33
699.343	0.33
699.783	0.33
700.222	0.33
700.661	0.33
701.101	0.33
701.54	0.33
701.979	0.33
702.418	0.33
702.857	0.33
703.297	0.32
703.736	0.32
704.175	0.32
704.614	0.32
705.053	0.32
705.492	0.32
705.931	0.32
706.37	0.32
706.809	0.31
707.248	0.31
707.687	0.31
708.125	0.31
708.564	0.31
709.003	0.31
709.442	0.31
709.88	0.3
710.319	0.3
710.758	0.3
711.196	0.3
711.635	0.3
712.074	0.3
712.512	0.3
712.951	0.3
713.389	0.3
713.828	0.29
714.266	0.29
714.705	0.29
715.143	0.29
715.581	0.29
716.02	0.29
716.458	0.29
716.896	0.29
717.334	0.29
717.773	0.28
718.211	0.28
718.649	0.28
719.087	0.28
719.525	0.28
719.963	0.28
720.401	0.28
720.839	0.28
721.277	0.27
721.715	0.27
722.153	0.27
722.591	0.27
723.029	0.27
723.467	0.27
723.905	0.27
724.342	0.27
724.78	0.26
725.218	0.26
725.656	0.26
726.093	0.26
726.531	0.26
726.969	0.26
727.406	0.26
727.844	0.25
728.281	0.25
728.719	0.25
729.156	0.25
729.594	0.25
730.031	0.25
730.469	0.25
730.906	0.25
731.343	0.25
731.781	0.25
732.218	0.25
732.655	0.24
733.092	0.24
733.53	0.24
733.967	0.24
734.404	0.24
734.841	0.24
735.278	0.24
735.715	0.24
736.152	0.23
736.589	0.23
737.026	0.23
737.463	0.23
737.9	0.23
738.337	0.23
738.774	0.22
739.211	0.22
739.647	0.22
740.084	0.22
740.521	0.22
740.958	0.22
741.394	0.22
741.831	0.22
742.268	0.22
742.704	0.22
743.141	0.21
743.577	0.21
744.014	0.21
744.45	0.21
744.887	0.21
745.323	0.21
745.76	0.2
746.196	0.2
746.632	0.2
747.069	0.2
747.505	0.2
747.941	0.2
748.378	0.2
748.814	0.2
749.25	0.2
749.686	0.2
750.122	0.2
750.558	0.2
750.994	0.19
751.43	0.19
751.866	0.19
752.302	0.19
752.738	0.19
753.174	0.19
753.61	0.19
754.046	0.18
754.482	0.18
754.918	0.18
755.354	0.18
755.789	0.18
756.225	0.18
756.661	0.18
757.096	0.17
757.532	0.17
757.968	0.17
758.403	0.17
758.839	0.17
759.274	0.17
759.71	0.17
760.145	0.17
760.581	0.17
761.016	0.17
761.452	0.17
761.887	0.16
762.322	0.16
762.758	0.16
763.193	0.16
763.628	0.16
764.063	0.16
764.499	0.16
764.934	0.15
765.369	0.15
765.804	0.15
766.239	0.15
766.674	0.15
767.109	0.14
767.544	0.14
767.979	0.14
768.414	0.14
768.849	0.14
769.284	0.13
769.719	0.13
770.154	0.13
770.588	0.13
771.023	0.13
771.458	0.12
771.893	0.12
772.327	0.12
772.762	0.11
773.197	0.11
773.631	0.11
774.066	0.1
774.5	0.1
774.935	0.09
775.369	0.09
775.804	0.09
776.238	0.08
776.673	0.08
777.107	0.08
777.541	0.07
777.976	0.07
778.41	0.07
778.844	0.06
779.279	0.06
779.713	0.06
780.147	0.06
780.581	0.05
781.015	0.05
781.449	0.04
781.883	0.04
782.317	0.03
782.751	0.03
783.185	0.02
783.619	0.02
784.053	0.01
784.487	0
784.921	-0
785.355	-0.01
785.789	-0.01
786.223	-0.02
786.656	-0.02
787.09	-0.03
787.524	-0.03
787.957	-0.04
788.391	-0.04
788.825	-0.05
789.258	-0.06
789.692	-0.06
790.125	-0.07
790.559	-0.08
790.992	-0.09
791.426	-0.09
791.859	-0.1
792.293	-0.09
792.726	-0.09
793.159	-0.09
793.593	-0.09
794.026	-0.1
794.459	-0.11
794.892	-0.11
795.326	-0.11
795.759	-0.11
796.192	-0.11
796.625	-0.12
797.058	-0.13
797.491	-0.14
797.924	-0.15
798.357	-0.15
798.79	-0.15
799.223	-0.15
799.656	-0.15
800.089	-0.15
800.522	-0.15
800.955	-0.16
801.387	-0.15
801.82	-0.16
802.253	-0.16
802.686	-0.16
803.118	-0.16
803.551	-0.16
803.984	-0.15
804.416	-0.15
804.849	-0.14
805.281	-0.14
805.714	-0.14
806.146	-0.14
806.579	-0.13
807.011	-0.13
807.444	-0.13
807.876	-0.13
808.308	-0.13
808.741	-0.14
809.173	-0.14
809.605	-0.15
810.037	-0.15
810.47	-0.15
810.902	-0.16
811.334	-0.16
811.766	-0.16
812.198	-0.15
812.63	-0.15
813.062	-0.14
813.494	-0.14
813.926	-0.13
814.358	-0.12
814.79	-0.11
815.222	-0.1
815.654	-0.09
816.086	-0.07
816.518	-0.06
816.949	-0.06
817.381	-0.05
817.813	-0.04
818.245	-0.03
818.676	-0.02
819.108	-0.01
819.54	-0
819.971	0
820.403	0.01
820.834	0.01
821.266	0.02
821.697	0.02
822.129	0.03
822.56	0.03
822.991	0.04
823.423	0.04
823.854	0.04
824.286	0.05
824.717	0.05
825.148	0.05
825.579	0.05
826.01	0.06
826.442	0.06
826.873	0.06
827.304	0.06
827.735	0.06
828.166	0.06
828.597	0.07
829.028	0.07
829.459	0.07
829.89	0.07
830.321	0.07
830.752	0.07
831.183	0.07
831.613	0.07
832.044	0.07
832.475	0.08
832.906	0.08
833.336	0.08
833.767	0.08
834.198	0.08
834.628	0.08
835.059	0.08
835.49	0.08
835.92	0.08
836.351	0.08
836.781	0.08
837.212	0.08
837.642	0.08
838.072	0.08
838.503	0.08
838.933	0.08
839.364	0.08
839.794	0.08
840.224	0.08
840.654	0.08
841.085	0.08
841.515	0.08
841.945	0.08
842.375	0.08
842.805	0.08
843.235	0.08
843.665	0.08
844.095	0.08
844.525	0.08
844.955	0.08
845.385	0.08
845.815	0.08
846.245	0.08
846.675	0.08
847.105	0.08
847.534	0.08
847.964	0.08
848.394	0.08
848.824	0.08
849.253	0.08
849.683	0.07
850.112	0.07
850.542	0.07
850.972	0.07
851.401	0.07
851.831	0.07
852.26	0.07
852.69	0.08
853.119	0.08
853.548	0.08
853.978	0.08
854.407	0.08
854.836	0.08
855.266	0.08
855.695	0.08
856.124	0.08
856.553	0.08
856.983	0.08
857.412	0.08
857.841	0.08
858.27	0.08
858.699	0.08
859.128	0.08
859.557	0.08
859.986	0.08
860.415	0.08
860.844	0.08
861.273	0.08
861.702	0.08
862.13	0.08
862.559	0.08
862.988	0.08
863.417	0.08
863.845	0.08
864.274	0.08
864.703	0.08
865.131	0.08
865.56	0.08
865.989	0.08
866.417	0.08
866.846	0.08
867.274	0.08
867.703	0.08
868.131	0.08
868.559	0.08
868.988	0.08
869.416	0.07
869.844	0.07
870.273	0.07
870.701	0.07
871.129	0.07
871.557	0.07
871.986	0.07
872.414	0.07
872.842	0.07
873.27	0.07
873.698	0.06
874.126	0.06
874.554	0.06
874.982	0.06
875.41	0.06
875.838	0.06
876.266	0.06
876.694	0.06
877.122	0.06
877.549	0.06
877.977	0.06
878.405	0.06
878.833	0.06
879.26	0.06
879.688	0.06
880.116	0.06
880.543	0.06
880.971	0.06
881.399	0.06
881.826	0.06
882.254	0.07
882.681	0.07
883.109	0.07
883.536	0.07
883.963	0.07
884.391	0.07
884.818	0.07
885.245	0.07
885.673	0.07
886.1	0.07
886.527	0.06
886.954	0.06
887.381	0.06
887.809	0.06
888.236	0.06
888.663	0.06
889.09	0.06
889.517	0.06
889.944	0.06
890.371	0.06
890.798	0.06
891.225	0.06
891.652	0.06
892.078	0.06
892.505	0.06
892.932	0.06
893.359	0.06
893.786	0.06
894.212	0.06
894.639	0.06
895.066	0.06
895.492	0.06
895.919	0.06
896.346	0.06
896.772	0.06
897.199	0.05
897.625	0.05
898.052	0.05
898.478	0.05
898.904	0.05
899.331	0.05
899.757	0.04
900.183	0.04
900.61	0.04
901.036	0.04
901.462	0.04
901.888	0.04
902.315	0.04
902.741	0.04
903.167	0.04
903.593	0.04
904.019	0.04
904.445	0.04
904.871	0.04
905.297	0.04
905.723	0.04
906.149	0.04
906.575	0.04
907.001	0.04
907.427	0.04
907.852	0.05
908.278	0.05
908.704	0.05
909.13	0.05
909.555	0.05
909.981	0.05
910.407	0.05
910.832	0.05
911.258	0.05
911.684	0.05
912.109	0.05
912.535	0.05
912.96	0.05
913.386	0.05
913.811	0.05
914.236	0.05
914.662	0.05
915.087	0.05
915.512	0.05
915.938	0.05
916.363	0.05
916.788	0.05
917.213	0.05
917.639	0.05
918.064	0.05
918.489	0.05
918.914	0.05
919.339	0.05
919.764	0.05
920.189	0.05
920.614	0.05
921.039	0.05
921.464	0.05
921.889	0.05
922.314	0.05
922.738	0.05
923.163	0.05
923.588	0.05
924.013	0.05
924.437	0.05
924.862	0.05
925.287	0.05
925.711	0.05
926.136	0.05
926.561	0.05
926.985	0.05
927.41	0.05
927.834	0.05
928.259	0.05
928.683	0.05
929.108	0.05
929.532	0.05
929.956	0.05
930.381	0.05
930.805	0.05
931.229	0.05
931.653	0.05
932.078	0.05
932.502	0.05
932.926	0.05
933.35	0.05
933.774	0.05
934.198	0.05
934.622	0.05
935.046	0.05
935.47	0.05
935.894	0.05
936.318	0.05
936.742	0.05
937.166	0.05
937.59	0.05
938.014	0.05
938.437	0.05
938.861	0.05
939.285	0.04
939.709	0.04
940.132	0.04
940.556	0.04
940.98	0.04
941.403	0.04
941.827	0.04
942.25	0.04
942.674	0.04
943.097	0.04
943.521	0.04
943.944	0.04
944.368	0.04
944.791	0.04
945.214	0.04
945.638	0.04
946.061	0.04
946.484	0.04
946.907	0.04
947.331	0.04
947.754	0.04
948.177	0.04
948.6	0.04
949.023	0.04
949.446	0.03
949.869	0.03
950.292	0.03
950.715	0.03
951.138	0.03
951.561	0.03
951.984	0.03
952.407	0.02
952.83	0.02
953.252	0.02
953.675	0.02
954.098	0.02
954.521	0.02
954.943	0.02
955.366	0.02
955.789	0.02
956.211	0.03
956.634	0.03
957.056	0.03
957.479	0.03
957.902	0.03
958.324	0.03
958.746	0.03
959.169	0.04
959.591	0.04
960.014	0.04
960.436	0.04
960.858	0.04
961.281	0.04
961.703	0.04
962.125	0.04
962.547	0.04
962.969	0.04
963.391	0.04
963.814	0.04
964.236	0.04
964.658	0.04
965.08	0.04
965.502	0.04
965.924	0.04
966.346	0.04
966.768	0.04
967.189	0.04
967.611	0.04
968.033	0.04
968.455	0.04
968.877	0.04
969.298	0.04
969.72	0.04
970.142	0.04
970.563	0.04
970.985	0.04
971.407	0.04
971.828	0.04
972.25	0.04
972.671	0.04
973.093	0.04
973.514	0.04
973.936	0.04
974.357	0.04
974.778	0.04
975.2	0.04
975.621	0.04
976.042	0.04
976.464	0.04
976.885	0.04
977.306	0.04
977.727	0.04
978.148	0.04
978.57	0.04
978.991	0.04
979.412	0.04
979.833	0.04
980.254	0.04
980.675	0.04
981.096	0.04
981.517	0.04
981.937	0.04
982.358	0.04
982.779	0.04
983.2	0.04
983.621	0.04
984.042	0.03
984.462	0.03
984.883	0.03
985.304	0.03
985.724	0.03
986.145	0.03
986.565	0.03
986.986	0.03
987.407	0.03
987.827	0.03
988.248	0.03
988.668	0.03
989.088	0.03
989.509	0.03
989.929	0.03
990.35	0.03
990.77	0.03
991.19	0.03
991.61	0.03
992.031	0.03
992.451	0.03
992.871	0.03
993.291	0.03
993.711	0.02
994.131	0.02
994.551	0.02
994.971	0.02
995.391	0.02
995.811	0.02
996.231	0.02
996.651	0.02
997.071	0.02
997.491	0.02
997.911	0.02
998.331	0.02
998.75	0.02
999.17	0.02
999.59	0.02
1000.009	0.02
1000.429	0.02
1000.849	0.02
1001.268	0.02
1001.688	0.02
1002.107	0.02
1002.527	0.02
1002.946	0.02
1003.366	0.02
1003.785	0.02
1004.205	0.02
1004.624	0.02
1005.044	0.02
1005.463	0.02
1005.882	0.02
1006.301	0.02
1006.721	0.02
1007.14	0.02
1007.559	0.02
1007.978	0.01
1008.397	0.01
1008.816	0.01
1009.235	0.01
1009.655	0.01
1010.074	0.01
1010.492	0.01
1010.911	0.01
1011.33	0.01
1011.749	0.01
1012.168	0.01
1012.587	0.01
1013.006	0.01
1013.425	0.01
1013.843	0.01
1014.262	0.01
1014.681	0.01
1015.099	0.01
1015.518	0.01
1015.937	0.01
1016.355	0.02
1016.774	0.02
1017.192	0.02
1017.611	0.02
1018.029	0.02
1018.448	0.02
1018.866	0.02
1019.285	0.02
1019.703	0.02
1020.121	0.02
1020.54	0.02
1020.958	0.02
1021.376	0.02
1021.794	0.02
1022.213	0.02
1022.631	0.02
1023.049	0.02
1023.467	0.02
1023.885	0.02
1024.303	0.02
1024.721	0.02
1025.139	0.02
1025.557	0.02
1025.975	0.02
1026.393	0.02
1026.811	0.02
1027.229	0.02
1027.647	0.02
1028.065	0.02
1028.482	0.02
1028.9	0.02
1029.318	0.02
1029.735	0.02
1030.153	0.02
1030.571	0.02
1030.988	0.02
1031.406	0.02
1031.823	0.02
1032.241	0.02
1032.659	0.02
1033.076	0.02
1033.493	0.02
1033.911	0.02
1034.328	0.02
1034.746	0.02
1035.163	0.02
1035.58	0.02
1035.997	0.02
1036.415	0.02
1036.832	0.02
1037.249	0.02
1037.666	0.02
1038.083	0.02
1038.501	0.02
1038.918	0.02
1039.335	0.02
1039.752	0.02
1040.169	0.02
1040.586	0.02
1041.003	0.02
1041.419	0.02
1041.836	0.02
1042.253	0.02
1042.67	0.02
1043.087	0.02
1043.504	0.02
1043.92	0.02
1044.337	0.02
1044.754	0.02
1045.17	0.02
1045.587	0.02
1046.004	0.02
1046.42	0.02
1046.837	0.02
1047.253	0.02
1047.67	0.02
1048.086	0.02
1048.503	0.02
1048.919	0.02
1049.335	0.02
1049.752	0.02
1050.168	0.02
1050.584	0.02
1051.001	0.02
1051.417	0.02
1051.833	0.02
1052.249	0.02
1052.665	0.02
1053.081	0.02
1053.497	0.02
1053.914	0.02
1054.33	0.02
1054.746	0.02
1055.162	0.02
1055.578	0.02
1055.993	0.02
1056.409	0.01
1056.825	0.01
1057.241	0.01
1057.657	0.01
1058.073	0.01
1058.488	0.01
1058.904	0.01
1059.32	0.01
1059.736	0.01
1060.151	0.01
1060.567	0.01
1060.982	0.01
1061.398	0.01
1061.813	0.01
1062.229	0.01
1062.644	0.01
1063.06	0.01
1063.475	0.01
1063.891	0.01
1064.306	0.01
1064.721	0.01
1065.137	0.01
1065.552	0.01
1065.967	0.01
1066.382	0.01
1066.798	0.01
1067.213	0.01
1067.628	0.01
1068.043	0.01
1068.458	0.01
1068.873	0.01
1069.288	0.01
1069.703	0.01
1070.118	0.01
1070.533	0.01
1070.948	0.01
1071.363	0.01
1071.778	0.01
1072.193	0.01
1072.607	0.01
1073.022	0.01
1073.437	0
1073.852	0
1074.266	0
1074.681	0
1075.096	0
1075.51	0
1075.925	0
1076.339	-0
1076.754	-0
1077.168	-0
1077.583	-0
1077.997	-0
1078.412	-0
1078.826	-0
1079.24	-0
1079.655	-0
1080.069	-0
1080.483	-0
1080.897	-0
1081.312	-0
1081.726	-0
1082.14	-0
1082.554	-0
1082.968	-0
1083.382	-0
1083.796	-0
1084.21	-0
1084.624	-0
1085.038	-0
1085.452	-0
1085.866	-0
1086.28	-0
1086.694	0
1087.108	0
1087.521	-0
1087.935	-0
1088.349	-0
1088.763	-0
1089.176	-0
1089.59	-0
1090.004	-0.01
1090.417	-0.01
1090.831	-0.01
1091.244	-0.01
1091.658	-0.01
1092.071	-0.01
1092.485	-0.01
1092.898	-0.01
1093.312	-0.01
1093.725	-0.01
1094.138	-0.01
1094.552	-0.01
1094.965	-0.01
1095.378	-0.01
1095.791	-0.01
1096.205	-0.01
1096.618	-0.01
1097.031	-0.01
1097.444	-0.02
1097.857	-0.02
1098.27	-0.02
1098.683	-0.02
1099.096	-0.02
1099.509	-0.02
1099.922	-0.02
1100.335	-0.02
1100.748	-0.02
1101.161	-0.02
1101.574	-0.02
1101.986	-0.02
1102.399	-0.02
1102.812	-0.02
1103.225	-0.02
1103.637	-0.02
1104.05	-0.03
1104.463	-0.03
1104.875	-0.03
1105.288	-0.03
1105.7	-0.03
1106.113	-0.03
1106.525	-0.03
1106.938	-0.04
1107.35	-0.04
1107.763	-0.04
1108.175	-0.04
1108.588	-0.04
1109	-0.05
1109.412	-0.05
1109.824	-0.05
1110.237	-0.05
1110.649	-0.05
1111.061	-0.05
