Data from 2024-02-06-100ns-20nr-25nacl-100h2o-7bp2-1_5a808-40to10hyt-0_5cpm_Absorbance__56__00183.txt Node

Date: Tue Feb 06 12:35:51 CET 2024
User: Laser008
Spectrometer: MAYP115816
Trigger mode: 0
Integration Time (sec): 2.000000E-1
Scans to average: 10
Electric dark correction enabled: true
Nonlinearity correction enabled: true
Boxcar width: 5
XAxis mode: Wavelengths
Number of Pixels in Spectrum: 2068
>>>>>Begin Spectral Data<<<<<
198.914	-0.32
199.384	-0.28
199.855	-0.23
200.325	-0.19
200.796	-0.16
201.266	-0.15
201.737	-0.14
202.207	-0.13
202.677	-0.12
203.147	-0.12
203.618	-0.11
204.088	-0.09
204.558	-0.09
205.028	-0.08
205.498	-0.08
205.968	-0.08
206.439	-0.08
206.909	-0.08
207.379	-0.08
207.849	-0.08
208.319	-0.08
208.789	-0.08
209.258	-0.08
209.728	-0.08
210.198	-0.08
210.668	-0.09
211.138	-0.09
211.608	-0.09
212.077	-0.09
212.547	-0.09
213.017	-0.09
213.486	-0.09
213.956	-0.09
214.426	-0.09
214.895	-0.08
215.365	-0.09
215.834	-0.09
216.304	-0.09
216.773	-0.08
217.243	-0.08
217.712	-0.08
218.181	-0.08
218.651	-0.07
219.12	-0.07
219.589	-0.07
220.058	-0.07
220.528	-0.07
220.997	-0.07
221.466	-0.07
221.935	-0.07
222.404	-0.06
222.873	-0.06
223.342	-0.06
223.812	-0.06
224.281	-0.05
224.749	-0.05
225.218	-0.04
225.687	-0.04
226.156	-0.03
226.625	-0.02
227.094	-0.01
227.563	-0
228.031	0.01
228.5	0.02
228.969	0.04
229.438	0.05
229.906	0.07
230.375	0.09
230.844	0.11
231.312	0.13
231.781	0.14
232.249	0.16
232.718	0.18
233.186	0.2
233.655	0.22
234.123	0.23
234.591	0.25
235.06	0.26
235.528	0.28
235.996	0.29
236.465	0.3
236.933	0.31
237.401	0.32
237.869	0.32
238.337	0.33
238.805	0.34
239.274	0.34
239.742	0.35
240.21	0.35
240.678	0.36
241.146	0.36
241.614	0.36
242.081	0.37
242.549	0.37
243.017	0.37
243.485	0.37
243.953	0.38
244.421	0.38
244.888	0.38
245.356	0.38
245.824	0.39
246.291	0.39
246.759	0.39
247.227	0.39
247.694	0.39
248.162	0.4
248.629	0.4
249.097	0.4
249.564	0.4
250.032	0.4
250.499	0.41
250.967	0.41
251.434	0.41
251.901	0.41
252.369	0.41
252.836	0.42
253.303	0.42
253.77	0.42
254.237	0.42
254.705	0.42
255.172	0.42
255.639	0.42
256.106	0.43
256.573	0.43
257.04	0.43
257.507	0.43
257.974	0.43
258.441	0.43
258.908	0.43
259.375	0.43
259.841	0.43
260.308	0.43
260.775	0.43
261.242	0.43
261.709	0.43
262.175	0.43
262.642	0.43
263.109	0.43
263.575	0.43
264.042	0.43
264.508	0.43
264.975	0.42
265.441	0.42
265.908	0.42
266.374	0.42
266.841	0.42
267.307	0.42
267.773	0.42
268.24	0.42
268.706	0.41
269.172	0.41
269.639	0.41
270.105	0.41
270.571	0.41
271.037	0.4
271.503	0.4
271.969	0.4
272.435	0.4
272.902	0.4
273.368	0.4
273.834	0.39
274.3	0.39
274.765	0.39
275.231	0.39
275.697	0.38
276.163	0.38
276.629	0.38
277.095	0.38
277.56	0.38
278.026	0.37
278.492	0.37
278.958	0.37
279.423	0.37
279.889	0.36
280.354	0.36
280.82	0.36
281.286	0.36
281.751	0.35
282.217	0.35
282.682	0.35
283.147	0.35
283.613	0.34
284.078	0.34
284.544	0.34
285.009	0.34
285.474	0.34
285.939	0.33
286.405	0.33
286.87	0.33
287.335	0.33
287.8	0.33
288.265	0.32
288.73	0.32
289.195	0.32
289.66	0.32
290.125	0.32
290.59	0.32
291.055	0.31
291.52	0.31
291.985	0.31
292.45	0.31
292.915	0.31
293.38	0.31
293.844	0.31
294.309	0.3
294.774	0.3
295.239	0.3
295.703	0.3
296.168	0.3
296.632	0.3
297.097	0.3
297.562	0.3
298.026	0.3
298.491	0.3
298.955	0.3
299.419	0.29
299.884	0.29
300.348	0.29
300.813	0.29
301.277	0.29
301.741	0.29
302.205	0.29
302.67	0.29
303.134	0.29
303.598	0.29
304.062	0.29
304.526	0.29
304.99	0.29
305.454	0.29
305.919	0.29
306.383	0.28
306.847	0.28
307.31	0.28
307.774	0.28
308.238	0.28
308.702	0.28
309.166	0.28
309.63	0.28
310.094	0.28
310.557	0.28
311.021	0.28
311.485	0.28
311.948	0.28
312.412	0.28
312.876	0.28
313.339	0.28
313.803	0.28
314.266	0.28
314.73	0.27
315.193	0.27
315.657	0.27
316.12	0.27
316.584	0.27
317.047	0.27
317.51	0.27
317.973	0.27
318.437	0.27
318.9	0.27
319.363	0.27
319.826	0.27
320.29	0.27
320.753	0.27
321.216	0.27
321.679	0.27
322.142	0.27
322.605	0.27
323.068	0.26
323.531	0.26
323.994	0.26
324.457	0.26
324.92	0.26
325.382	0.26
325.845	0.26
326.308	0.26
326.771	0.26
327.233	0.26
327.696	0.26
328.159	0.26
328.622	0.26
329.084	0.26
329.547	0.26
330.009	0.26
330.472	0.26
330.934	0.26
331.397	0.25
331.859	0.25
332.322	0.25
332.784	0.25
333.246	0.25
333.709	0.25
334.171	0.25
334.633	0.25
335.096	0.25
335.558	0.25
336.02	0.25
336.482	0.25
336.944	0.25
337.406	0.25
337.868	0.25
338.331	0.25
338.793	0.25
339.255	0.25
339.717	0.25
340.178	0.25
340.64	0.25
341.102	0.25
341.564	0.25
342.026	0.24
342.488	0.24
342.949	0.24
343.411	0.24
343.873	0.24
344.335	0.24
344.796	0.24
345.258	0.24
345.719	0.24
346.181	0.24
346.643	0.24
347.104	0.24
347.566	0.24
348.027	0.24
348.488	0.24
348.95	0.24
349.411	0.24
349.873	0.24
350.334	0.24
350.795	0.24
351.256	0.24
351.718	0.24
352.179	0.24
352.64	0.24
353.101	0.24
353.562	0.24
354.023	0.24
354.484	0.24
354.945	0.24
355.406	0.24
355.867	0.24
356.328	0.24
356.789	0.24
357.25	0.24
357.711	0.24
358.172	0.24
358.633	0.24
359.093	0.24
359.554	0.24
360.015	0.24
360.476	0.24
360.936	0.24
361.397	0.24
361.858	0.24
362.318	0.24
362.779	0.24
363.239	0.24
363.7	0.24
364.16	0.24
364.621	0.24
365.081	0.24
365.541	0.24
366.002	0.24
366.462	0.24
366.922	0.23
367.383	0.23
367.843	0.23
368.303	0.23
368.763	0.23
369.223	0.23
369.684	0.23
370.144	0.23
370.604	0.23
371.064	0.23
371.524	0.23
371.984	0.23
372.444	0.23
372.904	0.23
373.363	0.23
373.823	0.23
374.283	0.23
374.743	0.23
375.203	0.23
375.663	0.23
376.122	0.23
376.582	0.23
377.042	0.23
377.501	0.23
377.961	0.23
378.42	0.23
378.88	0.23
379.34	0.23
379.799	0.23
380.259	0.23
380.718	0.23
381.177	0.23
381.637	0.23
382.096	0.23
382.555	0.23
383.015	0.23
383.474	0.23
383.933	0.23
384.393	0.23
384.852	0.23
385.311	0.23
385.77	0.23
386.229	0.23
386.688	0.23
387.147	0.23
387.606	0.23
388.065	0.23
388.524	0.23
388.983	0.23
389.442	0.23
389.901	0.23
390.36	0.23
390.819	0.23
391.277	0.23
391.736	0.23
392.195	0.23
392.654	0.22
393.112	0.22
393.571	0.22
394.03	0.22
394.488	0.22
394.947	0.22
395.405	0.22
395.864	0.22
396.322	0.22
396.781	0.22
397.239	0.22
397.698	0.22
398.156	0.22
398.614	0.22
399.073	0.22
399.531	0.22
399.989	0.22
400.447	0.22
400.905	0.22
401.364	0.22
401.822	0.22
402.28	0.22
402.738	0.22
403.196	0.22
403.654	0.22
404.112	0.22
404.57	0.22
405.028	0.22
405.486	0.22
405.944	0.22
406.402	0.22
406.859	0.22
407.317	0.22
407.775	0.22
408.233	0.22
408.691	0.22
409.148	0.22
409.606	0.22
410.064	0.22
410.521	0.22
410.979	0.22
411.436	0.22
411.894	0.21
412.351	0.21
412.809	0.21
413.266	0.21
413.724	0.21
414.181	0.21
414.638	0.21
415.096	0.21
415.553	0.21
416.01	0.21
416.467	0.21
416.925	0.21
417.382	0.21
417.839	0.21
418.296	0.21
418.753	0.21
419.21	0.21
419.667	0.21
420.124	0.21
420.581	0.21
421.038	0.21
421.495	0.21
421.952	0.21
422.409	0.21
422.866	0.21
423.322	0.21
423.779	0.21
424.236	0.21
424.693	0.21
425.149	0.21
425.606	0.21
426.063	0.21
426.519	0.21
426.976	0.21
427.433	0.21
427.889	0.21
428.346	0.21
428.802	0.21
429.258	0.21
429.715	0.21
430.171	0.21
430.628	0.21
431.084	0.21
431.54	0.21
431.997	0.21
432.453	0.21
432.909	0.21
433.365	0.2
433.821	0.2
434.277	0.2
434.734	0.2
435.19	0.2
435.646	0.2
436.102	0.2
436.558	0.2
437.014	0.2
437.47	0.2
437.925	0.2
438.381	0.2
438.837	0.2
439.293	0.2
439.749	0.2
440.205	0.2
440.66	0.2
441.116	0.2
441.572	0.2
442.027	0.2
442.483	0.2
442.939	0.2
443.394	0.2
443.85	0.2
444.305	0.2
444.761	0.2
445.216	0.2
445.672	0.2
446.127	0.2
446.582	0.2
447.038	0.2
447.493	0.2
447.948	0.2
448.403	0.2
448.859	0.2
449.314	0.2
449.769	0.2
450.224	0.2
450.679	0.2
451.134	0.2
451.589	0.2
452.044	0.2
452.499	0.2
452.954	0.2
453.409	0.2
453.864	0.2
454.319	0.2
454.774	0.2
455.229	0.2
455.684	0.2
456.138	0.2
456.593	0.2
457.048	0.2
457.503	0.2
457.957	0.2
458.412	0.2
458.866	0.2
459.321	0.2
459.776	0.2
460.23	0.2
460.685	0.2
461.139	0.2
461.593	0.2
462.048	0.2
462.502	0.2
462.957	0.2
463.411	0.2
463.865	0.2
464.319	0.2
464.774	0.2
465.228	0.2
465.682	0.2
466.136	0.2
466.59	0.2
467.044	0.2
467.499	0.2
467.953	0.2
468.407	0.2
468.861	0.2
469.315	0.2
469.768	0.2
470.222	0.2
470.676	0.2
471.13	0.2
471.584	0.2
472.038	0.2
472.491	0.2
472.945	0.2
473.399	0.2
473.852	0.2
474.306	0.2
474.76	0.2
475.213	0.2
475.667	0.2
476.12	0.2
476.574	0.2
477.027	0.2
477.481	0.2
477.934	0.2
478.388	0.2
478.841	0.2
479.294	0.2
479.748	0.2
480.201	0.2
480.654	0.2
481.107	0.2
481.561	0.2
482.014	0.2
482.467	0.21
482.92	0.21
483.373	0.21
483.826	0.21
484.279	0.21
484.732	0.21
485.185	0.21
485.638	0.21
486.091	0.21
486.544	0.21
486.997	0.21
487.449	0.21
487.902	0.21
488.355	0.21
488.808	0.21
489.26	0.22
489.713	0.22
490.166	0.22
490.618	0.22
491.071	0.22
491.523	0.22
491.976	0.22
492.429	0.22
492.881	0.22
493.333	0.22
493.786	0.23
494.238	0.23
494.691	0.23
495.143	0.23
495.595	0.23
496.048	0.23
496.5	0.23
496.952	0.23
497.404	0.24
497.856	0.24
498.309	0.24
498.761	0.24
499.213	0.24
499.665	0.24
500.117	0.25
500.569	0.25
501.021	0.25
501.473	0.25
501.925	0.25
502.377	0.25
502.828	0.25
503.28	0.26
503.732	0.26
504.184	0.26
504.636	0.26
505.087	0.26
505.539	0.26
505.991	0.26
506.442	0.27
506.894	0.27
507.345	0.27
507.797	0.27
508.249	0.27
508.7	0.27
509.151	0.27
509.603	0.28
510.054	0.28
510.506	0.28
510.957	0.28
511.408	0.28
511.86	0.28
512.311	0.28
512.762	0.28
513.213	0.29
513.665	0.29
514.116	0.29
514.567	0.29
515.018	0.29
515.469	0.29
515.92	0.29
516.371	0.29
516.822	0.3
517.273	0.3
517.724	0.3
518.175	0.3
518.626	0.3
519.076	0.3
519.527	0.3
519.978	0.3
520.429	0.3
520.88	0.31
521.33	0.31
521.781	0.31
522.232	0.31
522.682	0.31
523.133	0.31
523.583	0.31
524.034	0.31
524.484	0.31
524.935	0.31
525.385	0.31
525.836	0.31
526.286	0.31
526.736	0.32
527.187	0.32
527.637	0.32
528.087	0.32
528.538	0.32
528.988	0.32
529.438	0.32
529.888	0.32
530.338	0.32
530.788	0.32
531.238	0.32
531.688	0.32
532.139	0.32
532.589	0.32
533.038	0.32
533.488	0.32
533.938	0.32
534.388	0.32
534.838	0.32
535.288	0.32
535.738	0.32
536.187	0.32
536.637	0.32
537.087	0.32
537.537	0.32
537.986	0.32
538.436	0.32
538.885	0.32
539.335	0.32
539.785	0.32
540.234	0.32
540.684	0.32
541.133	0.32
541.582	0.32
542.032	0.32
542.481	0.32
542.931	0.32
543.38	0.32
543.829	0.32
544.278	0.32
544.728	0.32
545.177	0.32
545.626	0.32
546.075	0.32
546.524	0.32
546.973	0.32
547.422	0.32
547.871	0.32
548.32	0.31
548.769	0.31
549.218	0.31
549.667	0.31
550.116	0.31
550.565	0.31
551.014	0.31
551.463	0.31
551.911	0.31
552.36	0.31
552.809	0.31
553.258	0.31
553.706	0.31
554.155	0.31
554.603	0.31
555.052	0.3
555.501	0.3
555.949	0.3
556.398	0.3
556.846	0.3
557.294	0.3
557.743	0.3
558.191	0.3
558.64	0.3
559.088	0.3
559.536	0.3
559.985	0.3
560.433	0.3
560.881	0.3
561.329	0.3
561.777	0.3
562.225	0.3
562.674	0.29
563.122	0.29
563.57	0.29
564.018	0.29
564.466	0.29
564.914	0.29
565.362	0.29
565.809	0.29
566.257	0.29
566.705	0.29
567.153	0.28
567.601	0.28
568.048	0.28
568.496	0.28
568.944	0.28
569.392	0.28
569.839	0.28
570.287	0.28
570.734	0.28
571.182	0.28
571.63	0.27
572.077	0.27
572.525	0.27
572.972	0.27
573.419	0.27
573.867	0.27
574.314	0.27
574.761	0.27
575.209	0.27
575.656	0.26
576.103	0.26
576.551	0.26
576.998	0.26
577.445	0.26
577.892	0.26
578.339	0.26
578.786	0.26
579.233	0.26
579.68	0.25
580.127	0.25
580.574	0.25
581.021	0.25
581.468	0.25
581.915	0.25
582.362	0.25
582.809	0.24
583.255	0.24
583.702	0.24
584.149	0.24
584.596	0.24
585.042	0.24
585.489	0.24
585.936	0.23
586.382	0.23
586.829	0.23
587.275	0.23
587.722	0.23
588.168	0.23
588.615	0.23
589.061	0.23
589.508	0.23
589.954	0.22
590.4	0.22
590.847	0.22
591.293	0.22
591.739	0.22
592.185	0.22
592.632	0.22
593.078	0.22
593.524	0.21
593.97	0.21
594.416	0.21
594.862	0.21
595.308	0.21
595.754	0.21
596.2	0.21
596.646	0.21
597.092	0.2
597.538	0.2
597.984	0.2
598.43	0.2
598.876	0.2
599.321	0.2
599.767	0.2
600.213	0.2
600.659	0.2
601.104	0.2
601.55	0.19
601.995	0.19
602.441	0.19
602.887	0.19
603.332	0.19
603.778	0.19
604.223	0.19
604.668	0.19
605.114	0.19
605.559	0.19
606.005	0.18
606.45	0.18
606.895	0.18
607.341	0.18
607.786	0.18
608.231	0.18
608.676	0.18
609.121	0.18
609.566	0.18
610.012	0.18
610.457	0.18
610.902	0.17
611.347	0.17
611.792	0.17
612.237	0.17
612.682	0.17
613.127	0.17
613.571	0.17
614.016	0.17
614.461	0.17
614.906	0.17
615.351	0.17
615.795	0.17
616.24	0.17
616.685	0.17
617.129	0.17
617.574	0.17
618.019	0.16
618.463	0.16
618.908	0.16
619.352	0.16
619.797	0.16
620.241	0.16
620.686	0.16
621.13	0.16
621.574	0.16
622.019	0.16
622.463	0.16
622.907	0.16
623.352	0.16
623.796	0.16
624.24	0.16
624.684	0.16
625.128	0.16
625.572	0.16
626.016	0.16
626.461	0.16
626.905	0.16
627.349	0.16
627.793	0.16
628.236	0.16
628.68	0.16
629.124	0.16
629.568	0.16
630.012	0.16
630.456	0.16
630.9	0.16
631.343	0.16
631.787	0.16
632.231	0.16
632.674	0.16
633.118	0.16
633.562	0.16
634.005	0.16
634.449	0.16
634.892	0.16
635.336	0.17
635.779	0.17
636.223	0.17
636.666	0.17
637.109	0.17
637.553	0.17
637.996	0.17
638.439	0.17
638.883	0.17
639.326	0.17
639.769	0.17
640.212	0.17
640.655	0.17
641.099	0.18
641.542	0.18
641.985	0.18
642.428	0.18
642.871	0.18
643.314	0.18
643.757	0.18
644.2	0.18
644.643	0.19
645.085	0.19
645.528	0.19
645.971	0.19
646.414	0.19
646.857	0.19
647.299	0.2
647.742	0.2
648.185	0.2
648.627	0.2
649.07	0.2
649.513	0.21
649.955	0.21
650.398	0.21
650.84	0.21
651.283	0.21
651.725	0.22
652.168	0.22
652.61	0.22
653.052	0.22
653.495	0.23
653.937	0.18
654.379	0.14
654.821	0.14
655.264	0.15
655.706	0.15
656.148	0.15
656.59	0.15
657.032	0.15
657.474	0.15
657.916	0.15
658.358	0.15
658.8	0.19
659.242	0.25
659.684	0.26
660.126	0.26
660.568	0.26
661.01	0.27
661.452	0.27
661.894	0.27
662.335	0.27
662.777	0.28
663.219	0.28
663.661	0.28
664.102	0.28
664.544	0.29
664.985	0.29
665.427	0.29
665.869	0.29
666.31	0.3
666.752	0.3
667.193	0.3
667.634	0.3
668.076	0.3
668.517	0.31
668.959	0.31
669.4	0.31
669.841	0.31
670.282	0.32
670.724	0.32
671.165	0.32
671.606	0.32
672.047	0.32
672.488	0.33
672.929	0.33
673.37	0.33
673.811	0.33
674.252	0.33
674.693	0.33
675.134	0.34
675.575	0.34
676.016	0.34
676.457	0.34
676.898	0.34
677.339	0.34
677.78	0.35
678.22	0.35
678.661	0.35
679.102	0.35
679.542	0.35
679.983	0.35
680.424	0.35
680.864	0.35
681.305	0.35
681.745	0.36
682.186	0.36
682.626	0.36
683.067	0.36
683.507	0.36
683.948	0.36
684.388	0.36
684.828	0.36
685.269	0.36
685.709	0.36
686.149	0.36
686.589	0.36
687.029	0.36
687.47	0.36
687.91	0.36
688.35	0.36
688.79	0.36
689.23	0.36
689.67	0.36
690.11	0.36
690.55	0.36
690.99	0.36
691.43	0.36
691.87	0.36
692.31	0.36
692.749	0.36
693.189	0.36
693.629	0.36
694.069	0.36
694.508	0.36
694.948	0.36
695.388	0.36
695.827	0.36
696.267	0.36
696.706	0.36
697.146	0.36
697.586	0.35
698.025	0.35
698.464	0.35
698.904	0.35
699.343	0.35
699.783	0.35
700.222	0.35
700.661	0.35
701.101	0.35
701.54	0.35
701.979	0.35
702.418	0.34
702.857	0.34
703.297	0.34
703.736	0.34
704.175	0.34
704.614	0.34
705.053	0.34
705.492	0.33
705.931	0.33
706.37	0.33
706.809	0.33
707.248	0.33
707.687	0.33
708.125	0.33
708.564	0.32
709.003	0.32
709.442	0.32
709.88	0.32
710.319	0.32
710.758	0.32
711.196	0.31
711.635	0.31
712.074	0.31
712.512	0.31
712.951	0.31
713.389	0.31
713.828	0.3
714.266	0.3
714.705	0.3
715.143	0.3
715.581	0.3
716.02	0.3
716.458	0.3
716.896	0.3
717.334	0.29
717.773	0.29
718.211	0.29
718.649	0.29
719.087	0.29
719.525	0.29
719.963	0.28
720.401	0.28
720.839	0.28
721.277	0.28
721.715	0.28
722.153	0.28
722.591	0.27
723.029	0.27
723.467	0.27
723.905	0.27
724.342	0.27
724.78	0.27
725.218	0.27
725.656	0.27
726.093	0.26
726.531	0.26
726.969	0.26
727.406	0.26
727.844	0.26
728.281	0.26
728.719	0.26
729.156	0.25
729.594	0.25
730.031	0.25
730.469	0.25
730.906	0.25
731.343	0.25
731.781	0.25
732.218	0.24
732.655	0.24
733.092	0.24
733.53	0.24
733.967	0.24
734.404	0.24
734.841	0.23
735.278	0.23
735.715	0.23
736.152	0.23
736.589	0.23
737.026	0.22
737.463	0.22
737.9	0.22
738.337	0.22
738.774	0.22
739.211	0.22
739.647	0.21
740.084	0.21
740.521	0.21
740.958	0.21
741.394	0.21
741.831	0.21
742.268	0.21
742.704	0.2
743.141	0.2
743.577	0.2
744.014	0.2
744.45	0.2
744.887	0.2
745.323	0.19
745.76	0.19
746.196	0.19
746.632	0.19
747.069	0.19
747.505	0.19
747.941	0.19
748.378	0.19
748.814	0.18
749.25	0.18
749.686	0.18
750.122	0.18
750.558	0.18
750.994	0.18
751.43	0.18
751.866	0.18
752.302	0.17
752.738	0.17
753.174	0.17
753.61	0.17
754.046	0.17
754.482	0.16
754.918	0.16
755.354	0.16
755.789	0.16
756.225	0.16
756.661	0.16
757.096	0.16
757.532	0.15
757.968	0.15
758.403	0.15
758.839	0.15
759.274	0.15
759.71	0.15
760.145	0.15
760.581	0.15
761.016	0.15
761.452	0.15
761.887	0.14
762.322	0.14
762.758	0.14
763.193	0.14
763.628	0.14
764.063	0.13
764.499	0.13
764.934	0.13
765.369	0.13
765.804	0.13
766.239	0.12
766.674	0.12
767.109	0.12
767.544	0.12
767.979	0.11
768.414	0.11
768.849	0.11
769.284	0.11
769.719	0.1
770.154	0.1
770.588	0.1
771.023	0.09
771.458	0.09
771.893	0.08
772.327	0.08
772.762	0.08
773.197	0.07
773.631	0.07
774.066	0.07
774.5	0.06
774.935	0.06
775.369	0.06
775.804	0.05
776.238	0.05
776.673	0.04
777.107	0.04
777.541	0.04
777.976	0.03
778.41	0.03
778.844	0.03
779.279	0.02
779.713	0.02
780.147	0.01
780.581	0.01
781.015	0.01
781.449	0
781.883	-0
782.317	-0.01
782.751	-0.01
783.185	-0.02
783.619	-0.02
784.053	-0.03
784.487	-0.03
784.921	-0.04
785.355	-0.05
785.789	-0.05
786.223	-0.06
786.656	-0.06
787.09	-0.07
787.524	-0.07
787.957	-0.08
788.391	-0.09
788.825	-0.09
789.258	-0.1
789.692	-0.1
790.125	-0.11
790.559	-0.12
790.992	-0.12
791.426	-0.12
791.859	-0.12
792.293	-0.11
792.726	-0.11
793.159	-0.1
793.593	-0.1
794.026	-0.1
794.459	-0.11
794.892	-0.11
795.326	-0.11
795.759	-0.11
796.192	-0.11
796.625	-0.12
797.058	-0.13
797.491	-0.14
797.924	-0.15
798.357	-0.15
798.79	-0.15
799.223	-0.15
799.656	-0.15
800.089	-0.15
800.522	-0.15
800.955	-0.16
801.387	-0.15
801.82	-0.16
802.253	-0.16
802.686	-0.16
803.118	-0.16
803.551	-0.16
803.984	-0.15
804.416	-0.15
804.849	-0.14
805.281	-0.14
805.714	-0.14
806.146	-0.14
806.579	-0.13
807.011	-0.13
807.444	-0.13
807.876	-0.13
808.308	-0.13
808.741	-0.14
809.173	-0.14
809.605	-0.15
810.037	-0.15
810.47	-0.15
810.902	-0.16
811.334	-0.16
811.766	-0.16
812.198	-0.15
812.63	-0.15
813.062	-0.15
813.494	-0.15
813.926	-0.15
814.358	-0.14
814.79	-0.14
815.222	-0.13
815.654	-0.12
816.086	-0.11
816.518	-0.1
816.949	-0.1
817.381	-0.09
817.813	-0.08
818.245	-0.07
818.676	-0.06
819.108	-0.05
819.54	-0.04
819.971	-0.04
820.403	-0.03
820.834	-0.02
821.266	-0.02
821.697	-0.01
822.129	-0.01
822.56	-0
822.991	-0
823.423	0
823.854	0
824.286	0.01
824.717	0.01
825.148	0.01
825.579	0.02
826.01	0.02
826.442	0.02
826.873	0.02
827.304	0.02
827.735	0.02
828.166	0.03
828.597	0.03
829.028	0.03
829.459	0.03
829.89	0.03
830.321	0.03
830.752	0.03
831.183	0.03
831.613	0.03
832.044	0.04
832.475	0.04
832.906	0.04
833.336	0.04
833.767	0.04
834.198	0.04
834.628	0.04
835.059	0.04
835.49	0.04
835.92	0.04
836.351	0.04
836.781	0.04
837.212	0.04
837.642	0.04
838.072	0.04
838.503	0.05
838.933	0.05
839.364	0.05
839.794	0.05
840.224	0.05
840.654	0.04
841.085	0.04
841.515	0.04
841.945	0.04
842.375	0.04
842.805	0.04
843.235	0.04
843.665	0.04
844.095	0.04
844.525	0.05
844.955	0.05
845.385	0.05
845.815	0.05
846.245	0.05
846.675	0.05
847.105	0.05
847.534	0.05
847.964	0.05
848.394	0.05
848.824	0.04
849.253	0.04
849.683	0.04
850.112	0.04
850.542	0.04
850.972	0.04
851.401	0.04
851.831	0.04
852.26	0.04
852.69	0.04
853.119	0.04
853.548	0.04
853.978	0.04
854.407	0.04
854.836	0.04
855.266	0.04
855.695	0.05
856.124	0.05
856.553	0.05
856.983	0.05
857.412	0.05
857.841	0.05
858.27	0.05
858.699	0.05
859.128	0.05
859.557	0.05
859.986	0.05
860.415	0.05
860.844	0.05
861.273	0.05
861.702	0.05
862.13	0.05
862.559	0.05
862.988	0.05
863.417	0.05
863.845	0.05
864.274	0.04
864.703	0.04
865.131	0.04
865.56	0.04
865.989	0.04
866.417	0.04
866.846	0.04
867.274	0.04
867.703	0.04
868.131	0.04
868.559	0.04
868.988	0.04
869.416	0.04
869.844	0.04
870.273	0.04
870.701	0.04
871.129	0.03
871.557	0.03
871.986	0.03
872.414	0.03
872.842	0.03
873.27	0.03
873.698	0.03
874.126	0.03
874.554	0.03
874.982	0.03
875.41	0.03
875.838	0.03
876.266	0.03
876.694	0.03
877.122	0.03
877.549	0.03
877.977	0.03
878.405	0.03
878.833	0.03
879.26	0.03
879.688	0.03
880.116	0.03
880.543	0.03
880.971	0.03
881.399	0.03
881.826	0.03
882.254	0.03
882.681	0.03
883.109	0.03
883.536	0.03
883.963	0.03
884.391	0.03
884.818	0.03
885.245	0.03
885.673	0.03
886.1	0.03
886.527	0.03
886.954	0.03
887.381	0.03
887.809	0.03
888.236	0.03
888.663	0.03
889.09	0.03
889.517	0.03
889.944	0.03
890.371	0.03
890.798	0.03
891.225	0.03
891.652	0.03
892.078	0.03
892.505	0.03
892.932	0.03
893.359	0.03
893.786	0.03
894.212	0.03
894.639	0.03
895.066	0.02
895.492	0.02
895.919	0.02
896.346	0.02
896.772	0.02
897.199	0.02
897.625	0.02
898.052	0.02
898.478	0.02
898.904	0.02
899.331	0.02
899.757	0.02
900.183	0.02
900.61	0.01
901.036	0.01
901.462	0.01
901.888	0.02
902.315	0.02
902.741	0.02
903.167	0.02
903.593	0.02
904.019	0.02
904.445	0.02
904.871	0.02
905.297	0.02
905.723	0.02
906.149	0.02
906.575	0.02
907.001	0.02
907.427	0.02
907.852	0.02
908.278	0.02
908.704	0.02
909.13	0.02
909.555	0.02
909.981	0.02
910.407	0.02
910.832	0.02
911.258	0.02
911.684	0.02
912.109	0.02
912.535	0.02
912.96	0.02
913.386	0.02
913.811	0.02
914.236	0.02
914.662	0.02
915.087	0.02
915.512	0.02
915.938	0.02
916.363	0.02
916.788	0.02
917.213	0.02
917.639	0.02
918.064	0.02
918.489	0.02
918.914	0.02
919.339	0.02
919.764	0.02
920.189	0.02
920.614	0.02
921.039	0.02
921.464	0.02
921.889	0.02
922.314	0.02
922.738	0.02
923.163	0.02
923.588	0.02
924.013	0.02
924.437	0.03
924.862	0.03
925.287	0.03
925.711	0.03
926.136	0.03
926.561	0.02
926.985	0.02
927.41	0.02
927.834	0.02
928.259	0.02
928.683	0.02
929.108	0.02
929.532	0.02
929.956	0.02
930.381	0.02
930.805	0.02
931.229	0.02
931.653	0.02
932.078	0.02
932.502	0.02
932.926	0.02
933.35	0.01
933.774	0.01
934.198	0.01
934.622	0.01
935.046	0.01
935.47	0.01
935.894	0.01
936.318	0.01
936.742	0.01
937.166	0.01
937.59	0.01
938.014	0.01
938.437	0.01
938.861	0.01
939.285	0.01
939.709	0.01
940.132	0.01
940.556	0.01
940.98	0.01
941.403	0.01
941.827	0.01
942.25	0.01
942.674	0.01
943.097	0.01
943.521	0
943.944	0
944.368	0
944.791	0
945.214	0
945.638	0
946.061	0
946.484	0
946.907	0
947.331	0
947.754	0
948.177	0
948.6	0
949.023	0
949.446	0
949.869	0
950.292	-0
950.715	-0
951.138	-0
951.561	-0
951.984	-0
952.407	-0
952.83	-0
953.252	-0
953.675	-0
954.098	-0
954.521	-0
954.943	-0
955.366	-0
955.789	-0
956.211	0
956.634	0
957.056	0
957.479	0.01
957.902	0.01
958.324	0.01
958.746	0.01
959.169	0.01
959.591	0.01
960.014	0.01
960.436	0.01
960.858	0.01
961.281	0.02
961.703	0.02
962.125	0.02
962.547	0.02
962.969	0.02
963.391	0.02
963.814	0.02
964.236	0.02
964.658	0.02
965.08	0.02
965.502	0.02
965.924	0.02
966.346	0.02
966.768	0.02
967.189	0.02
967.611	0.02
968.033	0.01
968.455	0.01
968.877	0.01
969.298	0.01
969.72	0.01
970.142	0.01
970.563	0.01
970.985	0.01
971.407	0.01
971.828	0.01
972.25	0.01
972.671	0.01
973.093	0.01
973.514	0.01
973.936	0.01
974.357	0.01
974.778	0.01
975.2	0.01
975.621	0.01
976.042	0.01
976.464	0.01
976.885	0.01
977.306	0.01
977.727	0.01
978.148	0.01
978.57	0.01
978.991	0.01
979.412	0.01
979.833	0.01
980.254	0.01
980.675	0.01
981.096	0.01
981.517	0.01
981.937	0.01
982.358	0.01
982.779	0.01
983.2	0.01
983.621	0.01
984.042	0.01
984.462	0.01
984.883	0.01
985.304	0.01
985.724	0.01
986.145	0.01
986.565	0.01
986.986	0.01
987.407	0.01
987.827	0.01
988.248	0.01
988.668	0.01
989.088	0.01
989.509	0
989.929	0
990.35	0
990.77	0
991.19	0
991.61	0
992.031	0
992.451	-0
992.871	-0
993.291	-0
993.711	-0
994.131	-0
994.551	-0
994.971	-0
995.391	-0
995.811	-0
996.231	-0
996.651	-0
997.071	-0
997.491	0
997.911	0
998.331	0
998.75	0
999.17	0
999.59	0
1000.009	0
1000.429	0.01
1000.849	0.01
1001.268	0.01
1001.688	0.01
1002.107	0.01
1002.527	0.01
1002.946	0.01
1003.366	0
1003.785	0
1004.205	0
1004.624	0
1005.044	0
1005.463	0
1005.882	0
1006.301	0
1006.721	0
1007.14	0
1007.559	0
1007.978	0
1008.397	0
1008.816	0
1009.235	0
1009.655	-0
1010.074	-0
1010.492	-0
1010.911	-0
1011.33	-0
1011.749	-0
1012.168	-0
1012.587	-0
1013.006	-0
1013.425	-0
1013.843	-0
1014.262	-0
1014.681	-0
1015.099	-0
1015.518	-0
1015.937	-0
1016.355	-0
1016.774	-0
1017.192	-0
1017.611	-0
1018.029	-0
1018.448	-0
1018.866	-0
1019.285	-0
1019.703	-0
1020.121	-0
1020.54	-0
1020.958	-0
1021.376	-0.01
1021.794	-0.01
1022.213	-0.01
1022.631	-0
1023.049	-0
1023.467	-0
1023.885	-0
1024.303	-0
1024.721	-0
1025.139	-0
1025.557	-0
1025.975	-0
1026.393	-0
1026.811	-0
1027.229	-0
1027.647	-0
1028.065	-0
1028.482	-0
1028.9	-0
1029.318	-0
1029.735	-0
1030.153	-0
1030.571	-0
1030.988	-0
1031.406	-0
1031.823	-0
1032.241	-0
1032.659	-0
1033.076	-0
1033.493	-0
1033.911	-0
1034.328	-0
1034.746	0
1035.163	0
1035.58	0
1035.997	-0
1036.415	-0
1036.832	-0
1037.249	-0
1037.666	-0
1038.083	-0
1038.501	-0
1038.918	-0
1039.335	-0
1039.752	0
1040.169	0
1040.586	0
1041.003	0
1041.419	0
1041.836	0
1042.253	0
1042.67	0
1043.087	0
1043.504	-0
1043.92	-0
1044.337	-0
1044.754	-0
1045.17	-0
1045.587	-0
1046.004	-0
1046.42	-0
1046.837	-0
1047.253	-0
1047.67	-0
1048.086	-0
1048.503	-0
1048.919	-0
1049.335	-0
1049.752	-0
1050.168	-0
1050.584	-0
1051.001	-0
1051.417	-0
1051.833	-0
1052.249	-0
1052.665	-0
1053.081	-0
1053.497	-0
1053.914	-0
1054.33	-0
1054.746	-0
1055.162	-0
1055.578	-0.01
1055.993	-0.01
1056.409	-0.01
1056.825	-0.01
1057.241	-0.01
1057.657	-0.01
1058.073	-0.01
1058.488	-0.01
1058.904	-0.01
1059.32	-0.01
1059.736	-0.02
1060.151	-0.02
1060.567	-0.02
1060.982	-0.02
1061.398	-0.02
1061.813	-0.02
1062.229	-0.02
1062.644	-0.02
1063.06	-0.02
1063.475	-0.02
1063.891	-0.02
1064.306	-0.02
1064.721	-0.02
1065.137	-0.02
1065.552	-0.02
1065.967	-0.02
1066.382	-0.02
1066.798	-0.02
1067.213	-0.02
1067.628	-0.02
1068.043	-0.02
1068.458	-0.02
1068.873	-0.02
1069.288	-0.02
1069.703	-0.02
1070.118	-0.02
1070.533	-0.02
1070.948	-0.02
1071.363	-0.02
1071.778	-0.02
1072.193	-0.02
1072.607	-0.02
1073.022	-0.02
1073.437	-0.02
1073.852	-0.02
1074.266	-0.02
1074.681	-0.02
1075.096	-0.02
1075.51	-0.02
1075.925	-0.02
1076.339	-0.03
1076.754	-0.03
1077.168	-0.03
1077.583	-0.03
1077.997	-0.03
1078.412	-0.03
1078.826	-0.03
1079.24	-0.03
1079.655	-0.03
1080.069	-0.03
1080.483	-0.03
1080.897	-0.03
1081.312	-0.03
1081.726	-0.02
1082.14	-0.02
1082.554	-0.02
1082.968	-0.02
1083.382	-0.02
1083.796	-0.02
1084.21	-0.02
1084.624	-0.02
1085.038	-0.02
1085.452	-0.02
1085.866	-0.02
1086.28	-0.02
1086.694	-0.02
1087.108	-0.02
1087.521	-0.02
1087.935	-0.02
1088.349	-0.02
1088.763	-0.02
1089.176	-0.02
1089.59	-0.02
1090.004	-0.02
1090.417	-0.02
1090.831	-0.03
1091.244	-0.03
1091.658	-0.03
1092.071	-0.03
1092.485	-0.03
1092.898	-0.03
1093.312	-0.03
1093.725	-0.03
1094.138	-0.03
1094.552	-0.03
1094.965	-0.03
1095.378	-0.03
1095.791	-0.03
1096.205	-0.03
1096.618	-0.03
1097.031	-0.03
1097.444	-0.03
1097.857	-0.03
1098.27	-0.04
1098.683	-0.04
1099.096	-0.04
1099.509	-0.04
1099.922	-0.04
1100.335	-0.04
1100.748	-0.04
1101.161	-0.04
1101.574	-0.04
1101.986	-0.04
1102.399	-0.04
1102.812	-0.04
1103.225	-0.04
1103.637	-0.04
1104.05	-0.04
1104.463	-0.04
1104.875	-0.04
1105.288	-0.05
1105.7	-0.05
1106.113	-0.05
1106.525	-0.05
1106.938	-0.05
1107.35	-0.06
1107.763	-0.06
1108.175	-0.06
1108.588	-0.06
1109	-0.06
1109.412	-0.06
1109.824	-0.06
1110.237	-0.06
1110.649	-0.06
1111.061	-0.06
