Data from 2024-02-06-100ns-20nr-25nacl-100h2o-7bp2-1_5a808-40to10hyt-0_5cpm_Absorbance__85__00212.txt Node

Date: Tue Feb 06 12:50:21 CET 2024
User: Laser008
Spectrometer: MAYP115816
Trigger mode: 0
Integration Time (sec): 2.000000E-1
Scans to average: 10
Electric dark correction enabled: true
Nonlinearity correction enabled: true
Boxcar width: 5
XAxis mode: Wavelengths
Number of Pixels in Spectrum: 2068
>>>>>Begin Spectral Data<<<<<
198.914	-0.33
199.384	-0.3
199.855	-0.24
200.325	-0.2
200.796	-0.17
201.266	-0.15
201.737	-0.14
202.207	-0.13
202.677	-0.13
203.147	-0.12
203.618	-0.12
204.088	-0.1
204.558	-0.09
205.028	-0.09
205.498	-0.09
205.968	-0.09
206.439	-0.09
206.909	-0.09
207.379	-0.09
207.849	-0.09
208.319	-0.09
208.789	-0.09
209.258	-0.09
209.728	-0.09
210.198	-0.09
210.668	-0.09
211.138	-0.1
211.608	-0.1
212.077	-0.1
212.547	-0.1
213.017	-0.1
213.486	-0.1
213.956	-0.1
214.426	-0.1
214.895	-0.1
215.365	-0.1
215.834	-0.1
216.304	-0.1
216.773	-0.09
217.243	-0.09
217.712	-0.09
218.181	-0.09
218.651	-0.08
219.12	-0.08
219.589	-0.08
220.058	-0.08
220.528	-0.08
220.997	-0.08
221.466	-0.07
221.935	-0.07
222.404	-0.07
222.873	-0.07
223.342	-0.07
223.812	-0.07
224.281	-0.06
224.749	-0.05
225.218	-0.05
225.687	-0.04
226.156	-0.03
226.625	-0.03
227.094	-0.02
227.563	-0.01
228.031	-0
228.5	0.01
228.969	0.02
229.438	0.04
229.906	0.06
230.375	0.08
230.844	0.09
231.312	0.11
231.781	0.13
232.249	0.15
232.718	0.17
233.186	0.19
233.655	0.2
234.123	0.22
234.591	0.24
235.06	0.25
235.528	0.26
235.996	0.27
236.465	0.29
236.933	0.3
237.401	0.3
237.869	0.31
238.337	0.32
238.805	0.33
239.274	0.33
239.742	0.34
240.21	0.34
240.678	0.34
241.146	0.35
241.614	0.35
242.081	0.35
242.549	0.36
243.017	0.36
243.485	0.36
243.953	0.36
244.421	0.37
244.888	0.37
245.356	0.37
245.824	0.37
246.291	0.38
246.759	0.38
247.227	0.38
247.694	0.38
248.162	0.38
248.629	0.39
249.097	0.39
249.564	0.39
250.032	0.39
250.499	0.39
250.967	0.39
251.434	0.4
251.901	0.4
252.369	0.4
252.836	0.4
253.303	0.4
253.77	0.4
254.237	0.41
254.705	0.41
255.172	0.41
255.639	0.41
256.106	0.41
256.573	0.41
257.04	0.41
257.507	0.41
257.974	0.41
258.441	0.41
258.908	0.41
259.375	0.41
259.841	0.41
260.308	0.41
260.775	0.41
261.242	0.41
261.709	0.41
262.175	0.41
262.642	0.41
263.109	0.41
263.575	0.41
264.042	0.41
264.508	0.41
264.975	0.41
265.441	0.41
265.908	0.41
266.374	0.4
266.841	0.4
267.307	0.4
267.773	0.4
268.24	0.4
268.706	0.4
269.172	0.39
269.639	0.39
270.105	0.39
270.571	0.39
271.037	0.39
271.503	0.38
271.969	0.38
272.435	0.38
272.902	0.38
273.368	0.38
273.834	0.37
274.3	0.37
274.765	0.37
275.231	0.37
275.697	0.36
276.163	0.36
276.629	0.36
277.095	0.36
277.56	0.35
278.026	0.35
278.492	0.35
278.958	0.35
279.423	0.34
279.889	0.34
280.354	0.34
280.82	0.34
281.286	0.33
281.751	0.33
282.217	0.33
282.682	0.33
283.147	0.33
283.613	0.32
284.078	0.32
284.544	0.32
285.009	0.32
285.474	0.31
285.939	0.31
286.405	0.31
286.87	0.31
287.335	0.31
287.8	0.3
288.265	0.3
288.73	0.3
289.195	0.3
289.66	0.3
290.125	0.3
290.59	0.29
291.055	0.29
291.52	0.29
291.985	0.29
292.45	0.29
292.915	0.29
293.38	0.29
293.844	0.29
294.309	0.28
294.774	0.28
295.239	0.28
295.703	0.28
296.168	0.28
296.632	0.28
297.097	0.28
297.562	0.28
298.026	0.28
298.491	0.27
298.955	0.27
299.419	0.27
299.884	0.27
300.348	0.27
300.813	0.27
301.277	0.27
301.741	0.27
302.205	0.27
302.67	0.27
303.134	0.27
303.598	0.27
304.062	0.27
304.526	0.27
304.99	0.27
305.454	0.26
305.919	0.26
306.383	0.26
306.847	0.26
307.31	0.26
307.774	0.26
308.238	0.26
308.702	0.26
309.166	0.26
309.63	0.26
310.094	0.26
310.557	0.26
311.021	0.26
311.485	0.26
311.948	0.26
312.412	0.26
312.876	0.26
313.339	0.26
313.803	0.25
314.266	0.25
314.73	0.25
315.193	0.25
315.657	0.25
316.12	0.25
316.584	0.25
317.047	0.25
317.51	0.25
317.973	0.25
318.437	0.25
318.9	0.25
319.363	0.25
319.826	0.25
320.29	0.25
320.753	0.25
321.216	0.25
321.679	0.25
322.142	0.25
322.605	0.24
323.068	0.24
323.531	0.24
323.994	0.24
324.457	0.24
324.92	0.24
325.382	0.24
325.845	0.24
326.308	0.24
326.771	0.24
327.233	0.24
327.696	0.24
328.159	0.24
328.622	0.24
329.084	0.24
329.547	0.24
330.009	0.24
330.472	0.24
330.934	0.24
331.397	0.24
331.859	0.24
332.322	0.23
332.784	0.23
333.246	0.23
333.709	0.23
334.171	0.23
334.633	0.23
335.096	0.23
335.558	0.23
336.02	0.23
336.482	0.23
336.944	0.23
337.406	0.23
337.868	0.23
338.331	0.23
338.793	0.23
339.255	0.23
339.717	0.23
340.178	0.23
340.64	0.23
341.102	0.23
341.564	0.23
342.026	0.23
342.488	0.23
342.949	0.23
343.411	0.22
343.873	0.22
344.335	0.22
344.796	0.22
345.258	0.22
345.719	0.22
346.181	0.22
346.643	0.22
347.104	0.22
347.566	0.22
348.027	0.22
348.488	0.22
348.95	0.22
349.411	0.22
349.873	0.22
350.334	0.22
350.795	0.22
351.256	0.22
351.718	0.22
352.179	0.22
352.64	0.22
353.101	0.22
353.562	0.22
354.023	0.22
354.484	0.22
354.945	0.22
355.406	0.22
355.867	0.22
356.328	0.22
356.789	0.22
357.25	0.22
357.711	0.22
358.172	0.22
358.633	0.22
359.093	0.22
359.554	0.22
360.015	0.22
360.476	0.22
360.936	0.22
361.397	0.22
361.858	0.22
362.318	0.22
362.779	0.22
363.239	0.22
363.7	0.22
364.16	0.22
364.621	0.22
365.081	0.22
365.541	0.22
366.002	0.22
366.462	0.22
366.922	0.22
367.383	0.22
367.843	0.22
368.303	0.22
368.763	0.22
369.223	0.22
369.684	0.22
370.144	0.22
370.604	0.22
371.064	0.21
371.524	0.21
371.984	0.21
372.444	0.21
372.904	0.21
373.363	0.21
373.823	0.21
374.283	0.21
374.743	0.21
375.203	0.21
375.663	0.21
376.122	0.21
376.582	0.21
377.042	0.21
377.501	0.21
377.961	0.21
378.42	0.21
378.88	0.21
379.34	0.21
379.799	0.21
380.259	0.21
380.718	0.21
381.177	0.21
381.637	0.21
382.096	0.21
382.555	0.21
383.015	0.21
383.474	0.21
383.933	0.21
384.393	0.21
384.852	0.21
385.311	0.21
385.77	0.21
386.229	0.21
386.688	0.21
387.147	0.21
387.606	0.21
388.065	0.21
388.524	0.21
388.983	0.21
389.442	0.21
389.901	0.21
390.36	0.21
390.819	0.21
391.277	0.21
391.736	0.21
392.195	0.21
392.654	0.21
393.112	0.21
393.571	0.21
394.03	0.21
394.488	0.21
394.947	0.21
395.405	0.2
395.864	0.2
396.322	0.2
396.781	0.2
397.239	0.2
397.698	0.2
398.156	0.2
398.614	0.2
399.073	0.2
399.531	0.2
399.989	0.2
400.447	0.2
400.905	0.2
401.364	0.2
401.822	0.2
402.28	0.2
402.738	0.2
403.196	0.2
403.654	0.2
404.112	0.2
404.57	0.2
405.028	0.2
405.486	0.2
405.944	0.2
406.402	0.2
406.859	0.2
407.317	0.2
407.775	0.2
408.233	0.2
408.691	0.2
409.148	0.2
409.606	0.2
410.064	0.2
410.521	0.2
410.979	0.2
411.436	0.2
411.894	0.2
412.351	0.2
412.809	0.2
413.266	0.2
413.724	0.2
414.181	0.2
414.638	0.2
415.096	0.2
415.553	0.2
416.01	0.2
416.467	0.19
416.925	0.19
417.382	0.19
417.839	0.19
418.296	0.19
418.753	0.19
419.21	0.19
419.667	0.19
420.124	0.19
420.581	0.19
421.038	0.19
421.495	0.19
421.952	0.19
422.409	0.19
422.866	0.19
423.322	0.19
423.779	0.19
424.236	0.19
424.693	0.19
425.149	0.19
425.606	0.19
426.063	0.19
426.519	0.19
426.976	0.19
427.433	0.19
427.889	0.19
428.346	0.19
428.802	0.19
429.258	0.19
429.715	0.19
430.171	0.19
430.628	0.19
431.084	0.19
431.54	0.19
431.997	0.19
432.453	0.19
432.909	0.19
433.365	0.19
433.821	0.19
434.277	0.19
434.734	0.19
435.19	0.19
435.646	0.19
436.102	0.19
436.558	0.19
437.014	0.19
437.47	0.19
437.925	0.19
438.381	0.19
438.837	0.19
439.293	0.19
439.749	0.19
440.205	0.19
440.66	0.19
441.116	0.19
441.572	0.18
442.027	0.18
442.483	0.18
442.939	0.18
443.394	0.18
443.85	0.18
444.305	0.18
444.761	0.18
445.216	0.18
445.672	0.18
446.127	0.18
446.582	0.18
447.038	0.18
447.493	0.18
447.948	0.18
448.403	0.18
448.859	0.18
449.314	0.18
449.769	0.18
450.224	0.18
450.679	0.18
451.134	0.18
451.589	0.18
452.044	0.18
452.499	0.18
452.954	0.18
453.409	0.18
453.864	0.18
454.319	0.18
454.774	0.18
455.229	0.18
455.684	0.18
456.138	0.18
456.593	0.18
457.048	0.18
457.503	0.18
457.957	0.18
458.412	0.18
458.866	0.18
459.321	0.18
459.776	0.18
460.23	0.18
460.685	0.18
461.139	0.18
461.593	0.18
462.048	0.18
462.502	0.18
462.957	0.18
463.411	0.18
463.865	0.18
464.319	0.18
464.774	0.18
465.228	0.18
465.682	0.18
466.136	0.18
466.59	0.18
467.044	0.18
467.499	0.18
467.953	0.18
468.407	0.18
468.861	0.18
469.315	0.18
469.768	0.18
470.222	0.18
470.676	0.18
471.13	0.18
471.584	0.18
472.038	0.18
472.491	0.18
472.945	0.18
473.399	0.18
473.852	0.18
474.306	0.18
474.76	0.18
475.213	0.18
475.667	0.18
476.12	0.18
476.574	0.18
477.027	0.18
477.481	0.18
477.934	0.18
478.388	0.18
478.841	0.19
479.294	0.19
479.748	0.19
480.201	0.19
480.654	0.19
481.107	0.19
481.561	0.19
482.014	0.19
482.467	0.19
482.92	0.19
483.373	0.19
483.826	0.19
484.279	0.19
484.732	0.19
485.185	0.19
485.638	0.19
486.091	0.19
486.544	0.2
486.997	0.2
487.449	0.2
487.902	0.2
488.355	0.2
488.808	0.2
489.26	0.2
489.713	0.2
490.166	0.2
490.618	0.2
491.071	0.2
491.523	0.2
491.976	0.2
492.429	0.21
492.881	0.21
493.333	0.21
493.786	0.21
494.238	0.21
494.691	0.21
495.143	0.21
495.595	0.21
496.048	0.21
496.5	0.21
496.952	0.22
497.404	0.22
497.856	0.22
498.309	0.22
498.761	0.22
499.213	0.22
499.665	0.22
500.117	0.23
500.569	0.23
501.021	0.23
501.473	0.23
501.925	0.23
502.377	0.23
502.828	0.23
503.28	0.24
503.732	0.24
504.184	0.24
504.636	0.24
505.087	0.24
505.539	0.24
505.991	0.24
506.442	0.24
506.894	0.25
507.345	0.25
507.797	0.25
508.249	0.25
508.7	0.25
509.151	0.25
509.603	0.25
510.054	0.25
510.506	0.26
510.957	0.26
511.408	0.26
511.86	0.26
512.311	0.26
512.762	0.26
513.213	0.26
513.665	0.26
514.116	0.26
514.567	0.26
515.018	0.27
515.469	0.27
515.92	0.27
516.371	0.27
516.822	0.27
517.273	0.27
517.724	0.27
518.175	0.27
518.626	0.27
519.076	0.27
519.527	0.27
519.978	0.27
520.429	0.27
520.88	0.27
521.33	0.28
521.781	0.28
522.232	0.28
522.682	0.28
523.133	0.28
523.583	0.28
524.034	0.28
524.484	0.28
524.935	0.28
525.385	0.28
525.836	0.28
526.286	0.28
526.736	0.28
527.187	0.28
527.637	0.28
528.087	0.28
528.538	0.28
528.988	0.28
529.438	0.28
529.888	0.28
530.338	0.28
530.788	0.28
531.238	0.28
531.688	0.28
532.139	0.28
532.589	0.28
533.038	0.28
533.488	0.28
533.938	0.28
534.388	0.28
534.838	0.28
535.288	0.28
535.738	0.28
536.187	0.28
536.637	0.28
537.087	0.28
537.537	0.28
537.986	0.27
538.436	0.27
538.885	0.27
539.335	0.27
539.785	0.27
540.234	0.27
540.684	0.27
541.133	0.27
541.582	0.27
542.032	0.27
542.481	0.27
542.931	0.27
543.38	0.27
543.829	0.27
544.278	0.27
544.728	0.27
545.177	0.27
545.626	0.27
546.075	0.26
546.524	0.26
546.973	0.26
547.422	0.26
547.871	0.26
548.32	0.26
548.769	0.26
549.218	0.26
549.667	0.26
550.116	0.26
550.565	0.26
551.014	0.25
551.463	0.25
551.911	0.25
552.36	0.25
552.809	0.25
553.258	0.25
553.706	0.25
554.155	0.25
554.603	0.25
555.052	0.25
555.501	0.25
555.949	0.25
556.398	0.25
556.846	0.24
557.294	0.24
557.743	0.24
558.191	0.24
558.64	0.24
559.088	0.24
559.536	0.24
559.985	0.24
560.433	0.24
560.881	0.24
561.329	0.24
561.777	0.24
562.225	0.24
562.674	0.24
563.122	0.24
563.57	0.23
564.018	0.23
564.466	0.23
564.914	0.23
565.362	0.23
565.809	0.23
566.257	0.23
566.705	0.23
567.153	0.23
567.601	0.23
568.048	0.23
568.496	0.23
568.944	0.23
569.392	0.23
569.839	0.22
570.287	0.22
570.734	0.22
571.182	0.22
571.63	0.22
572.077	0.22
572.525	0.22
572.972	0.22
573.419	0.22
573.867	0.22
574.314	0.22
574.761	0.22
575.209	0.22
575.656	0.22
576.103	0.21
576.551	0.21
576.998	0.21
577.445	0.21
577.892	0.21
578.339	0.21
578.786	0.21
579.233	0.21
579.68	0.21
580.127	0.21
580.574	0.21
581.021	0.21
581.468	0.2
581.915	0.2
582.362	0.2
582.809	0.2
583.255	0.2
583.702	0.2
584.149	0.2
584.596	0.2
585.042	0.2
585.489	0.2
585.936	0.2
586.382	0.19
586.829	0.19
587.275	0.19
587.722	0.19
588.168	0.19
588.615	0.19
589.061	0.19
589.508	0.19
589.954	0.19
590.4	0.19
590.847	0.19
591.293	0.19
591.739	0.19
592.185	0.18
592.632	0.18
593.078	0.18
593.524	0.18
593.97	0.18
594.416	0.18
594.862	0.18
595.308	0.18
595.754	0.18
596.2	0.18
596.646	0.18
597.092	0.18
597.538	0.18
597.984	0.18
598.43	0.18
598.876	0.17
599.321	0.17
599.767	0.17
600.213	0.17
600.659	0.17
601.104	0.17
601.55	0.17
601.995	0.17
602.441	0.17
602.887	0.17
603.332	0.17
603.778	0.17
604.223	0.17
604.668	0.17
605.114	0.17
605.559	0.17
606.005	0.17
606.45	0.17
606.895	0.17
607.341	0.17
607.786	0.16
608.231	0.16
608.676	0.16
609.121	0.16
609.566	0.16
610.012	0.16
610.457	0.16
610.902	0.16
611.347	0.16
611.792	0.16
612.237	0.16
612.682	0.16
613.127	0.16
613.571	0.16
614.016	0.16
614.461	0.16
614.906	0.16
615.351	0.16
615.795	0.16
616.24	0.16
616.685	0.16
617.129	0.16
617.574	0.16
618.019	0.16
618.463	0.16
618.908	0.15
619.352	0.15
619.797	0.15
620.241	0.15
620.686	0.15
621.13	0.15
621.574	0.15
622.019	0.15
622.463	0.15
622.907	0.15
623.352	0.15
623.796	0.15
624.24	0.15
624.684	0.15
625.128	0.15
625.572	0.15
626.016	0.15
626.461	0.15
626.905	0.15
627.349	0.15
627.793	0.15
628.236	0.15
628.68	0.15
629.124	0.15
629.568	0.15
630.012	0.15
630.456	0.15
630.9	0.15
631.343	0.15
631.787	0.15
632.231	0.15
632.674	0.15
633.118	0.15
633.562	0.16
634.005	0.16
634.449	0.16
634.892	0.16
635.336	0.16
635.779	0.16
636.223	0.16
636.666	0.16
637.109	0.16
637.553	0.16
637.996	0.16
638.439	0.16
638.883	0.17
639.326	0.17
639.769	0.17
640.212	0.17
640.655	0.17
641.099	0.17
641.542	0.17
641.985	0.17
642.428	0.17
642.871	0.17
643.314	0.18
643.757	0.18
644.2	0.18
644.643	0.18
645.085	0.18
645.528	0.18
645.971	0.18
646.414	0.19
646.857	0.19
647.299	0.19
647.742	0.19
648.185	0.19
648.627	0.2
649.07	0.2
649.513	0.2
649.955	0.2
650.398	0.2
650.84	0.21
651.283	0.21
651.725	0.21
652.168	0.21
652.61	0.22
653.052	0.22
653.495	0.22
653.937	0.17
654.379	0.14
654.821	0.14
655.264	0.14
655.706	0.14
656.148	0.15
656.59	0.15
657.032	0.15
657.474	0.15
657.916	0.15
658.358	0.14
658.8	0.18
659.242	0.24
659.684	0.25
660.126	0.25
660.568	0.25
661.01	0.25
661.452	0.26
661.894	0.26
662.335	0.26
662.777	0.26
663.219	0.27
663.661	0.27
664.102	0.27
664.544	0.27
664.985	0.28
665.427	0.28
665.869	0.28
666.31	0.28
666.752	0.29
667.193	0.29
667.634	0.29
668.076	0.29
668.517	0.29
668.959	0.3
669.4	0.3
669.841	0.3
670.282	0.3
670.724	0.31
671.165	0.31
671.606	0.31
672.047	0.31
672.488	0.31
672.929	0.31
673.37	0.32
673.811	0.32
674.252	0.32
674.693	0.32
675.134	0.32
675.575	0.33
676.016	0.33
676.457	0.33
676.898	0.33
677.339	0.33
677.78	0.33
678.22	0.33
678.661	0.33
679.102	0.34
679.542	0.34
679.983	0.34
680.424	0.34
680.864	0.34
681.305	0.34
681.745	0.34
682.186	0.34
682.626	0.34
683.067	0.34
683.507	0.34
683.948	0.34
684.388	0.35
684.828	0.35
685.269	0.35
685.709	0.35
686.149	0.35
686.589	0.35
687.029	0.35
687.47	0.35
687.91	0.35
688.35	0.35
688.79	0.35
689.23	0.35
689.67	0.35
690.11	0.35
690.55	0.35
690.99	0.35
691.43	0.35
691.87	0.35
692.31	0.35
692.749	0.35
693.189	0.35
693.629	0.34
694.069	0.34
694.508	0.34
694.948	0.34
695.388	0.34
695.827	0.34
696.267	0.34
696.706	0.34
697.146	0.34
697.586	0.34
698.025	0.34
698.464	0.33
698.904	0.33
699.343	0.33
699.783	0.33
700.222	0.33
700.661	0.33
701.101	0.33
701.54	0.33
701.979	0.33
702.418	0.33
702.857	0.33
703.297	0.32
703.736	0.32
704.175	0.32
704.614	0.32
705.053	0.32
705.492	0.32
705.931	0.31
706.37	0.31
706.809	0.31
707.248	0.31
707.687	0.31
708.125	0.31
708.564	0.3
709.003	0.3
709.442	0.3
709.88	0.3
710.319	0.3
710.758	0.3
711.196	0.29
711.635	0.29
712.074	0.29
712.512	0.29
712.951	0.29
713.389	0.29
713.828	0.29
714.266	0.29
714.705	0.29
715.143	0.28
715.581	0.28
716.02	0.28
716.458	0.28
716.896	0.28
717.334	0.28
717.773	0.28
718.211	0.27
718.649	0.27
719.087	0.27
719.525	0.27
719.963	0.27
720.401	0.27
720.839	0.27
721.277	0.27
721.715	0.26
722.153	0.26
722.591	0.26
723.029	0.26
723.467	0.26
723.905	0.26
724.342	0.25
724.78	0.25
725.218	0.25
725.656	0.25
726.093	0.25
726.531	0.25
726.969	0.25
727.406	0.24
727.844	0.24
728.281	0.24
728.719	0.24
729.156	0.24
729.594	0.24
730.031	0.24
730.469	0.24
730.906	0.24
731.343	0.23
731.781	0.23
732.218	0.23
732.655	0.23
733.092	0.23
733.53	0.23
733.967	0.23
734.404	0.23
734.841	0.22
735.278	0.22
735.715	0.22
736.152	0.22
736.589	0.22
737.026	0.21
737.463	0.21
737.9	0.21
738.337	0.21
738.774	0.21
739.211	0.21
739.647	0.21
740.084	0.21
740.521	0.2
740.958	0.2
741.394	0.2
741.831	0.2
742.268	0.2
742.704	0.2
743.141	0.2
743.577	0.2
744.014	0.19
744.45	0.19
744.887	0.19
745.323	0.19
745.76	0.19
746.196	0.19
746.632	0.19
747.069	0.18
747.505	0.18
747.941	0.18
748.378	0.18
748.814	0.18
749.25	0.18
749.686	0.18
750.122	0.18
750.558	0.18
750.994	0.18
751.43	0.18
751.866	0.17
752.302	0.17
752.738	0.17
753.174	0.17
753.61	0.17
754.046	0.17
754.482	0.16
754.918	0.16
755.354	0.16
755.789	0.16
756.225	0.16
756.661	0.16
757.096	0.16
757.532	0.16
757.968	0.16
758.403	0.15
758.839	0.15
759.274	0.15
759.71	0.15
760.145	0.15
760.581	0.15
761.016	0.15
761.452	0.15
761.887	0.15
762.322	0.15
762.758	0.15
763.193	0.14
763.628	0.14
764.063	0.14
764.499	0.14
764.934	0.14
765.369	0.14
765.804	0.13
766.239	0.13
766.674	0.13
767.109	0.13
767.544	0.13
767.979	0.12
768.414	0.12
768.849	0.12
769.284	0.12
769.719	0.12
770.154	0.12
770.588	0.11
771.023	0.11
771.458	0.11
771.893	0.11
772.327	0.1
772.762	0.1
773.197	0.1
773.631	0.09
774.066	0.09
774.5	0.09
774.935	0.08
775.369	0.08
775.804	0.08
776.238	0.07
776.673	0.07
777.107	0.07
777.541	0.06
777.976	0.06
778.41	0.06
778.844	0.05
779.279	0.05
779.713	0.05
780.147	0.05
780.581	0.04
781.015	0.04
781.449	0.03
781.883	0.03
782.317	0.03
782.751	0.02
783.185	0.02
783.619	0.01
784.053	0
784.487	-0
784.921	-0.01
785.355	-0.01
785.789	-0.02
786.223	-0.02
786.656	-0.02
787.09	-0.03
787.524	-0.03
787.957	-0.04
788.391	-0.04
788.825	-0.05
789.258	-0.06
789.692	-0.06
790.125	-0.07
790.559	-0.08
790.992	-0.08
791.426	-0.09
791.859	-0.09
792.293	-0.09
792.726	-0.09
793.159	-0.09
793.593	-0.09
794.026	-0.1
794.459	-0.1
794.892	-0.11
795.326	-0.11
795.759	-0.11
796.192	-0.11
796.625	-0.12
797.058	-0.13
797.491	-0.14
797.924	-0.15
798.357	-0.15
798.79	-0.15
799.223	-0.15
799.656	-0.15
800.089	-0.15
800.522	-0.15
800.955	-0.16
801.387	-0.15
801.82	-0.16
802.253	-0.16
802.686	-0.16
803.118	-0.16
803.551	-0.16
803.984	-0.15
804.416	-0.15
804.849	-0.14
805.281	-0.14
805.714	-0.14
806.146	-0.14
806.579	-0.13
807.011	-0.13
807.444	-0.13
807.876	-0.13
808.308	-0.13
808.741	-0.14
809.173	-0.14
809.605	-0.15
810.037	-0.15
810.47	-0.15
810.902	-0.16
811.334	-0.16
811.766	-0.15
812.198	-0.15
812.63	-0.15
813.062	-0.14
813.494	-0.13
813.926	-0.13
814.358	-0.12
814.79	-0.11
815.222	-0.09
815.654	-0.08
816.086	-0.07
816.518	-0.06
816.949	-0.05
817.381	-0.05
817.813	-0.04
818.245	-0.03
818.676	-0.02
819.108	-0.01
819.54	-0.01
819.971	-0
820.403	0
820.834	0.01
821.266	0.01
821.697	0.02
822.129	0.02
822.56	0.02
822.991	0.03
823.423	0.03
823.854	0.03
824.286	0.04
824.717	0.04
825.148	0.04
825.579	0.04
826.01	0.05
826.442	0.05
826.873	0.05
827.304	0.05
827.735	0.05
828.166	0.05
828.597	0.05
829.028	0.06
829.459	0.06
829.89	0.06
830.321	0.06
830.752	0.06
831.183	0.06
831.613	0.06
832.044	0.06
832.475	0.06
832.906	0.06
833.336	0.06
833.767	0.06
834.198	0.07
834.628	0.07
835.059	0.07
835.49	0.07
835.92	0.07
836.351	0.07
836.781	0.07
837.212	0.07
837.642	0.07
838.072	0.07
838.503	0.07
838.933	0.07
839.364	0.07
839.794	0.07
840.224	0.07
840.654	0.07
841.085	0.07
841.515	0.07
841.945	0.07
842.375	0.07
842.805	0.07
843.235	0.07
843.665	0.07
844.095	0.07
844.525	0.06
844.955	0.06
845.385	0.06
845.815	0.06
846.245	0.06
846.675	0.06
847.105	0.06
847.534	0.06
847.964	0.06
848.394	0.06
848.824	0.06
849.253	0.06
849.683	0.06
850.112	0.06
850.542	0.06
850.972	0.06
851.401	0.06
851.831	0.06
852.26	0.06
852.69	0.06
853.119	0.06
853.548	0.06
853.978	0.06
854.407	0.06
854.836	0.06
855.266	0.07
855.695	0.07
856.124	0.07
856.553	0.07
856.983	0.07
857.412	0.07
857.841	0.07
858.27	0.07
858.699	0.07
859.128	0.07
859.557	0.07
859.986	0.07
860.415	0.07
860.844	0.07
861.273	0.07
861.702	0.07
862.13	0.07
862.559	0.07
862.988	0.07
863.417	0.07
863.845	0.07
864.274	0.07
864.703	0.07
865.131	0.06
865.56	0.06
865.989	0.06
866.417	0.06
866.846	0.06
867.274	0.06
867.703	0.06
868.131	0.06
868.559	0.06
868.988	0.06
869.416	0.06
869.844	0.06
870.273	0.06
870.701	0.06
871.129	0.06
871.557	0.06
871.986	0.06
872.414	0.05
872.842	0.05
873.27	0.05
873.698	0.05
874.126	0.05
874.554	0.05
874.982	0.05
875.41	0.05
875.838	0.05
876.266	0.05
876.694	0.05
877.122	0.05
877.549	0.05
877.977	0.05
878.405	0.05
878.833	0.05
879.26	0.05
879.688	0.05
880.116	0.05
880.543	0.05
880.971	0.05
881.399	0.05
881.826	0.05
882.254	0.05
882.681	0.05
883.109	0.05
883.536	0.05
883.963	0.05
884.391	0.05
884.818	0.05
885.245	0.05
885.673	0.05
886.1	0.05
886.527	0.05
886.954	0.05
887.381	0.05
887.809	0.05
888.236	0.05
888.663	0.05
889.09	0.05
889.517	0.05
889.944	0.05
890.371	0.05
890.798	0.05
891.225	0.05
891.652	0.05
892.078	0.05
892.505	0.05
892.932	0.05
893.359	0.05
893.786	0.05
894.212	0.05
894.639	0.05
895.066	0.05
895.492	0.05
895.919	0.05
896.346	0.04
896.772	0.04
897.199	0.04
897.625	0.04
898.052	0.04
898.478	0.04
898.904	0.04
899.331	0.03
899.757	0.03
900.183	0.03
900.61	0.03
901.036	0.03
901.462	0.03
901.888	0.03
902.315	0.03
902.741	0.03
903.167	0.03
903.593	0.03
904.019	0.03
904.445	0.03
904.871	0.03
905.297	0.03
905.723	0.03
906.149	0.03
906.575	0.03
907.001	0.03
907.427	0.03
907.852	0.03
908.278	0.03
908.704	0.03
909.13	0.04
909.555	0.04
909.981	0.04
910.407	0.04
910.832	0.04
911.258	0.04
911.684	0.04
912.109	0.04
912.535	0.04
912.96	0.04
913.386	0.04
913.811	0.04
914.236	0.04
914.662	0.04
915.087	0.04
915.512	0.04
915.938	0.04
916.363	0.04
916.788	0.04
917.213	0.04
917.639	0.04
918.064	0.04
918.489	0.04
918.914	0.04
919.339	0.04
919.764	0.04
920.189	0.04
920.614	0.04
921.039	0.04
921.464	0.04
921.889	0.04
922.314	0.04
922.738	0.04
923.163	0.04
923.588	0.04
924.013	0.04
924.437	0.04
924.862	0.04
925.287	0.04
925.711	0.04
926.136	0.04
926.561	0.04
926.985	0.04
927.41	0.04
927.834	0.04
928.259	0.04
928.683	0.04
929.108	0.04
929.532	0.04
929.956	0.04
930.381	0.04
930.805	0.04
931.229	0.04
931.653	0.04
932.078	0.04
932.502	0.04
932.926	0.04
933.35	0.04
933.774	0.04
934.198	0.04
934.622	0.04
935.046	0.04
935.47	0.04
935.894	0.04
936.318	0.04
936.742	0.04
937.166	0.04
937.59	0.04
938.014	0.04
938.437	0.04
938.861	0.04
939.285	0.04
939.709	0.03
940.132	0.03
940.556	0.03
940.98	0.03
941.403	0.03
941.827	0.03
942.25	0.03
942.674	0.03
943.097	0.03
943.521	0.03
943.944	0.03
944.368	0.03
944.791	0.03
945.214	0.03
945.638	0.03
946.061	0.03
946.484	0.03
946.907	0.03
947.331	0.03
947.754	0.03
948.177	0.03
948.6	0.03
949.023	0.03
949.446	0.02
949.869	0.02
950.292	0.02
950.715	0.02
951.138	0.02
951.561	0.02
951.984	0.02
952.407	0.01
952.83	0.01
953.252	0.01
953.675	0.01
954.098	0.01
954.521	0.01
954.943	0.01
955.366	0.01
955.789	0.01
956.211	0.02
956.634	0.02
957.056	0.02
957.479	0.02
957.902	0.02
958.324	0.02
958.746	0.03
959.169	0.03
959.591	0.03
960.014	0.03
960.436	0.03
960.858	0.03
961.281	0.03
961.703	0.03
962.125	0.03
962.547	0.03
962.969	0.03
963.391	0.03
963.814	0.03
964.236	0.03
964.658	0.03
965.08	0.03
965.502	0.03
965.924	0.03
966.346	0.03
966.768	0.03
967.189	0.03
967.611	0.03
968.033	0.03
968.455	0.03
968.877	0.03
969.298	0.03
969.72	0.03
970.142	0.03
970.563	0.03
970.985	0.03
971.407	0.03
971.828	0.03
972.25	0.03
972.671	0.03
973.093	0.03
973.514	0.03
973.936	0.03
974.357	0.03
974.778	0.03
975.2	0.03
975.621	0.03
976.042	0.03
976.464	0.03
976.885	0.03
977.306	0.03
977.727	0.03
978.148	0.03
978.57	0.03
978.991	0.03
979.412	0.03
979.833	0.03
980.254	0.03
980.675	0.03
981.096	0.03
981.517	0.03
981.937	0.03
982.358	0.03
982.779	0.03
983.2	0.03
983.621	0.03
984.042	0.03
984.462	0.03
984.883	0.03
985.304	0.02
985.724	0.02
986.145	0.02
986.565	0.02
986.986	0.02
987.407	0.02
987.827	0.02
988.248	0.02
988.668	0.02
989.088	0.02
989.509	0.02
989.929	0.02
990.35	0.02
990.77	0.02
991.19	0.02
991.61	0.02
992.031	0.02
992.451	0.02
992.871	0.02
993.291	0.02
993.711	0.02
994.131	0.02
994.551	0.01
994.971	0.01
995.391	0.01
995.811	0.01
996.231	0.01
996.651	0.01
997.071	0.01
997.491	0.01
997.911	0.01
998.331	0.01
998.75	0.01
999.17	0.01
999.59	0.01
1000.009	0.01
1000.429	0.02
1000.849	0.02
1001.268	0.02
1001.688	0.02
1002.107	0.02
1002.527	0.02
1002.946	0.01
1003.366	0.01
1003.785	0.01
1004.205	0.01
1004.624	0.01
1005.044	0.01
1005.463	0.01
1005.882	0.01
1006.301	0.01
1006.721	0.01
1007.14	0.01
1007.559	0.01
1007.978	0.01
1008.397	0.01
1008.816	0.01
1009.235	0.01
1009.655	0
1010.074	0
1010.492	0
1010.911	0
1011.33	0
1011.749	0
1012.168	0
1012.587	0
1013.006	0
1013.425	0
1013.843	0
1014.262	0
1014.681	0.01
1015.099	0.01
1015.518	0.01
1015.937	0.01
1016.355	0.01
1016.774	0.01
1017.192	0.01
1017.611	0.01
1018.029	0.01
1018.448	0.01
1018.866	0.01
1019.285	0.01
1019.703	0.01
1020.121	0.01
1020.54	0.01
1020.958	0.01
1021.376	0.01
1021.794	0.01
1022.213	0.01
1022.631	0.01
1023.049	0.01
1023.467	0.01
1023.885	0.01
1024.303	0.01
1024.721	0.01
1025.139	0.01
1025.557	0.01
1025.975	0.01
1026.393	0.01
1026.811	0.01
1027.229	0.01
1027.647	0.01
1028.065	0.01
1028.482	0.01
1028.9	0.01
1029.318	0.01
1029.735	0.01
1030.153	0.01
1030.571	0.01
1030.988	0.01
1031.406	0.01
1031.823	0.01
1032.241	0.01
1032.659	0.01
1033.076	0.01
1033.493	0.01
1033.911	0.01
1034.328	0.01
1034.746	0.01
1035.163	0.01
1035.58	0.01
1035.997	0.01
1036.415	0.01
1036.832	0.01
1037.249	0.01
1037.666	0.01
1038.083	0.01
1038.501	0.01
1038.918	0.01
1039.335	0.01
1039.752	0.01
1040.169	0.01
1040.586	0.01
1041.003	0.01
1041.419	0.01
1041.836	0.01
1042.253	0.02
1042.67	0.01
1043.087	0.01
1043.504	0.01
1043.92	0.01
1044.337	0.01
1044.754	0.01
1045.17	0.01
1045.587	0.01
1046.004	0.01
1046.42	0.01
1046.837	0.01
1047.253	0.01
1047.67	0.01
1048.086	0.01
1048.503	0.01
1048.919	0.01
1049.335	0.01
1049.752	0.01
1050.168	0.01
1050.584	0.01
1051.001	0.01
1051.417	0.01
1051.833	0.01
1052.249	0.01
1052.665	0.01
1053.081	0.01
1053.497	0.01
1053.914	0.01
1054.33	0.01
1054.746	0.01
1055.162	0.01
1055.578	0.01
1055.993	0.01
1056.409	0.01
1056.825	0.01
1057.241	0.01
1057.657	0.01
1058.073	0.01
1058.488	0.01
1058.904	0
1059.32	0
1059.736	0
1060.151	0
1060.567	0
1060.982	0
1061.398	0
1061.813	0
1062.229	0
1062.644	0
1063.06	0
1063.475	0
1063.891	0.01
1064.306	0.01
1064.721	0.01
1065.137	0
1065.552	0
1065.967	0
1066.382	0
1066.798	0
1067.213	0
1067.628	0
1068.043	0
1068.458	0
1068.873	0
1069.288	0
1069.703	0
1070.118	0
1070.533	0
1070.948	0
1071.363	0
1071.778	0
1072.193	0
1072.607	0
1073.022	-0
1073.437	-0
1073.852	-0
1074.266	-0
1074.681	-0
1075.096	-0
1075.51	-0.01
1075.925	-0.01
1076.339	-0.01
1076.754	-0.01
1077.168	-0.01
1077.583	-0.01
1077.997	-0.01
1078.412	-0.01
1078.826	-0.01
1079.24	-0.01
1079.655	-0.01
1080.069	-0.01
1080.483	-0.01
1080.897	-0.01
1081.312	-0.01
1081.726	-0.01
1082.14	-0.01
1082.554	-0.01
1082.968	-0.01
1083.382	-0.01
1083.796	-0.01
1084.21	-0.01
1084.624	-0.01
1085.038	-0.01
1085.452	-0.01
1085.866	-0.01
1086.28	-0.01
1086.694	-0.01
1087.108	-0.01
1087.521	-0.01
1087.935	-0.01
1088.349	-0.01
1088.763	-0.01
1089.176	-0.01
1089.59	-0.01
1090.004	-0.01
1090.417	-0.01
1090.831	-0.01
1091.244	-0.01
1091.658	-0.01
1092.071	-0.01
1092.485	-0.02
1092.898	-0.02
1093.312	-0.02
1093.725	-0.02
1094.138	-0.02
1094.552	-0.02
1094.965	-0.02
1095.378	-0.02
1095.791	-0.02
1096.205	-0.02
1096.618	-0.02
1097.031	-0.02
1097.444	-0.02
1097.857	-0.02
1098.27	-0.02
1098.683	-0.02
1099.096	-0.02
1099.509	-0.02
1099.922	-0.02
1100.335	-0.03
1100.748	-0.03
1101.161	-0.03
1101.574	-0.03
1101.986	-0.03
1102.399	-0.03
1102.812	-0.03
1103.225	-0.03
1103.637	-0.03
1104.05	-0.03
1104.463	-0.03
1104.875	-0.03
1105.288	-0.03
1105.7	-0.04
1106.113	-0.04
1106.525	-0.04
1106.938	-0.04
1107.35	-0.05
1107.763	-0.05
1108.175	-0.05
1108.588	-0.05
1109	-0.05
1109.412	-0.05
1109.824	-0.05
1110.237	-0.05
1110.649	-0.05
1111.061	-0.05
