Data from 2024-02-06-100ns-20nr-25nacl-100h2o-7bp2-1_5a808-40to10hyt-0_5cpm_Absorbance__86__00213.txt Node

Date: Tue Feb 06 12:50:51 CET 2024
User: Laser008
Spectrometer: MAYP115816
Trigger mode: 0
Integration Time (sec): 2.000000E-1
Scans to average: 10
Electric dark correction enabled: true
Nonlinearity correction enabled: true
Boxcar width: 5
XAxis mode: Wavelengths
Number of Pixels in Spectrum: 2068
>>>>>Begin Spectral Data<<<<<
198.914	-0.32
199.384	-0.29
199.855	-0.23
200.325	-0.19
200.796	-0.17
201.266	-0.15
201.737	-0.14
202.207	-0.13
202.677	-0.12
203.147	-0.12
203.618	-0.11
204.088	-0.1
204.558	-0.09
205.028	-0.09
205.498	-0.09
205.968	-0.09
206.439	-0.09
206.909	-0.09
207.379	-0.09
207.849	-0.09
208.319	-0.09
208.789	-0.09
209.258	-0.09
209.728	-0.09
210.198	-0.09
210.668	-0.09
211.138	-0.1
211.608	-0.1
212.077	-0.1
212.547	-0.1
213.017	-0.1
213.486	-0.1
213.956	-0.1
214.426	-0.1
214.895	-0.1
215.365	-0.1
215.834	-0.1
216.304	-0.09
216.773	-0.09
217.243	-0.09
217.712	-0.09
218.181	-0.09
218.651	-0.08
219.12	-0.08
219.589	-0.08
220.058	-0.08
220.528	-0.08
220.997	-0.08
221.466	-0.07
221.935	-0.07
222.404	-0.07
222.873	-0.07
223.342	-0.06
223.812	-0.06
224.281	-0.06
224.749	-0.05
225.218	-0.04
225.687	-0.04
226.156	-0.03
226.625	-0.02
227.094	-0.01
227.563	-0.01
228.031	0
228.5	0.01
228.969	0.03
229.438	0.05
229.906	0.06
230.375	0.08
230.844	0.1
231.312	0.12
231.781	0.14
232.249	0.16
232.718	0.18
233.186	0.21
233.655	0.23
234.123	0.24
234.591	0.26
235.06	0.27
235.528	0.29
235.996	0.3
236.465	0.31
236.933	0.32
237.401	0.33
237.869	0.34
238.337	0.35
238.805	0.35
239.274	0.36
239.742	0.37
240.21	0.37
240.678	0.37
241.146	0.38
241.614	0.38
242.081	0.39
242.549	0.39
243.017	0.39
243.485	0.39
243.953	0.4
244.421	0.4
244.888	0.4
245.356	0.4
245.824	0.4
246.291	0.41
246.759	0.41
247.227	0.41
247.694	0.41
248.162	0.41
248.629	0.42
249.097	0.42
249.564	0.42
250.032	0.42
250.499	0.42
250.967	0.43
251.434	0.43
251.901	0.43
252.369	0.43
252.836	0.43
253.303	0.43
253.77	0.44
254.237	0.44
254.705	0.44
255.172	0.44
255.639	0.44
256.106	0.44
256.573	0.44
257.04	0.44
257.507	0.44
257.974	0.44
258.441	0.44
258.908	0.44
259.375	0.44
259.841	0.44
260.308	0.44
260.775	0.44
261.242	0.44
261.709	0.44
262.175	0.44
262.642	0.44
263.109	0.44
263.575	0.44
264.042	0.44
264.508	0.44
264.975	0.44
265.441	0.44
265.908	0.44
266.374	0.43
266.841	0.43
267.307	0.43
267.773	0.43
268.24	0.43
268.706	0.43
269.172	0.42
269.639	0.42
270.105	0.42
270.571	0.42
271.037	0.41
271.503	0.41
271.969	0.41
272.435	0.41
272.902	0.41
273.368	0.4
273.834	0.4
274.3	0.4
274.765	0.4
275.231	0.39
275.697	0.39
276.163	0.39
276.629	0.39
277.095	0.38
277.56	0.38
278.026	0.38
278.492	0.38
278.958	0.37
279.423	0.37
279.889	0.37
280.354	0.36
280.82	0.36
281.286	0.36
281.751	0.36
282.217	0.35
282.682	0.35
283.147	0.35
283.613	0.35
284.078	0.34
284.544	0.34
285.009	0.34
285.474	0.34
285.939	0.34
286.405	0.33
286.87	0.33
287.335	0.33
287.8	0.33
288.265	0.33
288.73	0.32
289.195	0.32
289.66	0.32
290.125	0.32
290.59	0.32
291.055	0.31
291.52	0.31
291.985	0.31
292.45	0.31
292.915	0.31
293.38	0.31
293.844	0.31
294.309	0.3
294.774	0.3
295.239	0.3
295.703	0.3
296.168	0.3
296.632	0.3
297.097	0.3
297.562	0.3
298.026	0.29
298.491	0.29
298.955	0.29
299.419	0.29
299.884	0.29
300.348	0.29
300.813	0.29
301.277	0.29
301.741	0.29
302.205	0.29
302.67	0.29
303.134	0.29
303.598	0.29
304.062	0.28
304.526	0.28
304.99	0.28
305.454	0.28
305.919	0.28
306.383	0.28
306.847	0.28
307.31	0.28
307.774	0.28
308.238	0.28
308.702	0.28
309.166	0.28
309.63	0.28
310.094	0.28
310.557	0.27
311.021	0.27
311.485	0.27
311.948	0.27
312.412	0.27
312.876	0.27
313.339	0.27
313.803	0.27
314.266	0.27
314.73	0.27
315.193	0.27
315.657	0.27
316.12	0.27
316.584	0.27
317.047	0.27
317.51	0.26
317.973	0.26
318.437	0.26
318.9	0.26
319.363	0.26
319.826	0.26
320.29	0.26
320.753	0.26
321.216	0.26
321.679	0.26
322.142	0.26
322.605	0.26
323.068	0.26
323.531	0.26
323.994	0.26
324.457	0.26
324.92	0.26
325.382	0.25
325.845	0.25
326.308	0.25
326.771	0.25
327.233	0.25
327.696	0.25
328.159	0.25
328.622	0.25
329.084	0.25
329.547	0.25
330.009	0.25
330.472	0.25
330.934	0.25
331.397	0.25
331.859	0.25
332.322	0.25
332.784	0.25
333.246	0.25
333.709	0.25
334.171	0.24
334.633	0.24
335.096	0.24
335.558	0.24
336.02	0.24
336.482	0.24
336.944	0.24
337.406	0.24
337.868	0.24
338.331	0.24
338.793	0.24
339.255	0.24
339.717	0.24
340.178	0.24
340.64	0.24
341.102	0.24
341.564	0.24
342.026	0.24
342.488	0.24
342.949	0.24
343.411	0.24
343.873	0.24
344.335	0.24
344.796	0.24
345.258	0.24
345.719	0.23
346.181	0.23
346.643	0.23
347.104	0.23
347.566	0.23
348.027	0.23
348.488	0.23
348.95	0.23
349.411	0.23
349.873	0.23
350.334	0.23
350.795	0.23
351.256	0.23
351.718	0.23
352.179	0.23
352.64	0.23
353.101	0.23
353.562	0.23
354.023	0.23
354.484	0.23
354.945	0.23
355.406	0.23
355.867	0.23
356.328	0.23
356.789	0.23
357.25	0.23
357.711	0.23
358.172	0.23
358.633	0.23
359.093	0.23
359.554	0.23
360.015	0.23
360.476	0.23
360.936	0.23
361.397	0.23
361.858	0.23
362.318	0.23
362.779	0.23
363.239	0.23
363.7	0.23
364.16	0.23
364.621	0.23
365.081	0.23
365.541	0.23
366.002	0.23
366.462	0.23
366.922	0.23
367.383	0.23
367.843	0.23
368.303	0.23
368.763	0.23
369.223	0.23
369.684	0.23
370.144	0.23
370.604	0.22
371.064	0.22
371.524	0.22
371.984	0.22
372.444	0.22
372.904	0.22
373.363	0.22
373.823	0.22
374.283	0.22
374.743	0.22
375.203	0.22
375.663	0.22
376.122	0.22
376.582	0.22
377.042	0.22
377.501	0.22
377.961	0.22
378.42	0.22
378.88	0.22
379.34	0.22
379.799	0.22
380.259	0.22
380.718	0.22
381.177	0.22
381.637	0.22
382.096	0.22
382.555	0.22
383.015	0.22
383.474	0.22
383.933	0.22
384.393	0.22
384.852	0.22
385.311	0.22
385.77	0.22
386.229	0.22
386.688	0.22
387.147	0.22
387.606	0.22
388.065	0.22
388.524	0.22
388.983	0.22
389.442	0.22
389.901	0.22
390.36	0.22
390.819	0.22
391.277	0.22
391.736	0.22
392.195	0.22
392.654	0.21
393.112	0.21
393.571	0.21
394.03	0.21
394.488	0.21
394.947	0.21
395.405	0.21
395.864	0.21
396.322	0.21
396.781	0.21
397.239	0.21
397.698	0.21
398.156	0.21
398.614	0.21
399.073	0.21
399.531	0.21
399.989	0.21
400.447	0.21
400.905	0.21
401.364	0.21
401.822	0.21
402.28	0.21
402.738	0.21
403.196	0.21
403.654	0.21
404.112	0.21
404.57	0.21
405.028	0.21
405.486	0.21
405.944	0.21
406.402	0.21
406.859	0.21
407.317	0.21
407.775	0.21
408.233	0.21
408.691	0.21
409.148	0.21
409.606	0.21
410.064	0.21
410.521	0.21
410.979	0.21
411.436	0.21
411.894	0.2
412.351	0.2
412.809	0.2
413.266	0.2
413.724	0.2
414.181	0.2
414.638	0.2
415.096	0.2
415.553	0.2
416.01	0.2
416.467	0.2
416.925	0.2
417.382	0.2
417.839	0.2
418.296	0.2
418.753	0.2
419.21	0.2
419.667	0.2
420.124	0.2
420.581	0.2
421.038	0.2
421.495	0.2
421.952	0.2
422.409	0.2
422.866	0.2
423.322	0.2
423.779	0.2
424.236	0.2
424.693	0.2
425.149	0.2
425.606	0.2
426.063	0.2
426.519	0.2
426.976	0.2
427.433	0.2
427.889	0.2
428.346	0.2
428.802	0.2
429.258	0.2
429.715	0.2
430.171	0.2
430.628	0.2
431.084	0.2
431.54	0.2
431.997	0.2
432.453	0.2
432.909	0.2
433.365	0.2
433.821	0.2
434.277	0.2
434.734	0.2
435.19	0.19
435.646	0.19
436.102	0.19
436.558	0.19
437.014	0.19
437.47	0.19
437.925	0.19
438.381	0.19
438.837	0.19
439.293	0.19
439.749	0.19
440.205	0.19
440.66	0.19
441.116	0.19
441.572	0.19
442.027	0.19
442.483	0.19
442.939	0.19
443.394	0.19
443.85	0.19
444.305	0.19
444.761	0.19
445.216	0.19
445.672	0.19
446.127	0.19
446.582	0.19
447.038	0.19
447.493	0.19
447.948	0.19
448.403	0.19
448.859	0.19
449.314	0.19
449.769	0.19
450.224	0.19
450.679	0.19
451.134	0.19
451.589	0.19
452.044	0.19
452.499	0.19
452.954	0.19
453.409	0.19
453.864	0.19
454.319	0.19
454.774	0.19
455.229	0.19
455.684	0.19
456.138	0.19
456.593	0.19
457.048	0.19
457.503	0.19
457.957	0.19
458.412	0.19
458.866	0.19
459.321	0.19
459.776	0.19
460.23	0.19
460.685	0.19
461.139	0.19
461.593	0.19
462.048	0.19
462.502	0.19
462.957	0.19
463.411	0.19
463.865	0.19
464.319	0.19
464.774	0.19
465.228	0.19
465.682	0.19
466.136	0.19
466.59	0.19
467.044	0.19
467.499	0.19
467.953	0.19
468.407	0.19
468.861	0.19
469.315	0.19
469.768	0.19
470.222	0.19
470.676	0.19
471.13	0.19
471.584	0.19
472.038	0.19
472.491	0.19
472.945	0.19
473.399	0.19
473.852	0.19
474.306	0.19
474.76	0.19
475.213	0.19
475.667	0.19
476.12	0.19
476.574	0.19
477.027	0.19
477.481	0.19
477.934	0.19
478.388	0.19
478.841	0.2
479.294	0.2
479.748	0.2
480.201	0.2
480.654	0.2
481.107	0.2
481.561	0.2
482.014	0.2
482.467	0.2
482.92	0.2
483.373	0.2
483.826	0.2
484.279	0.2
484.732	0.21
485.185	0.21
485.638	0.21
486.091	0.21
486.544	0.21
486.997	0.21
487.449	0.21
487.902	0.21
488.355	0.21
488.808	0.21
489.26	0.21
489.713	0.21
490.166	0.21
490.618	0.22
491.071	0.22
491.523	0.22
491.976	0.22
492.429	0.22
492.881	0.22
493.333	0.22
493.786	0.22
494.238	0.23
494.691	0.23
495.143	0.23
495.595	0.23
496.048	0.23
496.5	0.23
496.952	0.23
497.404	0.23
497.856	0.23
498.309	0.24
498.761	0.24
499.213	0.24
499.665	0.24
500.117	0.24
500.569	0.25
501.021	0.25
501.473	0.25
501.925	0.25
502.377	0.25
502.828	0.25
503.28	0.25
503.732	0.26
504.184	0.26
504.636	0.26
505.087	0.26
505.539	0.26
505.991	0.26
506.442	0.26
506.894	0.27
507.345	0.27
507.797	0.27
508.249	0.27
508.7	0.27
509.151	0.27
509.603	0.27
510.054	0.28
510.506	0.28
510.957	0.28
511.408	0.28
511.86	0.28
512.311	0.28
512.762	0.28
513.213	0.28
513.665	0.29
514.116	0.29
514.567	0.29
515.018	0.29
515.469	0.29
515.92	0.29
516.371	0.29
516.822	0.29
517.273	0.29
517.724	0.29
518.175	0.3
518.626	0.3
519.076	0.3
519.527	0.3
519.978	0.3
520.429	0.3
520.88	0.3
521.33	0.3
521.781	0.3
522.232	0.3
522.682	0.3
523.133	0.3
523.583	0.3
524.034	0.3
524.484	0.3
524.935	0.3
525.385	0.3
525.836	0.3
526.286	0.3
526.736	0.3
527.187	0.3
527.637	0.3
528.087	0.3
528.538	0.3
528.988	0.3
529.438	0.3
529.888	0.3
530.338	0.3
530.788	0.3
531.238	0.3
531.688	0.3
532.139	0.3
532.589	0.3
533.038	0.3
533.488	0.3
533.938	0.3
534.388	0.3
534.838	0.3
535.288	0.3
535.738	0.3
536.187	0.29
536.637	0.29
537.087	0.29
537.537	0.29
537.986	0.29
538.436	0.29
538.885	0.29
539.335	0.29
539.785	0.29
540.234	0.29
540.684	0.29
541.133	0.29
541.582	0.29
542.032	0.28
542.481	0.28
542.931	0.28
543.38	0.28
543.829	0.28
544.278	0.28
544.728	0.28
545.177	0.28
545.626	0.27
546.075	0.27
546.524	0.27
546.973	0.27
547.422	0.27
547.871	0.27
548.32	0.27
548.769	0.27
549.218	0.26
549.667	0.26
550.116	0.26
550.565	0.26
551.014	0.26
551.463	0.26
551.911	0.26
552.36	0.25
552.809	0.25
553.258	0.25
553.706	0.25
554.155	0.25
554.603	0.25
555.052	0.25
555.501	0.24
555.949	0.24
556.398	0.24
556.846	0.24
557.294	0.24
557.743	0.24
558.191	0.24
558.64	0.24
559.088	0.24
559.536	0.23
559.985	0.23
560.433	0.23
560.881	0.23
561.329	0.23
561.777	0.23
562.225	0.23
562.674	0.23
563.122	0.23
563.57	0.22
564.018	0.22
564.466	0.22
564.914	0.22
565.362	0.22
565.809	0.22
566.257	0.22
566.705	0.22
567.153	0.22
567.601	0.21
568.048	0.21
568.496	0.21
568.944	0.21
569.392	0.21
569.839	0.21
570.287	0.21
570.734	0.21
571.182	0.21
571.63	0.2
572.077	0.2
572.525	0.2
572.972	0.2
573.419	0.2
573.867	0.2
574.314	0.2
574.761	0.2
575.209	0.2
575.656	0.2
576.103	0.2
576.551	0.19
576.998	0.19
577.445	0.19
577.892	0.19
578.339	0.19
578.786	0.19
579.233	0.19
579.68	0.19
580.127	0.19
580.574	0.18
581.021	0.18
581.468	0.18
581.915	0.18
582.362	0.18
582.809	0.18
583.255	0.18
583.702	0.18
584.149	0.18
584.596	0.17
585.042	0.17
585.489	0.17
585.936	0.17
586.382	0.17
586.829	0.17
587.275	0.17
587.722	0.17
588.168	0.17
588.615	0.17
589.061	0.17
589.508	0.17
589.954	0.16
590.4	0.16
590.847	0.16
591.293	0.16
591.739	0.16
592.185	0.16
592.632	0.16
593.078	0.16
593.524	0.16
593.97	0.16
594.416	0.16
594.862	0.16
595.308	0.16
595.754	0.15
596.2	0.15
596.646	0.15
597.092	0.15
597.538	0.15
597.984	0.15
598.43	0.15
598.876	0.15
599.321	0.15
599.767	0.15
600.213	0.15
600.659	0.15
601.104	0.15
601.55	0.15
601.995	0.15
602.441	0.15
602.887	0.15
603.332	0.15
603.778	0.15
604.223	0.15
604.668	0.15
605.114	0.15
605.559	0.14
606.005	0.14
606.45	0.14
606.895	0.14
607.341	0.14
607.786	0.14
608.231	0.14
608.676	0.14
609.121	0.14
609.566	0.14
610.012	0.14
610.457	0.14
610.902	0.14
611.347	0.14
611.792	0.14
612.237	0.14
612.682	0.14
613.127	0.14
613.571	0.14
614.016	0.14
614.461	0.14
614.906	0.14
615.351	0.14
615.795	0.14
616.24	0.14
616.685	0.14
617.129	0.14
617.574	0.14
618.019	0.13
618.463	0.13
618.908	0.13
619.352	0.13
619.797	0.14
620.241	0.13
620.686	0.13
621.13	0.13
621.574	0.13
622.019	0.13
622.463	0.13
622.907	0.13
623.352	0.14
623.796	0.14
624.24	0.14
624.684	0.14
625.128	0.14
625.572	0.14
626.016	0.14
626.461	0.14
626.905	0.14
627.349	0.14
627.793	0.14
628.236	0.14
628.68	0.14
629.124	0.14
629.568	0.14
630.012	0.14
630.456	0.14
630.9	0.14
631.343	0.14
631.787	0.14
632.231	0.14
632.674	0.14
633.118	0.14
633.562	0.14
634.005	0.14
634.449	0.14
634.892	0.14
635.336	0.15
635.779	0.15
636.223	0.15
636.666	0.15
637.109	0.15
637.553	0.15
637.996	0.15
638.439	0.15
638.883	0.15
639.326	0.15
639.769	0.16
640.212	0.16
640.655	0.16
641.099	0.16
641.542	0.16
641.985	0.16
642.428	0.16
642.871	0.16
643.314	0.17
643.757	0.17
644.2	0.17
644.643	0.17
645.085	0.17
645.528	0.18
645.971	0.18
646.414	0.18
646.857	0.18
647.299	0.18
647.742	0.19
648.185	0.19
648.627	0.19
649.07	0.19
649.513	0.19
649.955	0.2
650.398	0.2
650.84	0.2
651.283	0.2
651.725	0.21
652.168	0.21
652.61	0.21
653.052	0.22
653.495	0.22
653.937	0.17
654.379	0.14
654.821	0.14
655.264	0.14
655.706	0.14
656.148	0.14
656.59	0.15
657.032	0.15
657.474	0.15
657.916	0.15
658.358	0.14
658.8	0.18
659.242	0.24
659.684	0.25
660.126	0.25
660.568	0.25
661.01	0.25
661.452	0.26
661.894	0.26
662.335	0.26
662.777	0.27
663.219	0.27
663.661	0.27
664.102	0.27
664.544	0.28
664.985	0.28
665.427	0.28
665.869	0.28
666.31	0.29
666.752	0.29
667.193	0.29
667.634	0.29
668.076	0.3
668.517	0.3
668.959	0.3
669.4	0.3
669.841	0.31
670.282	0.31
670.724	0.31
671.165	0.31
671.606	0.31
672.047	0.31
672.488	0.32
672.929	0.32
673.37	0.32
673.811	0.32
674.252	0.32
674.693	0.33
675.134	0.33
675.575	0.33
676.016	0.33
676.457	0.33
676.898	0.34
677.339	0.34
677.78	0.34
678.22	0.34
678.661	0.34
679.102	0.34
679.542	0.34
679.983	0.34
680.424	0.34
680.864	0.34
681.305	0.34
681.745	0.34
682.186	0.34
682.626	0.35
683.067	0.35
683.507	0.35
683.948	0.35
684.388	0.35
684.828	0.35
685.269	0.35
685.709	0.35
686.149	0.35
686.589	0.35
687.029	0.35
687.47	0.35
687.91	0.35
688.35	0.35
688.79	0.35
689.23	0.35
689.67	0.35
690.11	0.35
690.55	0.35
690.99	0.35
691.43	0.35
691.87	0.35
692.31	0.35
692.749	0.35
693.189	0.35
693.629	0.35
694.069	0.34
694.508	0.34
694.948	0.34
695.388	0.34
695.827	0.34
696.267	0.34
696.706	0.34
697.146	0.34
697.586	0.34
698.025	0.33
698.464	0.33
698.904	0.33
699.343	0.33
699.783	0.33
700.222	0.33
700.661	0.33
701.101	0.33
701.54	0.33
701.979	0.32
702.418	0.32
702.857	0.32
703.297	0.32
703.736	0.32
704.175	0.32
704.614	0.31
705.053	0.31
705.492	0.31
705.931	0.31
706.37	0.31
706.809	0.31
707.248	0.3
707.687	0.3
708.125	0.3
708.564	0.3
709.003	0.3
709.442	0.29
709.88	0.29
710.319	0.29
710.758	0.29
711.196	0.29
711.635	0.29
712.074	0.28
712.512	0.28
712.951	0.28
713.389	0.28
713.828	0.28
714.266	0.28
714.705	0.28
715.143	0.27
715.581	0.27
716.02	0.27
716.458	0.27
716.896	0.27
717.334	0.27
717.773	0.27
718.211	0.26
718.649	0.26
719.087	0.26
719.525	0.26
719.963	0.26
720.401	0.26
720.839	0.25
721.277	0.25
721.715	0.25
722.153	0.25
722.591	0.25
723.029	0.25
723.467	0.24
723.905	0.24
724.342	0.24
724.78	0.24
725.218	0.24
725.656	0.24
726.093	0.23
726.531	0.23
726.969	0.23
727.406	0.23
727.844	0.23
728.281	0.23
728.719	0.22
729.156	0.22
729.594	0.22
730.031	0.22
730.469	0.22
730.906	0.22
731.343	0.22
731.781	0.22
732.218	0.22
732.655	0.21
733.092	0.21
733.53	0.21
733.967	0.21
734.404	0.21
734.841	0.21
735.278	0.2
735.715	0.2
736.152	0.2
736.589	0.2
737.026	0.2
737.463	0.19
737.9	0.19
738.337	0.19
738.774	0.19
739.211	0.19
739.647	0.19
740.084	0.19
740.521	0.18
740.958	0.18
741.394	0.18
741.831	0.18
742.268	0.18
742.704	0.18
743.141	0.18
743.577	0.18
744.014	0.17
744.45	0.17
744.887	0.17
745.323	0.17
745.76	0.17
746.196	0.17
746.632	0.17
747.069	0.16
747.505	0.16
747.941	0.16
748.378	0.16
748.814	0.16
749.25	0.16
749.686	0.16
750.122	0.16
750.558	0.16
750.994	0.16
751.43	0.16
751.866	0.15
752.302	0.15
752.738	0.15
753.174	0.15
753.61	0.15
754.046	0.15
754.482	0.14
754.918	0.14
755.354	0.14
755.789	0.14
756.225	0.14
756.661	0.14
757.096	0.14
757.532	0.14
757.968	0.13
758.403	0.13
758.839	0.13
759.274	0.13
759.71	0.13
760.145	0.13
760.581	0.13
761.016	0.13
761.452	0.13
761.887	0.13
762.322	0.13
762.758	0.12
763.193	0.12
763.628	0.12
764.063	0.12
764.499	0.12
764.934	0.12
765.369	0.12
765.804	0.11
766.239	0.11
766.674	0.11
767.109	0.11
767.544	0.11
767.979	0.11
768.414	0.1
768.849	0.1
769.284	0.1
769.719	0.1
770.154	0.1
770.588	0.1
771.023	0.09
771.458	0.09
771.893	0.09
772.327	0.09
772.762	0.08
773.197	0.08
773.631	0.08
774.066	0.07
774.5	0.07
774.935	0.07
775.369	0.07
775.804	0.06
776.238	0.06
776.673	0.06
777.107	0.05
777.541	0.05
777.976	0.05
778.41	0.05
778.844	0.04
779.279	0.04
779.713	0.04
780.147	0.04
780.581	0.03
781.015	0.03
781.449	0.03
781.883	0.02
782.317	0.02
782.751	0.01
783.185	0.01
783.619	0
784.053	-0
784.487	-0.01
784.921	-0.01
785.355	-0.02
785.789	-0.02
786.223	-0.02
786.656	-0.03
787.09	-0.03
787.524	-0.03
787.957	-0.04
788.391	-0.04
788.825	-0.05
789.258	-0.05
789.692	-0.06
790.125	-0.06
790.559	-0.07
790.992	-0.08
791.426	-0.09
791.859	-0.09
792.293	-0.08
792.726	-0.08
793.159	-0.09
793.593	-0.09
794.026	-0.1
794.459	-0.1
794.892	-0.11
795.326	-0.11
795.759	-0.11
796.192	-0.11
796.625	-0.12
797.058	-0.13
797.491	-0.14
797.924	-0.15
798.357	-0.15
798.79	-0.15
799.223	-0.15
799.656	-0.15
800.089	-0.15
800.522	-0.15
800.955	-0.16
801.387	-0.15
801.82	-0.16
802.253	-0.16
802.686	-0.16
803.118	-0.16
803.551	-0.16
803.984	-0.15
804.416	-0.15
804.849	-0.14
805.281	-0.14
805.714	-0.14
806.146	-0.14
806.579	-0.13
807.011	-0.13
807.444	-0.13
807.876	-0.13
808.308	-0.13
808.741	-0.14
809.173	-0.14
809.605	-0.15
810.037	-0.15
810.47	-0.15
810.902	-0.16
811.334	-0.16
811.766	-0.15
812.198	-0.15
812.63	-0.14
813.062	-0.13
813.494	-0.13
813.926	-0.12
814.358	-0.11
814.79	-0.1
815.222	-0.09
815.654	-0.08
816.086	-0.07
816.518	-0.06
816.949	-0.05
817.381	-0.05
817.813	-0.04
818.245	-0.03
818.676	-0.02
819.108	-0.02
819.54	-0.01
819.971	-0.01
820.403	-0
820.834	0
821.266	0
821.697	0.01
822.129	0.01
822.56	0.02
822.991	0.02
823.423	0.02
823.854	0.02
824.286	0.02
824.717	0.03
825.148	0.03
825.579	0.03
826.01	0.03
826.442	0.03
826.873	0.04
827.304	0.04
827.735	0.04
828.166	0.04
828.597	0.04
829.028	0.04
829.459	0.04
829.89	0.04
830.321	0.04
830.752	0.04
831.183	0.04
831.613	0.05
832.044	0.05
832.475	0.05
832.906	0.05
833.336	0.05
833.767	0.05
834.198	0.05
834.628	0.05
835.059	0.05
835.49	0.05
835.92	0.05
836.351	0.05
836.781	0.05
837.212	0.05
837.642	0.05
838.072	0.05
838.503	0.05
838.933	0.05
839.364	0.05
839.794	0.05
840.224	0.05
840.654	0.05
841.085	0.05
841.515	0.05
841.945	0.05
842.375	0.05
842.805	0.05
843.235	0.05
843.665	0.05
844.095	0.05
844.525	0.05
844.955	0.05
845.385	0.05
845.815	0.05
846.245	0.05
846.675	0.05
847.105	0.05
847.534	0.05
847.964	0.05
848.394	0.05
848.824	0.05
849.253	0.04
849.683	0.04
850.112	0.04
850.542	0.04
850.972	0.04
851.401	0.04
851.831	0.04
852.26	0.04
852.69	0.04
853.119	0.04
853.548	0.05
853.978	0.05
854.407	0.05
854.836	0.05
855.266	0.05
855.695	0.05
856.124	0.05
856.553	0.05
856.983	0.05
857.412	0.05
857.841	0.05
858.27	0.05
858.699	0.05
859.128	0.05
859.557	0.05
859.986	0.05
860.415	0.05
860.844	0.05
861.273	0.05
861.702	0.05
862.13	0.05
862.559	0.05
862.988	0.05
863.417	0.05
863.845	0.05
864.274	0.05
864.703	0.05
865.131	0.05
865.56	0.05
865.989	0.05
866.417	0.05
866.846	0.05
867.274	0.05
867.703	0.05
868.131	0.05
868.559	0.05
868.988	0.05
869.416	0.05
869.844	0.04
870.273	0.04
870.701	0.04
871.129	0.04
871.557	0.04
871.986	0.04
872.414	0.04
872.842	0.04
873.27	0.04
873.698	0.04
874.126	0.04
874.554	0.04
874.982	0.04
875.41	0.04
875.838	0.04
876.266	0.04
876.694	0.04
877.122	0.04
877.549	0.04
877.977	0.04
878.405	0.04
878.833	0.03
879.26	0.03
879.688	0.03
880.116	0.03
880.543	0.03
880.971	0.04
881.399	0.04
881.826	0.04
882.254	0.04
882.681	0.04
883.109	0.04
883.536	0.04
883.963	0.04
884.391	0.04
884.818	0.04
885.245	0.04
885.673	0.04
886.1	0.04
886.527	0.04
886.954	0.04
887.381	0.04
887.809	0.04
888.236	0.04
888.663	0.04
889.09	0.04
889.517	0.04
889.944	0.04
890.371	0.04
890.798	0.04
891.225	0.04
891.652	0.04
892.078	0.04
892.505	0.04
892.932	0.03
893.359	0.03
893.786	0.03
894.212	0.03
894.639	0.03
895.066	0.03
895.492	0.03
895.919	0.03
896.346	0.03
896.772	0.03
897.199	0.03
897.625	0.03
898.052	0.02
898.478	0.02
898.904	0.02
899.331	0.02
899.757	0.02
900.183	0.02
900.61	0.02
901.036	0.01
901.462	0.01
901.888	0.01
902.315	0.01
902.741	0.01
903.167	0.02
903.593	0.02
904.019	0.02
904.445	0.02
904.871	0.02
905.297	0.02
905.723	0.02
906.149	0.02
906.575	0.02
907.001	0.02
907.427	0.02
907.852	0.02
908.278	0.02
908.704	0.02
909.13	0.02
909.555	0.02
909.981	0.02
910.407	0.02
910.832	0.02
911.258	0.02
911.684	0.02
912.109	0.02
912.535	0.02
912.96	0.02
913.386	0.03
913.811	0.03
914.236	0.03
914.662	0.03
915.087	0.03
915.512	0.03
915.938	0.03
916.363	0.03
916.788	0.03
917.213	0.03
917.639	0.03
918.064	0.03
918.489	0.03
918.914	0.03
919.339	0.03
919.764	0.03
920.189	0.03
920.614	0.03
921.039	0.03
921.464	0.03
921.889	0.03
922.314	0.03
922.738	0.03
923.163	0.03
923.588	0.03
924.013	0.03
924.437	0.03
924.862	0.03
925.287	0.03
925.711	0.03
926.136	0.03
926.561	0.03
926.985	0.03
927.41	0.03
927.834	0.03
928.259	0.03
928.683	0.03
929.108	0.03
929.532	0.03
929.956	0.03
930.381	0.03
930.805	0.03
931.229	0.03
931.653	0.03
932.078	0.03
932.502	0.03
932.926	0.03
933.35	0.03
933.774	0.03
934.198	0.03
934.622	0.03
935.046	0.03
935.47	0.03
935.894	0.03
936.318	0.03
936.742	0.03
937.166	0.03
937.59	0.03
938.014	0.03
938.437	0.02
938.861	0.02
939.285	0.02
939.709	0.02
940.132	0.02
940.556	0.02
940.98	0.02
941.403	0.02
941.827	0.02
942.25	0.02
942.674	0.02
943.097	0.02
943.521	0.02
943.944	0.02
944.368	0.02
944.791	0.02
945.214	0.02
945.638	0.02
946.061	0.02
946.484	0.02
946.907	0.02
947.331	0.02
947.754	0.02
948.177	0.02
948.6	0.02
949.023	0.01
949.446	0.01
949.869	0.01
950.292	0.01
950.715	0.01
951.138	0.01
951.561	0
951.984	0
952.407	0
952.83	0
953.252	0
953.675	-0
954.098	-0
954.521	-0
954.943	-0
955.366	0
955.789	0
956.211	0
956.634	0.01
957.056	0.01
957.479	0.01
957.902	0.01
958.324	0.01
958.746	0.01
959.169	0.02
959.591	0.02
960.014	0.02
960.436	0.02
960.858	0.02
961.281	0.02
961.703	0.02
962.125	0.02
962.547	0.02
962.969	0.02
963.391	0.02
963.814	0.02
964.236	0.02
964.658	0.02
965.08	0.02
965.502	0.02
965.924	0.02
966.346	0.02
966.768	0.02
967.189	0.02
967.611	0.02
968.033	0.02
968.455	0.02
968.877	0.02
969.298	0.02
969.72	0.02
970.142	0.02
970.563	0.02
970.985	0.02
971.407	0.02
971.828	0.02
972.25	0.02
972.671	0.02
973.093	0.02
973.514	0.02
973.936	0.02
974.357	0.02
974.778	0.02
975.2	0.02
975.621	0.02
976.042	0.02
976.464	0.02
976.885	0.02
977.306	0.02
977.727	0.02
978.148	0.02
978.57	0.02
978.991	0.02
979.412	0.02
979.833	0.02
980.254	0.02
980.675	0.02
981.096	0.02
981.517	0.02
981.937	0.02
982.358	0.02
982.779	0.02
983.2	0.02
983.621	0.02
984.042	0.02
984.462	0.02
984.883	0.02
985.304	0.02
985.724	0.01
986.145	0.01
986.565	0.01
986.986	0.01
987.407	0.01
987.827	0.01
988.248	0.01
988.668	0.01
989.088	0.01
989.509	0.01
989.929	0.01
990.35	0.01
990.77	0.01
991.19	0.01
991.61	0.01
992.031	0.01
992.451	0.01
992.871	0.01
993.291	0.01
993.711	0.01
994.131	0.01
994.551	0.01
994.971	0
995.391	0
995.811	0
996.231	0
996.651	0
997.071	0
997.491	0
997.911	0
998.331	0
998.75	0
999.17	0
999.59	0
1000.009	0
1000.429	0.01
1000.849	0.01
1001.268	0.01
1001.688	0.01
1002.107	0.01
1002.527	0.01
1002.946	0
1003.366	0
1003.785	0
1004.205	0
1004.624	0
1005.044	0
1005.463	0
1005.882	0
1006.301	-0
1006.721	-0
1007.14	-0
1007.559	-0
1007.978	-0
1008.397	-0
1008.816	-0
1009.235	-0
1009.655	-0.01
1010.074	-0.01
1010.492	-0.01
1010.911	-0.01
1011.33	-0.01
1011.749	-0.01
1012.168	-0.01
1012.587	-0.01
1013.006	-0.01
1013.425	-0.01
1013.843	-0.01
1014.262	-0
1014.681	-0
1015.099	-0
1015.518	-0
1015.937	-0
1016.355	-0
1016.774	-0
1017.192	0
1017.611	0
1018.029	0
1018.448	0
1018.866	0
1019.285	0
1019.703	0
1020.121	0
1020.54	0
1020.958	0
1021.376	0
1021.794	0
1022.213	0
1022.631	0
1023.049	0
1023.467	0
1023.885	0
1024.303	0
1024.721	0
1025.139	0
1025.557	0
1025.975	0
1026.393	0
1026.811	0
1027.229	0
1027.647	0
1028.065	0
1028.482	0
1028.9	0
1029.318	0
1029.735	0
1030.153	0
1030.571	0
1030.988	0
1031.406	0
1031.823	0
1032.241	0
1032.659	0
1033.076	0
1033.493	0.01
1033.911	0.01
1034.328	0.01
1034.746	0.01
1035.163	0.01
1035.58	0.01
1035.997	0.01
1036.415	0.01
1036.832	0.01
1037.249	0.01
1037.666	0.01
1038.083	0.01
1038.501	0.01
1038.918	0.01
1039.335	0.01
1039.752	0.01
1040.169	0.01
1040.586	0.01
1041.003	0.01
1041.419	0.01
1041.836	0.01
1042.253	0.01
1042.67	0.01
1043.087	0.01
1043.504	0.01
1043.92	0.01
1044.337	0.01
1044.754	0.01
1045.17	0.01
1045.587	0.01
1046.004	0.01
1046.42	0.01
1046.837	0.01
1047.253	0.01
1047.67	0.01
1048.086	0.01
1048.503	0.01
1048.919	0.01
1049.335	0.01
1049.752	0.01
1050.168	0.01
1050.584	0.01
1051.001	0.01
1051.417	0.01
1051.833	0.01
1052.249	0.01
1052.665	0.01
1053.081	0
1053.497	0
1053.914	0
1054.33	0
1054.746	0
1055.162	0
1055.578	0
1055.993	0
1056.409	0
1056.825	-0
1057.241	-0
1057.657	-0
1058.073	-0
1058.488	-0
1058.904	-0
1059.32	-0
1059.736	-0
1060.151	-0
1060.567	-0
1060.982	-0
1061.398	-0
1061.813	-0
1062.229	-0
1062.644	-0
1063.06	-0
1063.475	-0
1063.891	-0
1064.306	-0
1064.721	-0
1065.137	-0
1065.552	-0
1065.967	-0
1066.382	-0
1066.798	-0
1067.213	-0
1067.628	-0
1068.043	-0
1068.458	-0
1068.873	-0
1069.288	-0
1069.703	-0
1070.118	-0
1070.533	-0.01
1070.948	-0.01
1071.363	-0.01
1071.778	-0.01
1072.193	-0.01
1072.607	-0.01
1073.022	-0.01
1073.437	-0.01
1073.852	-0.01
1074.266	-0.01
1074.681	-0.01
1075.096	-0.01
1075.51	-0.01
1075.925	-0.01
1076.339	-0.01
1076.754	-0.01
1077.168	-0.01
1077.583	-0.02
1077.997	-0.02
1078.412	-0.02
1078.826	-0.02
1079.24	-0.02
1079.655	-0.02
1080.069	-0.02
1080.483	-0.02
1080.897	-0.02
1081.312	-0.02
1081.726	-0.02
1082.14	-0.02
1082.554	-0.02
1082.968	-0.02
1083.382	-0.02
1083.796	-0.02
1084.21	-0.01
1084.624	-0.01
1085.038	-0.01
1085.452	-0.01
1085.866	-0.01
1086.28	-0.01
1086.694	-0.01
1087.108	-0.01
1087.521	-0.01
1087.935	-0.01
1088.349	-0.01
1088.763	-0.01
1089.176	-0.02
1089.59	-0.02
1090.004	-0.02
1090.417	-0.02
1090.831	-0.02
1091.244	-0.02
1091.658	-0.02
1092.071	-0.02
1092.485	-0.02
1092.898	-0.02
1093.312	-0.02
1093.725	-0.02
1094.138	-0.02
1094.552	-0.03
1094.965	-0.03
1095.378	-0.03
1095.791	-0.03
1096.205	-0.03
1096.618	-0.03
1097.031	-0.03
1097.444	-0.03
1097.857	-0.03
1098.27	-0.03
1098.683	-0.03
1099.096	-0.03
1099.509	-0.03
1099.922	-0.03
1100.335	-0.03
1100.748	-0.03
1101.161	-0.03
1101.574	-0.03
1101.986	-0.03
1102.399	-0.03
1102.812	-0.03
1103.225	-0.04
1103.637	-0.04
1104.05	-0.04
1104.463	-0.04
1104.875	-0.04
1105.288	-0.04
1105.7	-0.04
1106.113	-0.04
1106.525	-0.05
1106.938	-0.05
1107.35	-0.05
1107.763	-0.05
1108.175	-0.05
1108.588	-0.05
1109	-0.06
1109.412	-0.06
1109.824	-0.06
1110.237	-0.06
1110.649	-0.06
1111.061	-0.06
