Data from 2024-02-06-100ns-20nr-25nacl-100h2o-7bp2-1_5a808-40to10hyt-0_5cpm_Absorbance__119__00246.txt Node

Date: Tue Feb 06 13:07:21 CET 2024
User: Laser008
Spectrometer: MAYP115816
Trigger mode: 0
Integration Time (sec): 2.000000E-1
Scans to average: 10
Electric dark correction enabled: true
Nonlinearity correction enabled: true
Boxcar width: 5
XAxis mode: Wavelengths
Number of Pixels in Spectrum: 2068
>>>>>Begin Spectral Data<<<<<
198.914	-0.35
199.384	-0.31
199.855	-0.24
200.325	-0.2
200.796	-0.17
201.266	-0.16
201.737	-0.15
202.207	-0.14
202.677	-0.13
203.147	-0.13
203.618	-0.12
204.088	-0.1
204.558	-0.09
205.028	-0.09
205.498	-0.09
205.968	-0.09
206.439	-0.1
206.909	-0.09
207.379	-0.09
207.849	-0.1
208.319	-0.09
208.789	-0.09
209.258	-0.1
209.728	-0.1
210.198	-0.1
210.668	-0.1
211.138	-0.1
211.608	-0.1
212.077	-0.1
212.547	-0.1
213.017	-0.1
213.486	-0.1
213.956	-0.1
214.426	-0.1
214.895	-0.09
215.365	-0.1
215.834	-0.09
216.304	-0.09
216.773	-0.08
217.243	-0.09
217.712	-0.08
218.181	-0.08
218.651	-0.08
219.12	-0.08
219.589	-0.08
220.058	-0.08
220.528	-0.08
220.997	-0.07
221.466	-0.07
221.935	-0.07
222.404	-0.07
222.873	-0.06
223.342	-0.06
223.812	-0.05
224.281	-0.05
224.749	-0.04
225.218	-0.04
225.687	-0.03
226.156	-0.02
226.625	-0.01
227.094	-0
227.563	0.01
228.031	0.02
228.5	0.03
228.969	0.05
229.438	0.06
229.906	0.08
230.375	0.1
230.844	0.13
231.312	0.15
231.781	0.17
232.249	0.2
232.718	0.23
233.186	0.25
233.655	0.27
234.123	0.3
234.591	0.32
235.06	0.33
235.528	0.35
235.996	0.37
236.465	0.38
236.933	0.4
237.401	0.41
237.869	0.42
238.337	0.43
238.805	0.44
239.274	0.45
239.742	0.46
240.21	0.46
240.678	0.47
241.146	0.47
241.614	0.48
242.081	0.48
242.549	0.49
243.017	0.49
243.485	0.49
243.953	0.49
244.421	0.5
244.888	0.5
245.356	0.5
245.824	0.5
246.291	0.51
246.759	0.51
247.227	0.51
247.694	0.51
248.162	0.52
248.629	0.52
249.097	0.52
249.564	0.52
250.032	0.52
250.499	0.53
250.967	0.53
251.434	0.53
251.901	0.53
252.369	0.53
252.836	0.54
253.303	0.54
253.77	0.54
254.237	0.54
254.705	0.54
255.172	0.54
255.639	0.54
256.106	0.54
256.573	0.54
257.04	0.54
257.507	0.55
257.974	0.55
258.441	0.55
258.908	0.54
259.375	0.54
259.841	0.54
260.308	0.54
260.775	0.54
261.242	0.54
261.709	0.54
262.175	0.54
262.642	0.54
263.109	0.54
263.575	0.54
264.042	0.54
264.508	0.54
264.975	0.54
265.441	0.53
265.908	0.53
266.374	0.53
266.841	0.53
267.307	0.53
267.773	0.52
268.24	0.52
268.706	0.52
269.172	0.52
269.639	0.51
270.105	0.51
270.571	0.51
271.037	0.51
271.503	0.5
271.969	0.5
272.435	0.5
272.902	0.5
273.368	0.49
273.834	0.49
274.3	0.49
274.765	0.48
275.231	0.48
275.697	0.48
276.163	0.47
276.629	0.47
277.095	0.47
277.56	0.46
278.026	0.46
278.492	0.46
278.958	0.45
279.423	0.45
279.889	0.45
280.354	0.44
280.82	0.44
281.286	0.44
281.751	0.43
282.217	0.43
282.682	0.43
283.147	0.42
283.613	0.42
284.078	0.42
284.544	0.41
285.009	0.41
285.474	0.41
285.939	0.41
286.405	0.4
286.87	0.4
287.335	0.4
287.8	0.4
288.265	0.39
288.73	0.39
289.195	0.39
289.66	0.39
290.125	0.38
290.59	0.38
291.055	0.38
291.52	0.38
291.985	0.37
292.45	0.37
292.915	0.37
293.38	0.37
293.844	0.37
294.309	0.36
294.774	0.36
295.239	0.36
295.703	0.36
296.168	0.36
296.632	0.36
297.097	0.35
297.562	0.35
298.026	0.35
298.491	0.35
298.955	0.35
299.419	0.35
299.884	0.35
300.348	0.34
300.813	0.34
301.277	0.34
301.741	0.34
302.205	0.34
302.67	0.34
303.134	0.34
303.598	0.34
304.062	0.34
304.526	0.33
304.99	0.33
305.454	0.33
305.919	0.33
306.383	0.33
306.847	0.33
307.31	0.33
307.774	0.33
308.238	0.33
308.702	0.32
309.166	0.32
309.63	0.32
310.094	0.32
310.557	0.32
311.021	0.32
311.485	0.32
311.948	0.32
312.412	0.32
312.876	0.32
313.339	0.31
313.803	0.31
314.266	0.31
314.73	0.31
315.193	0.31
315.657	0.31
316.12	0.31
316.584	0.31
317.047	0.31
317.51	0.31
317.973	0.3
318.437	0.3
318.9	0.3
319.363	0.3
319.826	0.3
320.29	0.3
320.753	0.3
321.216	0.3
321.679	0.3
322.142	0.3
322.605	0.3
323.068	0.29
323.531	0.29
323.994	0.29
324.457	0.29
324.92	0.29
325.382	0.29
325.845	0.29
326.308	0.29
326.771	0.29
327.233	0.29
327.696	0.29
328.159	0.29
328.622	0.29
329.084	0.28
329.547	0.28
330.009	0.28
330.472	0.28
330.934	0.28
331.397	0.28
331.859	0.28
332.322	0.28
332.784	0.28
333.246	0.28
333.709	0.28
334.171	0.28
334.633	0.28
335.096	0.28
335.558	0.27
336.02	0.27
336.482	0.27
336.944	0.27
337.406	0.27
337.868	0.27
338.331	0.27
338.793	0.27
339.255	0.27
339.717	0.27
340.178	0.27
340.64	0.27
341.102	0.27
341.564	0.27
342.026	0.27
342.488	0.27
342.949	0.27
343.411	0.27
343.873	0.26
344.335	0.26
344.796	0.26
345.258	0.26
345.719	0.26
346.181	0.26
346.643	0.26
347.104	0.26
347.566	0.26
348.027	0.26
348.488	0.26
348.95	0.26
349.411	0.26
349.873	0.26
350.334	0.26
350.795	0.26
351.256	0.26
351.718	0.26
352.179	0.26
352.64	0.26
353.101	0.26
353.562	0.26
354.023	0.26
354.484	0.26
354.945	0.26
355.406	0.26
355.867	0.26
356.328	0.26
356.789	0.26
357.25	0.26
357.711	0.26
358.172	0.26
358.633	0.26
359.093	0.26
359.554	0.26
360.015	0.25
360.476	0.25
360.936	0.25
361.397	0.25
361.858	0.25
362.318	0.25
362.779	0.25
363.239	0.25
363.7	0.25
364.16	0.25
364.621	0.25
365.081	0.25
365.541	0.25
366.002	0.25
366.462	0.25
366.922	0.25
367.383	0.25
367.843	0.25
368.303	0.25
368.763	0.25
369.223	0.25
369.684	0.25
370.144	0.25
370.604	0.25
371.064	0.25
371.524	0.25
371.984	0.25
372.444	0.25
372.904	0.25
373.363	0.25
373.823	0.25
374.283	0.25
374.743	0.25
375.203	0.25
375.663	0.25
376.122	0.25
376.582	0.25
377.042	0.25
377.501	0.24
377.961	0.24
378.42	0.24
378.88	0.24
379.34	0.24
379.799	0.24
380.259	0.24
380.718	0.24
381.177	0.24
381.637	0.24
382.096	0.24
382.555	0.24
383.015	0.24
383.474	0.24
383.933	0.24
384.393	0.24
384.852	0.24
385.311	0.24
385.77	0.24
386.229	0.24
386.688	0.24
387.147	0.24
387.606	0.24
388.065	0.24
388.524	0.24
388.983	0.24
389.442	0.24
389.901	0.24
390.36	0.24
390.819	0.24
391.277	0.24
391.736	0.23
392.195	0.23
392.654	0.23
393.112	0.23
393.571	0.23
394.03	0.23
394.488	0.23
394.947	0.23
395.405	0.23
395.864	0.23
396.322	0.23
396.781	0.23
397.239	0.23
397.698	0.23
398.156	0.23
398.614	0.23
399.073	0.23
399.531	0.23
399.989	0.23
400.447	0.23
400.905	0.23
401.364	0.23
401.822	0.23
402.28	0.23
402.738	0.23
403.196	0.23
403.654	0.23
404.112	0.23
404.57	0.22
405.028	0.22
405.486	0.22
405.944	0.22
406.402	0.22
406.859	0.22
407.317	0.22
407.775	0.22
408.233	0.22
408.691	0.22
409.148	0.22
409.606	0.22
410.064	0.22
410.521	0.22
410.979	0.22
411.436	0.22
411.894	0.22
412.351	0.22
412.809	0.22
413.266	0.22
413.724	0.22
414.181	0.22
414.638	0.22
415.096	0.22
415.553	0.22
416.01	0.22
416.467	0.22
416.925	0.22
417.382	0.22
417.839	0.22
418.296	0.22
418.753	0.22
419.21	0.22
419.667	0.22
420.124	0.22
420.581	0.22
421.038	0.21
421.495	0.21
421.952	0.21
422.409	0.21
422.866	0.21
423.322	0.21
423.779	0.21
424.236	0.21
424.693	0.21
425.149	0.21
425.606	0.21
426.063	0.21
426.519	0.21
426.976	0.21
427.433	0.21
427.889	0.21
428.346	0.21
428.802	0.21
429.258	0.21
429.715	0.21
430.171	0.21
430.628	0.21
431.084	0.21
431.54	0.21
431.997	0.21
432.453	0.21
432.909	0.21
433.365	0.21
433.821	0.21
434.277	0.21
434.734	0.21
435.19	0.21
435.646	0.21
436.102	0.21
436.558	0.21
437.014	0.21
437.47	0.21
437.925	0.21
438.381	0.21
438.837	0.21
439.293	0.21
439.749	0.21
440.205	0.21
440.66	0.21
441.116	0.21
441.572	0.21
442.027	0.21
442.483	0.21
442.939	0.21
443.394	0.21
443.85	0.21
444.305	0.21
444.761	0.21
445.216	0.21
445.672	0.21
446.127	0.21
446.582	0.21
447.038	0.21
447.493	0.21
447.948	0.21
448.403	0.21
448.859	0.21
449.314	0.21
449.769	0.21
450.224	0.21
450.679	0.2
451.134	0.2
451.589	0.2
452.044	0.2
452.499	0.2
452.954	0.2
453.409	0.2
453.864	0.2
454.319	0.2
454.774	0.2
455.229	0.21
455.684	0.21
456.138	0.21
456.593	0.21
457.048	0.21
457.503	0.21
457.957	0.21
458.412	0.21
458.866	0.21
459.321	0.21
459.776	0.21
460.23	0.21
460.685	0.21
461.139	0.21
461.593	0.21
462.048	0.21
462.502	0.21
462.957	0.21
463.411	0.21
463.865	0.21
464.319	0.21
464.774	0.21
465.228	0.21
465.682	0.21
466.136	0.21
466.59	0.21
467.044	0.21
467.499	0.21
467.953	0.21
468.407	0.21
468.861	0.21
469.315	0.21
469.768	0.21
470.222	0.21
470.676	0.21
471.13	0.21
471.584	0.21
472.038	0.21
472.491	0.21
472.945	0.21
473.399	0.21
473.852	0.21
474.306	0.21
474.76	0.21
475.213	0.22
475.667	0.22
476.12	0.22
476.574	0.22
477.027	0.22
477.481	0.22
477.934	0.22
478.388	0.22
478.841	0.22
479.294	0.22
479.748	0.22
480.201	0.22
480.654	0.23
481.107	0.23
481.561	0.23
482.014	0.23
482.467	0.23
482.92	0.23
483.373	0.23
483.826	0.23
484.279	0.23
484.732	0.23
485.185	0.24
485.638	0.24
486.091	0.24
486.544	0.24
486.997	0.24
487.449	0.24
487.902	0.24
488.355	0.24
488.808	0.24
489.26	0.25
489.713	0.25
490.166	0.25
490.618	0.25
491.071	0.25
491.523	0.25
491.976	0.25
492.429	0.26
492.881	0.26
493.333	0.26
493.786	0.26
494.238	0.26
494.691	0.26
495.143	0.27
495.595	0.27
496.048	0.27
496.5	0.27
496.952	0.27
497.404	0.28
497.856	0.28
498.309	0.28
498.761	0.28
499.213	0.28
499.665	0.29
500.117	0.29
500.569	0.29
501.021	0.29
501.473	0.29
501.925	0.3
502.377	0.3
502.828	0.3
503.28	0.3
503.732	0.3
504.184	0.31
504.636	0.31
505.087	0.31
505.539	0.31
505.991	0.31
506.442	0.32
506.894	0.32
507.345	0.32
507.797	0.32
508.249	0.32
508.7	0.33
509.151	0.33
509.603	0.33
510.054	0.33
510.506	0.33
510.957	0.33
511.408	0.34
511.86	0.34
512.311	0.34
512.762	0.34
513.213	0.34
513.665	0.34
514.116	0.34
514.567	0.34
515.018	0.35
515.469	0.35
515.92	0.35
516.371	0.35
516.822	0.35
517.273	0.35
517.724	0.35
518.175	0.35
518.626	0.35
519.076	0.35
519.527	0.35
519.978	0.36
520.429	0.36
520.88	0.36
521.33	0.36
521.781	0.36
522.232	0.36
522.682	0.36
523.133	0.36
523.583	0.36
524.034	0.36
524.484	0.36
524.935	0.36
525.385	0.36
525.836	0.36
526.286	0.36
526.736	0.35
527.187	0.35
527.637	0.35
528.087	0.35
528.538	0.35
528.988	0.35
529.438	0.35
529.888	0.35
530.338	0.35
530.788	0.35
531.238	0.35
531.688	0.34
532.139	0.34
532.589	0.34
533.038	0.34
533.488	0.34
533.938	0.34
534.388	0.33
534.838	0.33
535.288	0.33
535.738	0.33
536.187	0.33
536.637	0.32
537.087	0.32
537.537	0.32
537.986	0.32
538.436	0.32
538.885	0.31
539.335	0.31
539.785	0.31
540.234	0.31
540.684	0.31
541.133	0.3
541.582	0.3
542.032	0.3
542.481	0.29
542.931	0.29
543.38	0.29
543.829	0.29
544.278	0.28
544.728	0.28
545.177	0.28
545.626	0.28
546.075	0.27
546.524	0.27
546.973	0.27
547.422	0.26
547.871	0.26
548.32	0.26
548.769	0.26
549.218	0.25
549.667	0.25
550.116	0.25
550.565	0.24
551.014	0.24
551.463	0.24
551.911	0.23
552.36	0.23
552.809	0.23
553.258	0.23
553.706	0.22
554.155	0.22
554.603	0.22
555.052	0.21
555.501	0.21
555.949	0.21
556.398	0.21
556.846	0.2
557.294	0.2
557.743	0.2
558.191	0.2
558.64	0.19
559.088	0.19
559.536	0.19
559.985	0.19
560.433	0.18
560.881	0.18
561.329	0.18
561.777	0.18
562.225	0.18
562.674	0.17
563.122	0.17
563.57	0.17
564.018	0.16
564.466	0.16
564.914	0.16
565.362	0.16
565.809	0.16
566.257	0.15
566.705	0.15
567.153	0.15
567.601	0.15
568.048	0.15
568.496	0.14
568.944	0.14
569.392	0.14
569.839	0.14
570.287	0.14
570.734	0.13
571.182	0.13
571.63	0.13
572.077	0.13
572.525	0.13
572.972	0.13
573.419	0.12
573.867	0.12
574.314	0.12
574.761	0.12
575.209	0.12
575.656	0.12
576.103	0.11
576.551	0.11
576.998	0.11
577.445	0.11
577.892	0.11
578.339	0.11
578.786	0.11
579.233	0.11
579.68	0.1
580.127	0.1
580.574	0.1
581.021	0.1
581.468	0.1
581.915	0.1
582.362	0.1
582.809	0.1
583.255	0.09
583.702	0.09
584.149	0.09
584.596	0.09
585.042	0.09
585.489	0.09
585.936	0.09
586.382	0.09
586.829	0.08
587.275	0.08
587.722	0.08
588.168	0.08
588.615	0.08
589.061	0.08
589.508	0.08
589.954	0.08
590.4	0.08
590.847	0.08
591.293	0.08
591.739	0.08
592.185	0.08
592.632	0.08
593.078	0.08
593.524	0.07
593.97	0.07
594.416	0.07
594.862	0.07
595.308	0.07
595.754	0.07
596.2	0.07
596.646	0.07
597.092	0.07
597.538	0.07
597.984	0.07
598.43	0.07
598.876	0.07
599.321	0.07
599.767	0.07
600.213	0.07
600.659	0.07
601.104	0.07
601.55	0.07
601.995	0.07
602.441	0.07
602.887	0.07
603.332	0.07
603.778	0.07
604.223	0.07
604.668	0.07
605.114	0.07
605.559	0.07
606.005	0.07
606.45	0.07
606.895	0.07
607.341	0.07
607.786	0.07
608.231	0.07
608.676	0.07
609.121	0.07
609.566	0.07
610.012	0.07
610.457	0.07
610.902	0.07
611.347	0.07
611.792	0.07
612.237	0.07
612.682	0.07
613.127	0.07
613.571	0.07
614.016	0.07
614.461	0.07
614.906	0.07
615.351	0.07
615.795	0.07
616.24	0.07
616.685	0.07
617.129	0.07
617.574	0.07
618.019	0.07
618.463	0.07
618.908	0.07
619.352	0.07
619.797	0.07
620.241	0.07
620.686	0.07
621.13	0.07
621.574	0.07
622.019	0.08
622.463	0.08
622.907	0.08
623.352	0.08
623.796	0.08
624.24	0.08
624.684	0.08
625.128	0.08
625.572	0.08
626.016	0.08
626.461	0.08
626.905	0.08
627.349	0.09
627.793	0.09
628.236	0.09
628.68	0.09
629.124	0.09
629.568	0.09
630.012	0.09
630.456	0.09
630.9	0.09
631.343	0.09
631.787	0.1
632.231	0.1
632.674	0.1
633.118	0.1
633.562	0.1
634.005	0.1
634.449	0.1
634.892	0.11
635.336	0.11
635.779	0.11
636.223	0.11
636.666	0.11
637.109	0.12
637.553	0.12
637.996	0.12
638.439	0.12
638.883	0.12
639.326	0.12
639.769	0.12
640.212	0.13
640.655	0.13
641.099	0.13
641.542	0.13
641.985	0.13
642.428	0.13
642.871	0.14
643.314	0.14
643.757	0.14
644.2	0.14
644.643	0.15
645.085	0.15
645.528	0.15
645.971	0.16
646.414	0.16
646.857	0.16
647.299	0.16
647.742	0.17
648.185	0.17
648.627	0.17
649.07	0.17
649.513	0.18
649.955	0.18
650.398	0.18
650.84	0.19
651.283	0.19
651.725	0.19
652.168	0.2
652.61	0.2
653.052	0.2
653.495	0.21
653.937	0.16
654.379	0.13
654.821	0.14
655.264	0.14
655.706	0.14
656.148	0.14
656.59	0.14
657.032	0.15
657.474	0.15
657.916	0.15
658.358	0.14
658.8	0.18
659.242	0.24
659.684	0.25
660.126	0.25
660.568	0.26
661.01	0.26
661.452	0.26
661.894	0.27
662.335	0.27
662.777	0.27
663.219	0.28
663.661	0.28
664.102	0.28
664.544	0.29
664.985	0.29
665.427	0.29
665.869	0.3
666.31	0.3
666.752	0.3
667.193	0.31
667.634	0.31
668.076	0.31
668.517	0.32
668.959	0.32
669.4	0.32
669.841	0.32
670.282	0.33
670.724	0.33
671.165	0.33
671.606	0.33
672.047	0.34
672.488	0.34
672.929	0.34
673.37	0.34
673.811	0.35
674.252	0.35
674.693	0.35
675.134	0.35
675.575	0.36
676.016	0.36
676.457	0.36
676.898	0.36
677.339	0.36
677.78	0.37
678.22	0.37
678.661	0.37
679.102	0.37
679.542	0.37
679.983	0.37
680.424	0.37
680.864	0.37
681.305	0.37
681.745	0.37
682.186	0.38
682.626	0.38
683.067	0.38
683.507	0.38
683.948	0.38
684.388	0.38
684.828	0.38
685.269	0.38
685.709	0.38
686.149	0.38
686.589	0.38
687.029	0.38
687.47	0.38
687.91	0.38
688.35	0.38
688.79	0.38
689.23	0.37
689.67	0.37
690.11	0.37
690.55	0.37
690.99	0.37
691.43	0.37
691.87	0.37
692.31	0.37
692.749	0.37
693.189	0.37
693.629	0.36
694.069	0.36
694.508	0.36
694.948	0.36
695.388	0.36
695.827	0.36
696.267	0.36
696.706	0.35
697.146	0.35
697.586	0.35
698.025	0.35
698.464	0.35
698.904	0.35
699.343	0.34
699.783	0.34
700.222	0.34
700.661	0.34
701.101	0.33
701.54	0.33
701.979	0.33
702.418	0.33
702.857	0.32
703.297	0.32
703.736	0.32
704.175	0.32
704.614	0.31
705.053	0.31
705.492	0.31
705.931	0.3
706.37	0.3
706.809	0.3
707.248	0.3
707.687	0.3
708.125	0.29
708.564	0.29
709.003	0.29
709.442	0.29
709.88	0.28
710.319	0.28
710.758	0.28
711.196	0.27
711.635	0.27
712.074	0.27
712.512	0.27
712.951	0.26
713.389	0.26
713.828	0.26
714.266	0.26
714.705	0.25
715.143	0.25
715.581	0.25
716.02	0.25
716.458	0.24
716.896	0.24
717.334	0.24
717.773	0.23
718.211	0.23
718.649	0.23
719.087	0.23
719.525	0.22
719.963	0.22
720.401	0.22
720.839	0.22
721.277	0.21
721.715	0.21
722.153	0.21
722.591	0.21
723.029	0.2
723.467	0.2
723.905	0.2
724.342	0.2
724.78	0.19
725.218	0.19
725.656	0.19
726.093	0.19
726.531	0.19
726.969	0.18
727.406	0.18
727.844	0.18
728.281	0.18
728.719	0.18
729.156	0.17
729.594	0.17
730.031	0.17
730.469	0.17
730.906	0.17
731.343	0.16
731.781	0.16
732.218	0.16
732.655	0.16
733.092	0.15
733.53	0.15
733.967	0.15
734.404	0.15
734.841	0.14
735.278	0.14
735.715	0.14
736.152	0.14
736.589	0.13
737.026	0.13
737.463	0.13
737.9	0.13
738.337	0.13
738.774	0.12
739.211	0.12
739.647	0.12
740.084	0.12
740.521	0.12
740.958	0.12
741.394	0.12
741.831	0.11
742.268	0.11
742.704	0.11
743.141	0.11
743.577	0.11
744.014	0.1
744.45	0.1
744.887	0.1
745.323	0.1
745.76	0.1
746.196	0.09
746.632	0.09
747.069	0.09
747.505	0.09
747.941	0.09
748.378	0.09
748.814	0.09
749.25	0.09
749.686	0.09
750.122	0.08
750.558	0.08
750.994	0.08
751.43	0.08
751.866	0.08
752.302	0.08
752.738	0.07
753.174	0.07
753.61	0.07
754.046	0.07
754.482	0.07
754.918	0.07
755.354	0.07
755.789	0.06
756.225	0.06
756.661	0.06
757.096	0.06
757.532	0.06
757.968	0.06
758.403	0.06
758.839	0.06
759.274	0.06
759.71	0.06
760.145	0.06
760.581	0.06
761.016	0.06
761.452	0.05
761.887	0.05
762.322	0.05
762.758	0.05
763.193	0.05
763.628	0.05
764.063	0.05
764.499	0.05
764.934	0.05
765.369	0.04
765.804	0.04
766.239	0.04
766.674	0.04
767.109	0.04
767.544	0.04
767.979	0.04
768.414	0.04
768.849	0.04
769.284	0.04
769.719	0.03
770.154	0.03
770.588	0.03
771.023	0.03
771.458	0.03
771.893	0.02
772.327	0.02
772.762	0.02
773.197	0.02
773.631	0.02
774.066	0.02
774.5	0.01
774.935	0.01
775.369	0.01
775.804	0.01
776.238	0.01
776.673	0.01
777.107	0.01
777.541	0.01
777.976	0
778.41	0
778.844	0
779.279	0
779.713	-0
780.147	-0
780.581	-0
781.015	-0.01
781.449	-0.01
781.883	-0.01
782.317	-0.01
782.751	-0.01
783.185	-0.01
783.619	-0.02
784.053	-0.02
784.487	-0.02
784.921	-0.02
785.355	-0.02
785.789	-0.02
786.223	-0.02
786.656	-0.02
787.09	-0.02
787.524	-0.03
787.957	-0.03
788.391	-0.03
788.825	-0.03
789.258	-0.04
789.692	-0.04
790.125	-0.04
790.559	-0.05
790.992	-0.05
791.426	-0.05
791.859	-0.06
792.293	-0.05
792.726	-0.06
793.159	-0.06
793.593	-0.06
794.026	-0.07
794.459	-0.07
794.892	-0.08
795.326	-0.08
795.759	-0.09
796.192	-0.1
796.625	-0.1
797.058	-0.12
797.491	-0.12
797.924	-0.13
798.357	-0.14
798.79	-0.14
799.223	-0.14
799.656	-0.15
800.089	-0.15
800.522	-0.15
800.955	-0.15
801.387	-0.15
801.82	-0.16
802.253	-0.16
802.686	-0.16
803.118	-0.16
803.551	-0.16
803.984	-0.15
804.416	-0.15
804.849	-0.14
805.281	-0.14
805.714	-0.14
806.146	-0.14
806.579	-0.13
807.011	-0.13
807.444	-0.13
807.876	-0.13
808.308	-0.12
808.741	-0.12
809.173	-0.13
809.605	-0.13
810.037	-0.12
810.47	-0.12
810.902	-0.11
811.334	-0.11
811.766	-0.1
812.198	-0.09
812.63	-0.09
813.062	-0.08
813.494	-0.08
813.926	-0.07
814.358	-0.07
814.79	-0.06
815.222	-0.06
815.654	-0.05
816.086	-0.05
816.518	-0.05
816.949	-0.04
817.381	-0.04
817.813	-0.04
818.245	-0.03
818.676	-0.03
819.108	-0.03
819.54	-0.03
819.971	-0.03
820.403	-0.02
820.834	-0.02
821.266	-0.02
821.697	-0.02
822.129	-0.02
822.56	-0.02
822.991	-0.01
823.423	-0.01
823.854	-0.01
824.286	-0.01
824.717	-0.01
825.148	-0.01
825.579	-0.01
826.01	-0.01
826.442	-0.01
826.873	-0.01
827.304	-0.01
827.735	-0.01
828.166	-0.01
828.597	-0.01
829.028	-0.01
829.459	-0.01
829.89	-0.01
830.321	-0.01
830.752	-0.01
831.183	-0.01
831.613	-0.01
832.044	-0.01
832.475	-0.01
832.906	-0.01
833.336	-0.01
833.767	-0.01
834.198	-0.01
834.628	-0.01
835.059	-0.01
835.49	-0.01
835.92	-0.01
836.351	-0.01
836.781	-0.01
837.212	-0.01
837.642	-0.01
838.072	-0.01
838.503	-0.01
838.933	-0.01
839.364	-0.01
839.794	-0.01
840.224	-0.01
840.654	-0.01
841.085	-0.01
841.515	-0.01
841.945	-0.01
842.375	-0.01
842.805	-0.01
843.235	-0.01
843.665	-0.01
844.095	-0.01
844.525	-0.01
844.955	-0
845.385	-0
845.815	-0
846.245	-0
846.675	-0
847.105	-0
847.534	-0
847.964	-0.01
848.394	-0.01
848.824	-0.01
849.253	-0.01
849.683	-0.01
850.112	-0.01
850.542	-0.01
850.972	-0.01
851.401	-0.01
851.831	-0.01
852.26	-0.01
852.69	-0.01
853.119	-0.01
853.548	-0.01
853.978	-0.01
854.407	-0.01
854.836	-0.01
855.266	-0.01
855.695	-0
856.124	-0
856.553	-0
856.983	-0
857.412	-0
857.841	-0
858.27	-0
858.699	-0
859.128	-0
859.557	-0
859.986	-0
860.415	-0
860.844	-0
861.273	-0
861.702	-0
862.13	-0
862.559	-0
862.988	-0
863.417	-0
863.845	-0
864.274	-0
864.703	-0
865.131	-0
865.56	-0
865.989	-0.01
866.417	-0.01
866.846	-0.01
867.274	-0.01
867.703	-0.01
868.131	-0.01
868.559	-0.01
868.988	-0.01
869.416	-0.01
869.844	-0.01
870.273	-0.01
870.701	-0.01
871.129	-0.01
871.557	-0.01
871.986	-0.02
872.414	-0.02
872.842	-0.02
873.27	-0.02
873.698	-0.02
874.126	-0.02
874.554	-0.02
874.982	-0.02
875.41	-0.02
875.838	-0.02
876.266	-0.02
876.694	-0.02
877.122	-0.01
877.549	-0.02
877.977	-0.02
878.405	-0.01
878.833	-0.01
879.26	-0.01
879.688	-0.01
880.116	-0.01
880.543	-0.01
880.971	-0.01
881.399	-0.01
881.826	-0.01
882.254	-0.01
882.681	-0.01
883.109	-0.01
883.536	-0.01
883.963	-0.01
884.391	-0.01
884.818	-0.01
885.245	-0.01
885.673	-0.01
886.1	-0.01
886.527	-0.01
886.954	-0.01
887.381	-0.01
887.809	-0.01
888.236	-0.01
888.663	-0.01
889.09	-0.01
889.517	-0.01
889.944	-0.01
890.371	-0.01
890.798	-0.01
891.225	-0.01
891.652	-0.01
892.078	-0.01
892.505	-0.02
892.932	-0.02
893.359	-0.02
893.786	-0.02
894.212	-0.02
894.639	-0.02
895.066	-0.02
895.492	-0.02
895.919	-0.02
896.346	-0.02
896.772	-0.02
897.199	-0.02
897.625	-0.02
898.052	-0.03
898.478	-0.03
898.904	-0.03
899.331	-0.03
899.757	-0.03
900.183	-0.03
900.61	-0.03
901.036	-0.03
901.462	-0.03
901.888	-0.03
902.315	-0.03
902.741	-0.03
903.167	-0.03
903.593	-0.03
904.019	-0.03
904.445	-0.03
904.871	-0.03
905.297	-0.03
905.723	-0.02
906.149	-0.02
906.575	-0.02
907.001	-0.02
907.427	-0.02
907.852	-0.02
908.278	-0.02
908.704	-0.02
909.13	-0.02
909.555	-0.02
909.981	-0.02
910.407	-0.02
910.832	-0.02
911.258	-0.02
911.684	-0.02
912.109	-0.02
912.535	-0.02
912.96	-0.02
913.386	-0.02
913.811	-0.02
914.236	-0.02
914.662	-0.02
915.087	-0.02
915.512	-0.02
915.938	-0.02
916.363	-0.02
916.788	-0.02
917.213	-0.02
917.639	-0.02
918.064	-0.02
918.489	-0.02
918.914	-0.02
919.339	-0.02
919.764	-0.02
920.189	-0.02
920.614	-0.02
921.039	-0.02
921.464	-0.02
921.889	-0.02
922.314	-0.01
922.738	-0.01
923.163	-0.01
923.588	-0.01
924.013	-0.01
924.437	-0.01
924.862	-0.01
925.287	-0.01
925.711	-0.01
926.136	-0.01
926.561	-0.01
926.985	-0.01
927.41	-0.01
927.834	-0.01
928.259	-0.01
928.683	-0.01
929.108	-0.02
929.532	-0.02
929.956	-0.02
930.381	-0.02
930.805	-0.02
931.229	-0.02
931.653	-0.02
932.078	-0.02
932.502	-0.02
932.926	-0.02
933.35	-0.02
933.774	-0.02
934.198	-0.02
934.622	-0.02
935.046	-0.02
935.47	-0.02
935.894	-0.02
936.318	-0.02
936.742	-0.02
937.166	-0.02
937.59	-0.02
938.014	-0.02
938.437	-0.02
938.861	-0.02
939.285	-0.02
939.709	-0.02
940.132	-0.02
940.556	-0.02
940.98	-0.02
941.403	-0.02
941.827	-0.02
942.25	-0.02
942.674	-0.02
943.097	-0.02
943.521	-0.02
943.944	-0.03
944.368	-0.03
944.791	-0.03
945.214	-0.02
945.638	-0.02
946.061	-0.02
946.484	-0.02
946.907	-0.02
947.331	-0.02
947.754	-0.02
948.177	-0.02
948.6	-0.03
949.023	-0.03
949.446	-0.03
949.869	-0.03
950.292	-0.03
950.715	-0.03
951.138	-0.03
951.561	-0.03
951.984	-0.03
952.407	-0.03
952.83	-0.03
953.252	-0.03
953.675	-0.03
954.098	-0.03
954.521	-0.03
954.943	-0.03
955.366	-0.03
955.789	-0.03
956.211	-0.03
956.634	-0.02
957.056	-0.02
957.479	-0.02
957.902	-0.02
958.324	-0.02
958.746	-0.02
959.169	-0.02
959.591	-0.01
960.014	-0.01
960.436	-0.01
960.858	-0.01
961.281	-0.01
961.703	-0.01
962.125	-0.01
962.547	-0.01
962.969	-0.01
963.391	-0.01
963.814	-0.01
964.236	-0.01
964.658	-0.01
965.08	-0.01
965.502	-0.01
965.924	-0.01
966.346	-0.01
966.768	-0.01
967.189	-0.01
967.611	-0.01
968.033	-0.01
968.455	-0.01
968.877	-0.01
969.298	-0.01
969.72	-0.02
970.142	-0.02
970.563	-0.02
970.985	-0.02
971.407	-0.02
971.828	-0.02
972.25	-0.02
972.671	-0.02
973.093	-0.02
973.514	-0.02
973.936	-0.02
974.357	-0.02
974.778	-0.02
975.2	-0.02
975.621	-0.02
976.042	-0.02
976.464	-0.02
976.885	-0.02
977.306	-0.02
977.727	-0.02
978.148	-0.02
978.57	-0.02
978.991	-0.02
979.412	-0.01
979.833	-0.01
980.254	-0.01
980.675	-0.01
981.096	-0.01
981.517	-0.01
981.937	-0.01
982.358	-0.01
982.779	-0.01
983.2	-0.01
983.621	-0.01
984.042	-0.01
984.462	-0.02
984.883	-0.02
985.304	-0.02
985.724	-0.02
986.145	-0.02
986.565	-0.02
986.986	-0.02
987.407	-0.02
987.827	-0.02
988.248	-0.02
988.668	-0.02
989.088	-0.02
989.509	-0.02
989.929	-0.02
990.35	-0.02
990.77	-0.02
991.19	-0.02
991.61	-0.02
992.031	-0.02
992.451	-0.02
992.871	-0.02
993.291	-0.02
993.711	-0.02
994.131	-0.02
994.551	-0.02
994.971	-0.02
995.391	-0.02
995.811	-0.02
996.231	-0.02
996.651	-0.02
997.071	-0.02
997.491	-0.02
997.911	-0.02
998.331	-0.02
998.75	-0.02
999.17	-0.02
999.59	-0.02
1000.009	-0.02
1000.429	-0.02
1000.849	-0.02
1001.268	-0.02
1001.688	-0.02
1002.107	-0.02
1002.527	-0.02
1002.946	-0.02
1003.366	-0.02
1003.785	-0.02
1004.205	-0.02
1004.624	-0.02
1005.044	-0.02
1005.463	-0.02
1005.882	-0.02
1006.301	-0.03
1006.721	-0.03
1007.14	-0.03
1007.559	-0.03
1007.978	-0.03
1008.397	-0.03
1008.816	-0.03
1009.235	-0.03
1009.655	-0.03
1010.074	-0.03
1010.492	-0.03
1010.911	-0.03
1011.33	-0.03
1011.749	-0.03
1012.168	-0.03
1012.587	-0.03
1013.006	-0.03
1013.425	-0.03
1013.843	-0.03
1014.262	-0.03
1014.681	-0.03
1015.099	-0.03
1015.518	-0.03
1015.937	-0.03
1016.355	-0.03
1016.774	-0.03
1017.192	-0.03
1017.611	-0.03
1018.029	-0.03
1018.448	-0.03
1018.866	-0.03
1019.285	-0.03
1019.703	-0.03
1020.121	-0.03
1020.54	-0.03
1020.958	-0.03
1021.376	-0.03
1021.794	-0.03
1022.213	-0.03
1022.631	-0.03
1023.049	-0.03
1023.467	-0.03
1023.885	-0.03
1024.303	-0.03
1024.721	-0.03
1025.139	-0.03
1025.557	-0.03
1025.975	-0.03
1026.393	-0.03
1026.811	-0.03
1027.229	-0.02
1027.647	-0.02
1028.065	-0.02
1028.482	-0.02
1028.9	-0.02
1029.318	-0.02
1029.735	-0.02
1030.153	-0.02
1030.571	-0.02
1030.988	-0.02
1031.406	-0.02
1031.823	-0.02
1032.241	-0.02
1032.659	-0.02
1033.076	-0.02
1033.493	-0.02
1033.911	-0.02
1034.328	-0.02
1034.746	-0.02
1035.163	-0.02
1035.58	-0.02
1035.997	-0.02
1036.415	-0.02
1036.832	-0.02
1037.249	-0.02
1037.666	-0.02
1038.083	-0.02
1038.501	-0.02
1038.918	-0.02
1039.335	-0.02
1039.752	-0.02
1040.169	-0.02
1040.586	-0.02
1041.003	-0.02
1041.419	-0.02
1041.836	-0.02
1042.253	-0.02
1042.67	-0.02
1043.087	-0.02
1043.504	-0.02
1043.92	-0.02
1044.337	-0.02
1044.754	-0.02
1045.17	-0.02
1045.587	-0.02
1046.004	-0.02
1046.42	-0.02
1046.837	-0.02
1047.253	-0.02
1047.67	-0.02
1048.086	-0.02
1048.503	-0.02
1048.919	-0.02
1049.335	-0.02
1049.752	-0.02
1050.168	-0.02
1050.584	-0.02
1051.001	-0.02
1051.417	-0.02
1051.833	-0.02
1052.249	-0.02
1052.665	-0.02
1053.081	-0.02
1053.497	-0.02
1053.914	-0.02
1054.33	-0.02
1054.746	-0.02
1055.162	-0.02
1055.578	-0.03
1055.993	-0.03
1056.409	-0.03
1056.825	-0.03
1057.241	-0.03
1057.657	-0.03
1058.073	-0.03
1058.488	-0.03
1058.904	-0.03
1059.32	-0.03
1059.736	-0.03
1060.151	-0.03
1060.567	-0.03
1060.982	-0.03
1061.398	-0.03
1061.813	-0.03
1062.229	-0.03
1062.644	-0.03
1063.06	-0.03
1063.475	-0.03
1063.891	-0.03
1064.306	-0.03
1064.721	-0.03
1065.137	-0.03
1065.552	-0.03
1065.967	-0.03
1066.382	-0.03
1066.798	-0.03
1067.213	-0.03
1067.628	-0.03
1068.043	-0.03
1068.458	-0.03
1068.873	-0.03
1069.288	-0.03
1069.703	-0.03
1070.118	-0.03
1070.533	-0.03
1070.948	-0.03
1071.363	-0.03
1071.778	-0.03
1072.193	-0.03
1072.607	-0.04
1073.022	-0.04
1073.437	-0.04
1073.852	-0.04
1074.266	-0.04
1074.681	-0.04
1075.096	-0.04
1075.51	-0.04
1075.925	-0.04
1076.339	-0.04
1076.754	-0.04
1077.168	-0.04
1077.583	-0.04
1077.997	-0.04
1078.412	-0.04
1078.826	-0.04
1079.24	-0.04
1079.655	-0.04
1080.069	-0.04
1080.483	-0.04
1080.897	-0.04
1081.312	-0.04
1081.726	-0.04
1082.14	-0.04
1082.554	-0.04
1082.968	-0.04
1083.382	-0.04
1083.796	-0.04
1084.21	-0.04
1084.624	-0.03
1085.038	-0.03
1085.452	-0.03
1085.866	-0.03
1086.28	-0.03
1086.694	-0.03
1087.108	-0.03
1087.521	-0.03
1087.935	-0.03
1088.349	-0.03
1088.763	-0.03
1089.176	-0.03
1089.59	-0.04
1090.004	-0.04
1090.417	-0.04
1090.831	-0.04
1091.244	-0.04
1091.658	-0.04
1092.071	-0.04
1092.485	-0.04
1092.898	-0.04
1093.312	-0.04
1093.725	-0.04
1094.138	-0.04
1094.552	-0.04
1094.965	-0.05
1095.378	-0.05
1095.791	-0.05
1096.205	-0.05
1096.618	-0.05
1097.031	-0.05
1097.444	-0.05
1097.857	-0.05
1098.27	-0.05
1098.683	-0.05
1099.096	-0.05
1099.509	-0.05
1099.922	-0.05
1100.335	-0.05
1100.748	-0.05
1101.161	-0.06
1101.574	-0.06
1101.986	-0.06
1102.399	-0.06
1102.812	-0.06
1103.225	-0.06
1103.637	-0.06
1104.05	-0.06
1104.463	-0.06
1104.875	-0.06
1105.288	-0.06
1105.7	-0.06
1106.113	-0.07
1106.525	-0.07
1106.938	-0.07
1107.35	-0.07
1107.763	-0.07
1108.175	-0.07
1108.588	-0.08
1109	-0.08
1109.412	-0.08
1109.824	-0.08
1110.237	-0.08
1110.649	-0.08
1111.061	-0.08
