Data from 2024-02-06-100ns-20nr-25nacl-100h2o-7bp2-1_5a808-40to10hyt-0_5cpm_Absorbance__52__00179.txt Node

Date: Tue Feb 06 12:33:51 CET 2024
User: Laser008
Spectrometer: MAYP115816
Trigger mode: 0
Integration Time (sec): 2.000000E-1
Scans to average: 10
Electric dark correction enabled: true
Nonlinearity correction enabled: true
Boxcar width: 5
XAxis mode: Wavelengths
Number of Pixels in Spectrum: 2068
>>>>>Begin Spectral Data<<<<<
198.914	-0.32
199.384	-0.29
199.855	-0.23
200.325	-0.19
200.796	-0.16
201.266	-0.15
201.737	-0.14
202.207	-0.13
202.677	-0.13
203.147	-0.13
203.618	-0.11
204.088	-0.1
204.558	-0.09
205.028	-0.09
205.498	-0.09
205.968	-0.09
206.439	-0.09
206.909	-0.09
207.379	-0.09
207.849	-0.09
208.319	-0.09
208.789	-0.09
209.258	-0.09
209.728	-0.09
210.198	-0.09
210.668	-0.09
211.138	-0.09
211.608	-0.09
212.077	-0.09
212.547	-0.1
213.017	-0.09
213.486	-0.1
213.956	-0.09
214.426	-0.09
214.895	-0.09
215.365	-0.09
215.834	-0.09
216.304	-0.09
216.773	-0.08
217.243	-0.08
217.712	-0.08
218.181	-0.07
218.651	-0.07
219.12	-0.07
219.589	-0.07
220.058	-0.07
220.528	-0.07
220.997	-0.06
221.466	-0.06
221.935	-0.06
222.404	-0.05
222.873	-0.05
223.342	-0.05
223.812	-0.04
224.281	-0.04
224.749	-0.03
225.218	-0.03
225.687	-0.02
226.156	-0.01
226.625	-0
227.094	0
227.563	0.01
228.031	0.02
228.5	0.04
228.969	0.05
229.438	0.07
229.906	0.09
230.375	0.11
230.844	0.14
231.312	0.16
231.781	0.18
232.249	0.2
232.718	0.23
233.186	0.25
233.655	0.27
234.123	0.3
234.591	0.31
235.06	0.33
235.528	0.35
235.996	0.37
236.465	0.38
236.933	0.39
237.401	0.41
237.869	0.42
238.337	0.43
238.805	0.44
239.274	0.44
239.742	0.45
240.21	0.46
240.678	0.46
241.146	0.47
241.614	0.47
242.081	0.47
242.549	0.48
243.017	0.48
243.485	0.49
243.953	0.49
244.421	0.49
244.888	0.49
245.356	0.5
245.824	0.5
246.291	0.5
246.759	0.5
247.227	0.51
247.694	0.51
248.162	0.51
248.629	0.51
249.097	0.52
249.564	0.52
250.032	0.52
250.499	0.52
250.967	0.52
251.434	0.52
251.901	0.53
252.369	0.53
252.836	0.53
253.303	0.53
253.77	0.53
254.237	0.53
254.705	0.54
255.172	0.54
255.639	0.54
256.106	0.54
256.573	0.54
257.04	0.54
257.507	0.54
257.974	0.54
258.441	0.54
258.908	0.54
259.375	0.54
259.841	0.54
260.308	0.54
260.775	0.54
261.242	0.54
261.709	0.54
262.175	0.54
262.642	0.54
263.109	0.54
263.575	0.54
264.042	0.53
264.508	0.53
264.975	0.53
265.441	0.53
265.908	0.53
266.374	0.53
266.841	0.53
267.307	0.52
267.773	0.52
268.24	0.52
268.706	0.52
269.172	0.51
269.639	0.51
270.105	0.51
270.571	0.51
271.037	0.5
271.503	0.5
271.969	0.5
272.435	0.5
272.902	0.49
273.368	0.49
273.834	0.49
274.3	0.48
274.765	0.48
275.231	0.48
275.697	0.48
276.163	0.47
276.629	0.47
277.095	0.47
277.56	0.46
278.026	0.46
278.492	0.46
278.958	0.45
279.423	0.45
279.889	0.45
280.354	0.44
280.82	0.44
281.286	0.44
281.751	0.43
282.217	0.43
282.682	0.43
283.147	0.43
283.613	0.42
284.078	0.42
284.544	0.42
285.009	0.41
285.474	0.41
285.939	0.41
286.405	0.41
286.87	0.4
287.335	0.4
287.8	0.4
288.265	0.4
288.73	0.39
289.195	0.39
289.66	0.39
290.125	0.39
290.59	0.38
291.055	0.38
291.52	0.38
291.985	0.38
292.45	0.38
292.915	0.37
293.38	0.37
293.844	0.37
294.309	0.37
294.774	0.37
295.239	0.37
295.703	0.36
296.168	0.36
296.632	0.36
297.097	0.36
297.562	0.36
298.026	0.36
298.491	0.35
298.955	0.35
299.419	0.35
299.884	0.35
300.348	0.35
300.813	0.35
301.277	0.35
301.741	0.35
302.205	0.35
302.67	0.34
303.134	0.34
303.598	0.34
304.062	0.34
304.526	0.34
304.99	0.34
305.454	0.34
305.919	0.34
306.383	0.34
306.847	0.33
307.31	0.33
307.774	0.33
308.238	0.33
308.702	0.33
309.166	0.33
309.63	0.33
310.094	0.33
310.557	0.33
311.021	0.33
311.485	0.32
311.948	0.32
312.412	0.32
312.876	0.32
313.339	0.32
313.803	0.32
314.266	0.32
314.73	0.32
315.193	0.32
315.657	0.32
316.12	0.31
316.584	0.31
317.047	0.31
317.51	0.31
317.973	0.31
318.437	0.31
318.9	0.31
319.363	0.31
319.826	0.31
320.29	0.31
320.753	0.31
321.216	0.31
321.679	0.3
322.142	0.3
322.605	0.3
323.068	0.3
323.531	0.3
323.994	0.3
324.457	0.3
324.92	0.3
325.382	0.3
325.845	0.3
326.308	0.3
326.771	0.3
327.233	0.29
327.696	0.29
328.159	0.29
328.622	0.29
329.084	0.29
329.547	0.29
330.009	0.29
330.472	0.29
330.934	0.29
331.397	0.29
331.859	0.29
332.322	0.29
332.784	0.29
333.246	0.29
333.709	0.28
334.171	0.28
334.633	0.28
335.096	0.28
335.558	0.28
336.02	0.28
336.482	0.28
336.944	0.28
337.406	0.28
337.868	0.28
338.331	0.28
338.793	0.28
339.255	0.28
339.717	0.28
340.178	0.28
340.64	0.28
341.102	0.27
341.564	0.27
342.026	0.27
342.488	0.27
342.949	0.27
343.411	0.27
343.873	0.27
344.335	0.27
344.796	0.27
345.258	0.27
345.719	0.27
346.181	0.27
346.643	0.27
347.104	0.27
347.566	0.27
348.027	0.27
348.488	0.27
348.95	0.27
349.411	0.27
349.873	0.27
350.334	0.27
350.795	0.27
351.256	0.27
351.718	0.27
352.179	0.27
352.64	0.27
353.101	0.27
353.562	0.27
354.023	0.27
354.484	0.27
354.945	0.27
355.406	0.27
355.867	0.26
356.328	0.26
356.789	0.26
357.25	0.26
357.711	0.26
358.172	0.26
358.633	0.26
359.093	0.26
359.554	0.26
360.015	0.26
360.476	0.26
360.936	0.26
361.397	0.26
361.858	0.26
362.318	0.26
362.779	0.26
363.239	0.26
363.7	0.26
364.16	0.26
364.621	0.26
365.081	0.26
365.541	0.26
366.002	0.26
366.462	0.26
366.922	0.26
367.383	0.26
367.843	0.26
368.303	0.26
368.763	0.26
369.223	0.26
369.684	0.26
370.144	0.26
370.604	0.26
371.064	0.26
371.524	0.26
371.984	0.26
372.444	0.26
372.904	0.26
373.363	0.26
373.823	0.26
374.283	0.26
374.743	0.26
375.203	0.26
375.663	0.25
376.122	0.25
376.582	0.25
377.042	0.25
377.501	0.25
377.961	0.25
378.42	0.25
378.88	0.25
379.34	0.25
379.799	0.25
380.259	0.25
380.718	0.25
381.177	0.25
381.637	0.25
382.096	0.25
382.555	0.25
383.015	0.25
383.474	0.25
383.933	0.25
384.393	0.25
384.852	0.25
385.311	0.25
385.77	0.25
386.229	0.25
386.688	0.25
387.147	0.25
387.606	0.25
388.065	0.25
388.524	0.25
388.983	0.25
389.442	0.25
389.901	0.25
390.36	0.24
390.819	0.24
391.277	0.24
391.736	0.24
392.195	0.24
392.654	0.24
393.112	0.24
393.571	0.24
394.03	0.24
394.488	0.24
394.947	0.24
395.405	0.24
395.864	0.24
396.322	0.24
396.781	0.24
397.239	0.24
397.698	0.24
398.156	0.24
398.614	0.24
399.073	0.24
399.531	0.24
399.989	0.24
400.447	0.24
400.905	0.24
401.364	0.24
401.822	0.24
402.28	0.24
402.738	0.24
403.196	0.23
403.654	0.23
404.112	0.23
404.57	0.23
405.028	0.23
405.486	0.23
405.944	0.23
406.402	0.23
406.859	0.23
407.317	0.23
407.775	0.23
408.233	0.23
408.691	0.23
409.148	0.23
409.606	0.23
410.064	0.23
410.521	0.23
410.979	0.23
411.436	0.23
411.894	0.23
412.351	0.23
412.809	0.23
413.266	0.23
413.724	0.23
414.181	0.23
414.638	0.23
415.096	0.23
415.553	0.23
416.01	0.23
416.467	0.23
416.925	0.23
417.382	0.23
417.839	0.23
418.296	0.23
418.753	0.23
419.21	0.23
419.667	0.23
420.124	0.23
420.581	0.22
421.038	0.22
421.495	0.22
421.952	0.22
422.409	0.22
422.866	0.22
423.322	0.22
423.779	0.22
424.236	0.22
424.693	0.22
425.149	0.22
425.606	0.22
426.063	0.22
426.519	0.22
426.976	0.22
427.433	0.22
427.889	0.22
428.346	0.22
428.802	0.22
429.258	0.22
429.715	0.22
430.171	0.22
430.628	0.22
431.084	0.22
431.54	0.22
431.997	0.22
432.453	0.22
432.909	0.22
433.365	0.22
433.821	0.22
434.277	0.22
434.734	0.22
435.19	0.22
435.646	0.22
436.102	0.22
436.558	0.22
437.014	0.22
437.47	0.22
437.925	0.22
438.381	0.22
438.837	0.22
439.293	0.22
439.749	0.22
440.205	0.22
440.66	0.22
441.116	0.22
441.572	0.22
442.027	0.22
442.483	0.22
442.939	0.22
443.394	0.22
443.85	0.22
444.305	0.22
444.761	0.22
445.216	0.22
445.672	0.22
446.127	0.22
446.582	0.22
447.038	0.22
447.493	0.22
447.948	0.22
448.403	0.22
448.859	0.22
449.314	0.22
449.769	0.21
450.224	0.21
450.679	0.21
451.134	0.21
451.589	0.21
452.044	0.21
452.499	0.21
452.954	0.21
453.409	0.21
453.864	0.21
454.319	0.21
454.774	0.21
455.229	0.21
455.684	0.21
456.138	0.21
456.593	0.21
457.048	0.21
457.503	0.21
457.957	0.21
458.412	0.21
458.866	0.22
459.321	0.21
459.776	0.21
460.23	0.21
460.685	0.22
461.139	0.22
461.593	0.22
462.048	0.22
462.502	0.22
462.957	0.22
463.411	0.22
463.865	0.22
464.319	0.22
464.774	0.22
465.228	0.22
465.682	0.22
466.136	0.22
466.59	0.22
467.044	0.22
467.499	0.22
467.953	0.22
468.407	0.22
468.861	0.22
469.315	0.22
469.768	0.22
470.222	0.22
470.676	0.22
471.13	0.22
471.584	0.22
472.038	0.22
472.491	0.22
472.945	0.22
473.399	0.22
473.852	0.22
474.306	0.22
474.76	0.22
475.213	0.23
475.667	0.23
476.12	0.23
476.574	0.23
477.027	0.23
477.481	0.23
477.934	0.23
478.388	0.23
478.841	0.23
479.294	0.23
479.748	0.23
480.201	0.23
480.654	0.24
481.107	0.24
481.561	0.24
482.014	0.24
482.467	0.24
482.92	0.24
483.373	0.24
483.826	0.24
484.279	0.24
484.732	0.24
485.185	0.25
485.638	0.25
486.091	0.25
486.544	0.25
486.997	0.25
487.449	0.25
487.902	0.25
488.355	0.25
488.808	0.26
489.26	0.26
489.713	0.26
490.166	0.26
490.618	0.26
491.071	0.26
491.523	0.26
491.976	0.27
492.429	0.27
492.881	0.27
493.333	0.27
493.786	0.27
494.238	0.28
494.691	0.28
495.143	0.28
495.595	0.28
496.048	0.28
496.5	0.29
496.952	0.29
497.404	0.29
497.856	0.29
498.309	0.29
498.761	0.3
499.213	0.3
499.665	0.3
500.117	0.3
500.569	0.31
501.021	0.31
501.473	0.31
501.925	0.31
502.377	0.32
502.828	0.32
503.28	0.32
503.732	0.32
504.184	0.32
504.636	0.33
505.087	0.33
505.539	0.33
505.991	0.33
506.442	0.34
506.894	0.34
507.345	0.34
507.797	0.34
508.249	0.34
508.7	0.35
509.151	0.35
509.603	0.35
510.054	0.35
510.506	0.35
510.957	0.36
511.408	0.36
511.86	0.36
512.311	0.36
512.762	0.36
513.213	0.36
513.665	0.37
514.116	0.37
514.567	0.37
515.018	0.37
515.469	0.37
515.92	0.37
516.371	0.37
516.822	0.38
517.273	0.38
517.724	0.38
518.175	0.38
518.626	0.38
519.076	0.38
519.527	0.38
519.978	0.38
520.429	0.38
520.88	0.38
521.33	0.38
521.781	0.38
522.232	0.38
522.682	0.38
523.133	0.38
523.583	0.38
524.034	0.39
524.484	0.39
524.935	0.39
525.385	0.39
525.836	0.39
526.286	0.39
526.736	0.39
527.187	0.38
527.637	0.38
528.087	0.38
528.538	0.38
528.988	0.38
529.438	0.38
529.888	0.38
530.338	0.38
530.788	0.38
531.238	0.38
531.688	0.38
532.139	0.37
532.589	0.37
533.038	0.37
533.488	0.37
533.938	0.37
534.388	0.37
534.838	0.36
535.288	0.36
535.738	0.36
536.187	0.36
536.637	0.36
537.087	0.36
537.537	0.35
537.986	0.35
538.436	0.35
538.885	0.35
539.335	0.35
539.785	0.34
540.234	0.34
540.684	0.34
541.133	0.34
541.582	0.33
542.032	0.33
542.481	0.33
542.931	0.33
543.38	0.32
543.829	0.32
544.278	0.32
544.728	0.31
545.177	0.31
545.626	0.31
546.075	0.31
546.524	0.3
546.973	0.3
547.422	0.3
547.871	0.29
548.32	0.29
548.769	0.29
549.218	0.29
549.667	0.28
550.116	0.28
550.565	0.28
551.014	0.27
551.463	0.27
551.911	0.27
552.36	0.26
552.809	0.26
553.258	0.26
553.706	0.25
554.155	0.25
554.603	0.25
555.052	0.25
555.501	0.24
555.949	0.24
556.398	0.24
556.846	0.23
557.294	0.23
557.743	0.23
558.191	0.23
558.64	0.22
559.088	0.22
559.536	0.22
559.985	0.22
560.433	0.21
560.881	0.21
561.329	0.21
561.777	0.21
562.225	0.2
562.674	0.2
563.122	0.2
563.57	0.2
564.018	0.19
564.466	0.19
564.914	0.19
565.362	0.18
565.809	0.18
566.257	0.18
566.705	0.18
567.153	0.17
567.601	0.17
568.048	0.17
568.496	0.17
568.944	0.17
569.392	0.16
569.839	0.16
570.287	0.16
570.734	0.16
571.182	0.16
571.63	0.15
572.077	0.15
572.525	0.15
572.972	0.15
573.419	0.15
573.867	0.14
574.314	0.14
574.761	0.14
575.209	0.14
575.656	0.14
576.103	0.14
576.551	0.13
576.998	0.13
577.445	0.13
577.892	0.13
578.339	0.13
578.786	0.13
579.233	0.13
579.68	0.12
580.127	0.12
580.574	0.12
581.021	0.12
581.468	0.12
581.915	0.12
582.362	0.11
582.809	0.11
583.255	0.11
583.702	0.11
584.149	0.11
584.596	0.11
585.042	0.1
585.489	0.1
585.936	0.1
586.382	0.1
586.829	0.1
587.275	0.1
587.722	0.1
588.168	0.1
588.615	0.1
589.061	0.1
589.508	0.09
589.954	0.09
590.4	0.09
590.847	0.09
591.293	0.09
591.739	0.09
592.185	0.09
592.632	0.09
593.078	0.09
593.524	0.09
593.97	0.09
594.416	0.09
594.862	0.09
595.308	0.09
595.754	0.08
596.2	0.08
596.646	0.08
597.092	0.08
597.538	0.08
597.984	0.08
598.43	0.08
598.876	0.08
599.321	0.08
599.767	0.08
600.213	0.08
600.659	0.08
601.104	0.08
601.55	0.08
601.995	0.08
602.441	0.08
602.887	0.08
603.332	0.08
603.778	0.08
604.223	0.08
604.668	0.08
605.114	0.08
605.559	0.08
606.005	0.08
606.45	0.08
606.895	0.08
607.341	0.08
607.786	0.08
608.231	0.08
608.676	0.08
609.121	0.08
609.566	0.08
610.012	0.07
610.457	0.08
610.902	0.08
611.347	0.08
611.792	0.08
612.237	0.08
612.682	0.08
613.127	0.08
613.571	0.08
614.016	0.08
614.461	0.08
614.906	0.08
615.351	0.08
615.795	0.08
616.24	0.08
616.685	0.08
617.129	0.08
617.574	0.08
618.019	0.08
618.463	0.08
618.908	0.08
619.352	0.08
619.797	0.08
620.241	0.08
620.686	0.08
621.13	0.08
621.574	0.08
622.019	0.09
622.463	0.09
622.907	0.09
623.352	0.09
623.796	0.09
624.24	0.09
624.684	0.09
625.128	0.09
625.572	0.09
626.016	0.09
626.461	0.09
626.905	0.09
627.349	0.1
627.793	0.1
628.236	0.1
628.68	0.1
629.124	0.1
629.568	0.1
630.012	0.1
630.456	0.1
630.9	0.1
631.343	0.1
631.787	0.1
632.231	0.11
632.674	0.11
633.118	0.11
633.562	0.11
634.005	0.11
634.449	0.11
634.892	0.12
635.336	0.12
635.779	0.12
636.223	0.12
636.666	0.12
637.109	0.13
637.553	0.13
637.996	0.13
638.439	0.13
638.883	0.13
639.326	0.13
639.769	0.14
640.212	0.14
640.655	0.14
641.099	0.14
641.542	0.14
641.985	0.14
642.428	0.15
642.871	0.15
643.314	0.15
643.757	0.15
644.2	0.16
644.643	0.16
645.085	0.16
645.528	0.16
645.971	0.17
646.414	0.17
646.857	0.17
647.299	0.18
647.742	0.18
648.185	0.18
648.627	0.18
649.07	0.19
649.513	0.19
649.955	0.19
650.398	0.19
650.84	0.2
651.283	0.2
651.725	0.2
652.168	0.21
652.61	0.21
653.052	0.21
653.495	0.22
653.937	0.17
654.379	0.14
654.821	0.14
655.264	0.14
655.706	0.15
656.148	0.15
656.59	0.15
657.032	0.15
657.474	0.15
657.916	0.15
658.358	0.15
658.8	0.19
659.242	0.25
659.684	0.26
660.126	0.26
660.568	0.26
661.01	0.27
661.452	0.27
661.894	0.27
662.335	0.28
662.777	0.28
663.219	0.28
663.661	0.29
664.102	0.29
664.544	0.29
664.985	0.29
665.427	0.3
665.869	0.3
666.31	0.3
666.752	0.31
667.193	0.31
667.634	0.31
668.076	0.31
668.517	0.32
668.959	0.32
669.4	0.32
669.841	0.33
670.282	0.33
670.724	0.33
671.165	0.33
671.606	0.33
672.047	0.34
672.488	0.34
672.929	0.34
673.37	0.34
673.811	0.34
674.252	0.34
674.693	0.35
675.134	0.35
675.575	0.35
676.016	0.35
676.457	0.35
676.898	0.35
677.339	0.36
677.78	0.36
678.22	0.36
678.661	0.36
679.102	0.36
679.542	0.36
679.983	0.36
680.424	0.36
680.864	0.36
681.305	0.36
681.745	0.36
682.186	0.36
682.626	0.37
683.067	0.37
683.507	0.37
683.948	0.37
684.388	0.37
684.828	0.37
685.269	0.37
685.709	0.37
686.149	0.37
686.589	0.37
687.029	0.37
687.47	0.36
687.91	0.36
688.35	0.36
688.79	0.36
689.23	0.36
689.67	0.36
690.11	0.36
690.55	0.36
690.99	0.36
691.43	0.36
691.87	0.35
692.31	0.35
692.749	0.35
693.189	0.35
693.629	0.35
694.069	0.35
694.508	0.35
694.948	0.35
695.388	0.34
695.827	0.34
696.267	0.34
696.706	0.34
697.146	0.34
697.586	0.33
698.025	0.33
698.464	0.33
698.904	0.33
699.343	0.33
699.783	0.33
700.222	0.32
700.661	0.32
701.101	0.32
701.54	0.32
701.979	0.32
702.418	0.31
702.857	0.31
703.297	0.31
703.736	0.31
704.175	0.3
704.614	0.3
705.053	0.3
705.492	0.3
705.931	0.29
706.37	0.29
706.809	0.29
707.248	0.29
707.687	0.28
708.125	0.28
708.564	0.28
709.003	0.28
709.442	0.27
709.88	0.27
710.319	0.27
710.758	0.27
711.196	0.26
711.635	0.26
712.074	0.26
712.512	0.26
712.951	0.25
713.389	0.25
713.828	0.25
714.266	0.25
714.705	0.24
715.143	0.24
715.581	0.24
716.02	0.24
716.458	0.24
716.896	0.23
717.334	0.23
717.773	0.23
718.211	0.23
718.649	0.22
719.087	0.22
719.525	0.22
719.963	0.22
720.401	0.21
720.839	0.21
721.277	0.21
721.715	0.21
722.153	0.2
722.591	0.2
723.029	0.2
723.467	0.2
723.905	0.2
724.342	0.19
724.78	0.19
725.218	0.19
725.656	0.19
726.093	0.19
726.531	0.18
726.969	0.18
727.406	0.18
727.844	0.18
728.281	0.18
728.719	0.17
729.156	0.17
729.594	0.17
730.031	0.17
730.469	0.16
730.906	0.16
731.343	0.16
731.781	0.16
732.218	0.16
732.655	0.15
733.092	0.15
733.53	0.15
733.967	0.15
734.404	0.15
734.841	0.14
735.278	0.14
735.715	0.14
736.152	0.14
736.589	0.14
737.026	0.13
737.463	0.13
737.9	0.13
738.337	0.13
738.774	0.13
739.211	0.12
739.647	0.12
740.084	0.12
740.521	0.12
740.958	0.12
741.394	0.12
741.831	0.11
742.268	0.11
742.704	0.11
743.141	0.11
743.577	0.11
744.014	0.1
744.45	0.1
744.887	0.1
745.323	0.1
745.76	0.1
746.196	0.1
746.632	0.09
747.069	0.09
747.505	0.09
747.941	0.09
748.378	0.09
748.814	0.09
749.25	0.09
749.686	0.09
750.122	0.09
750.558	0.09
750.994	0.09
751.43	0.08
751.866	0.08
752.302	0.08
752.738	0.08
753.174	0.08
753.61	0.07
754.046	0.07
754.482	0.07
754.918	0.07
755.354	0.07
755.789	0.07
756.225	0.07
756.661	0.06
757.096	0.06
757.532	0.06
757.968	0.06
758.403	0.06
758.839	0.06
759.274	0.06
759.71	0.06
760.145	0.06
760.581	0.06
761.016	0.06
761.452	0.06
761.887	0.06
762.322	0.05
762.758	0.05
763.193	0.05
763.628	0.05
764.063	0.05
764.499	0.05
764.934	0.05
765.369	0.05
765.804	0.05
766.239	0.04
766.674	0.04
767.109	0.04
767.544	0.04
767.979	0.04
768.414	0.04
768.849	0.04
769.284	0.03
769.719	0.03
770.154	0.03
770.588	0.03
771.023	0.03
771.458	0.02
771.893	0.02
772.327	0.02
772.762	0.02
773.197	0.02
773.631	0.02
774.066	0.01
774.5	0.01
774.935	0.01
775.369	0.01
775.804	0.01
776.238	0.01
776.673	0.01
777.107	0
777.541	0
777.976	0
778.41	-0
778.844	-0
779.279	-0
779.713	-0
780.147	-0.01
780.581	-0.01
781.015	-0.01
781.449	-0.01
781.883	-0.01
782.317	-0.02
782.751	-0.02
783.185	-0.02
783.619	-0.02
784.053	-0.02
784.487	-0.03
784.921	-0.03
785.355	-0.03
785.789	-0.03
786.223	-0.03
786.656	-0.03
787.09	-0.04
787.524	-0.04
787.957	-0.04
788.391	-0.04
788.825	-0.05
789.258	-0.05
789.692	-0.05
790.125	-0.06
790.559	-0.06
790.992	-0.07
791.426	-0.07
791.859	-0.07
792.293	-0.07
792.726	-0.07
793.159	-0.07
793.593	-0.08
794.026	-0.08
794.459	-0.09
794.892	-0.1
795.326	-0.1
795.759	-0.11
796.192	-0.11
796.625	-0.12
797.058	-0.13
797.491	-0.14
797.924	-0.14
798.357	-0.15
798.79	-0.15
799.223	-0.15
799.656	-0.15
800.089	-0.15
800.522	-0.15
800.955	-0.16
801.387	-0.15
801.82	-0.16
802.253	-0.16
802.686	-0.16
803.118	-0.16
803.551	-0.16
803.984	-0.15
804.416	-0.15
804.849	-0.14
805.281	-0.14
805.714	-0.14
806.146	-0.14
806.579	-0.13
807.011	-0.13
807.444	-0.13
807.876	-0.13
808.308	-0.13
808.741	-0.13
809.173	-0.14
809.605	-0.14
810.037	-0.14
810.47	-0.14
810.902	-0.13
811.334	-0.13
811.766	-0.12
812.198	-0.11
812.63	-0.11
813.062	-0.1
813.494	-0.1
813.926	-0.09
814.358	-0.08
814.79	-0.08
815.222	-0.07
815.654	-0.07
816.086	-0.06
816.518	-0.06
816.949	-0.06
817.381	-0.05
817.813	-0.05
818.245	-0.04
818.676	-0.04
819.108	-0.04
819.54	-0.04
819.971	-0.03
820.403	-0.03
820.834	-0.03
821.266	-0.02
821.697	-0.02
822.129	-0.02
822.56	-0.02
822.991	-0.02
823.423	-0.02
823.854	-0.02
824.286	-0.02
824.717	-0.02
825.148	-0.02
825.579	-0.02
826.01	-0.02
826.442	-0.02
826.873	-0.02
827.304	-0.01
827.735	-0.01
828.166	-0.01
828.597	-0.01
829.028	-0.01
829.459	-0.01
829.89	-0.01
830.321	-0.01
830.752	-0.01
831.183	-0.01
831.613	-0.01
832.044	-0.01
832.475	-0.01
832.906	-0.01
833.336	-0.01
833.767	-0.01
834.198	-0.01
834.628	-0.01
835.059	-0.01
835.49	-0.01
835.92	-0.01
836.351	-0.01
836.781	-0.01
837.212	-0.01
837.642	-0.01
838.072	-0.01
838.503	-0.01
838.933	-0.01
839.364	-0.01
839.794	-0.01
840.224	-0.01
840.654	-0.01
841.085	-0.01
841.515	-0.01
841.945	-0.01
842.375	-0.01
842.805	-0.01
843.235	-0.01
843.665	-0.01
844.095	-0.01
844.525	-0.01
844.955	-0.01
845.385	-0.01
845.815	-0.01
846.245	-0.01
846.675	-0.01
847.105	-0.01
847.534	-0.01
847.964	-0.01
848.394	-0.01
848.824	-0.01
849.253	-0.01
849.683	-0.01
850.112	-0.01
850.542	-0.01
850.972	-0.01
851.401	-0.01
851.831	-0.01
852.26	-0.01
852.69	-0.01
853.119	-0.01
853.548	-0.01
853.978	-0.01
854.407	-0.01
854.836	-0.01
855.266	-0.01
855.695	-0.01
856.124	-0.01
856.553	-0.01
856.983	-0.01
857.412	-0.01
857.841	-0.01
858.27	-0.01
858.699	-0.01
859.128	-0.01
859.557	-0.01
859.986	-0
860.415	-0
860.844	-0
861.273	-0
861.702	-0
862.13	-0
862.559	-0
862.988	-0.01
863.417	-0.01
863.845	-0.01
864.274	-0.01
864.703	-0.01
865.131	-0.01
865.56	-0.01
865.989	-0.01
866.417	-0.01
866.846	-0.01
867.274	-0.01
867.703	-0.01
868.131	-0.01
868.559	-0.01
868.988	-0.01
869.416	-0.01
869.844	-0.01
870.273	-0.01
870.701	-0.01
871.129	-0.01
871.557	-0.01
871.986	-0.01
872.414	-0.02
872.842	-0.02
873.27	-0.02
873.698	-0.02
874.126	-0.02
874.554	-0.02
874.982	-0.02
875.41	-0.02
875.838	-0.02
876.266	-0.02
876.694	-0.02
877.122	-0.02
877.549	-0.02
877.977	-0.02
878.405	-0.02
878.833	-0.02
879.26	-0.02
879.688	-0.02
880.116	-0.02
880.543	-0.02
880.971	-0.02
881.399	-0.02
881.826	-0.02
882.254	-0.02
882.681	-0.02
883.109	-0.02
883.536	-0.02
883.963	-0.02
884.391	-0.02
884.818	-0.02
885.245	-0.02
885.673	-0.02
886.1	-0.01
886.527	-0.01
886.954	-0.01
887.381	-0.01
887.809	-0.01
888.236	-0.01
888.663	-0.01
889.09	-0.01
889.517	-0.01
889.944	-0.01
890.371	-0.01
890.798	-0.01
891.225	-0.01
891.652	-0.01
892.078	-0.01
892.505	-0.01
892.932	-0.01
893.359	-0.01
893.786	-0.02
894.212	-0.02
894.639	-0.02
895.066	-0.02
895.492	-0.02
895.919	-0.02
896.346	-0.02
896.772	-0.02
897.199	-0.02
897.625	-0.02
898.052	-0.02
898.478	-0.03
898.904	-0.03
899.331	-0.03
899.757	-0.03
900.183	-0.03
900.61	-0.03
901.036	-0.03
901.462	-0.03
901.888	-0.03
902.315	-0.03
902.741	-0.02
903.167	-0.02
903.593	-0.02
904.019	-0.02
904.445	-0.02
904.871	-0.02
905.297	-0.02
905.723	-0.02
906.149	-0.02
906.575	-0.02
907.001	-0.02
907.427	-0.02
907.852	-0.02
908.278	-0.02
908.704	-0.02
909.13	-0.02
909.555	-0.02
909.981	-0.02
910.407	-0.02
910.832	-0.02
911.258	-0.02
911.684	-0.02
912.109	-0.02
912.535	-0.02
912.96	-0.02
913.386	-0.02
913.811	-0.02
914.236	-0.02
914.662	-0.02
915.087	-0.02
915.512	-0.02
915.938	-0.02
916.363	-0.02
916.788	-0.02
917.213	-0.02
917.639	-0.02
918.064	-0.02
918.489	-0.02
918.914	-0.02
919.339	-0.02
919.764	-0.02
920.189	-0.02
920.614	-0.02
921.039	-0.02
921.464	-0.02
921.889	-0.02
922.314	-0.02
922.738	-0.02
923.163	-0.01
923.588	-0.01
924.013	-0.01
924.437	-0.01
924.862	-0.01
925.287	-0.01
925.711	-0.01
926.136	-0.01
926.561	-0.01
926.985	-0.01
927.41	-0.01
927.834	-0.01
928.259	-0.02
928.683	-0.02
929.108	-0.02
929.532	-0.02
929.956	-0.02
930.381	-0.02
930.805	-0.02
931.229	-0.02
931.653	-0.02
932.078	-0.02
932.502	-0.02
932.926	-0.02
933.35	-0.02
933.774	-0.02
934.198	-0.02
934.622	-0.02
935.046	-0.02
935.47	-0.02
935.894	-0.02
936.318	-0.02
936.742	-0.02
937.166	-0.02
937.59	-0.02
938.014	-0.02
938.437	-0.02
938.861	-0.02
939.285	-0.02
939.709	-0.02
940.132	-0.02
940.556	-0.02
940.98	-0.02
941.403	-0.02
941.827	-0.02
942.25	-0.03
942.674	-0.03
943.097	-0.03
943.521	-0.03
943.944	-0.03
944.368	-0.03
944.791	-0.03
945.214	-0.03
945.638	-0.03
946.061	-0.03
946.484	-0.03
946.907	-0.03
947.331	-0.03
947.754	-0.03
948.177	-0.03
948.6	-0.03
949.023	-0.03
949.446	-0.03
949.869	-0.03
950.292	-0.03
950.715	-0.03
951.138	-0.03
951.561	-0.03
951.984	-0.03
952.407	-0.03
952.83	-0.03
953.252	-0.03
953.675	-0.03
954.098	-0.03
954.521	-0.03
954.943	-0.03
955.366	-0.03
955.789	-0.03
956.211	-0.03
956.634	-0.03
957.056	-0.03
957.479	-0.03
957.902	-0.03
958.324	-0.02
958.746	-0.02
959.169	-0.02
959.591	-0.02
960.014	-0.02
960.436	-0.02
960.858	-0.02
961.281	-0.02
961.703	-0.02
962.125	-0.02
962.547	-0.01
962.969	-0.01
963.391	-0.01
963.814	-0.01
964.236	-0.01
964.658	-0.01
965.08	-0.01
965.502	-0.01
965.924	-0.01
966.346	-0.01
966.768	-0.01
967.189	-0.01
967.611	-0.01
968.033	-0.01
968.455	-0.01
968.877	-0.01
969.298	-0.02
969.72	-0.02
970.142	-0.02
970.563	-0.02
970.985	-0.02
971.407	-0.02
971.828	-0.02
972.25	-0.02
972.671	-0.02
973.093	-0.02
973.514	-0.02
973.936	-0.02
974.357	-0.02
974.778	-0.02
975.2	-0.02
975.621	-0.02
976.042	-0.02
976.464	-0.02
976.885	-0.02
977.306	-0.02
977.727	-0.02
978.148	-0.02
978.57	-0.02
978.991	-0.02
979.412	-0.02
979.833	-0.02
980.254	-0.02
980.675	-0.01
981.096	-0.01
981.517	-0.01
981.937	-0.01
982.358	-0.01
982.779	-0.02
983.2	-0.02
983.621	-0.02
984.042	-0.02
984.462	-0.02
984.883	-0.02
985.304	-0.02
985.724	-0.02
986.145	-0.02
986.565	-0.02
986.986	-0.02
987.407	-0.02
987.827	-0.02
988.248	-0.02
988.668	-0.02
989.088	-0.02
989.509	-0.02
989.929	-0.02
990.35	-0.02
990.77	-0.02
991.19	-0.02
991.61	-0.02
992.031	-0.03
992.451	-0.03
992.871	-0.03
993.291	-0.03
993.711	-0.03
994.131	-0.03
994.551	-0.03
994.971	-0.03
995.391	-0.03
995.811	-0.03
996.231	-0.03
996.651	-0.03
997.071	-0.03
997.491	-0.02
997.911	-0.02
998.331	-0.02
998.75	-0.02
999.17	-0.02
999.59	-0.02
1000.009	-0.02
1000.429	-0.02
1000.849	-0.02
1001.268	-0.02
1001.688	-0.02
1002.107	-0.02
1002.527	-0.02
1002.946	-0.02
1003.366	-0.02
1003.785	-0.02
1004.205	-0.02
1004.624	-0.02
1005.044	-0.02
1005.463	-0.02
1005.882	-0.02
1006.301	-0.02
1006.721	-0.02
1007.14	-0.02
1007.559	-0.02
1007.978	-0.02
1008.397	-0.02
1008.816	-0.02
1009.235	-0.02
1009.655	-0.02
1010.074	-0.02
1010.492	-0.03
1010.911	-0.03
1011.33	-0.03
1011.749	-0.03
1012.168	-0.03
1012.587	-0.03
1013.006	-0.03
1013.425	-0.03
1013.843	-0.03
1014.262	-0.03
1014.681	-0.03
1015.099	-0.03
1015.518	-0.03
1015.937	-0.03
1016.355	-0.03
1016.774	-0.03
1017.192	-0.03
1017.611	-0.03
1018.029	-0.03
1018.448	-0.03
1018.866	-0.03
1019.285	-0.03
1019.703	-0.03
1020.121	-0.03
1020.54	-0.03
1020.958	-0.03
1021.376	-0.03
1021.794	-0.03
1022.213	-0.03
1022.631	-0.03
1023.049	-0.03
1023.467	-0.03
1023.885	-0.03
1024.303	-0.03
1024.721	-0.03
1025.139	-0.03
1025.557	-0.03
1025.975	-0.03
1026.393	-0.03
1026.811	-0.03
1027.229	-0.03
1027.647	-0.03
1028.065	-0.03
1028.482	-0.03
1028.9	-0.03
1029.318	-0.03
1029.735	-0.03
1030.153	-0.03
1030.571	-0.03
1030.988	-0.03
1031.406	-0.03
1031.823	-0.02
1032.241	-0.02
1032.659	-0.02
1033.076	-0.02
1033.493	-0.02
1033.911	-0.02
1034.328	-0.02
1034.746	-0.02
1035.163	-0.02
1035.58	-0.02
1035.997	-0.02
1036.415	-0.02
1036.832	-0.02
1037.249	-0.02
1037.666	-0.02
1038.083	-0.02
1038.501	-0.02
1038.918	-0.02
1039.335	-0.02
1039.752	-0.02
1040.169	-0.02
1040.586	-0.02
1041.003	-0.02
1041.419	-0.02
1041.836	-0.02
1042.253	-0.02
1042.67	-0.02
1043.087	-0.02
1043.504	-0.02
1043.92	-0.02
1044.337	-0.02
1044.754	-0.02
1045.17	-0.02
1045.587	-0.02
1046.004	-0.02
1046.42	-0.02
1046.837	-0.02
1047.253	-0.02
1047.67	-0.02
1048.086	-0.02
1048.503	-0.02
1048.919	-0.02
1049.335	-0.02
1049.752	-0.02
1050.168	-0.02
1050.584	-0.02
1051.001	-0.02
1051.417	-0.02
1051.833	-0.02
1052.249	-0.02
1052.665	-0.02
1053.081	-0.02
1053.497	-0.02
1053.914	-0.02
1054.33	-0.02
1054.746	-0.03
1055.162	-0.03
1055.578	-0.03
1055.993	-0.03
1056.409	-0.03
1056.825	-0.03
1057.241	-0.03
1057.657	-0.03
1058.073	-0.03
1058.488	-0.03
1058.904	-0.04
1059.32	-0.04
1059.736	-0.04
1060.151	-0.04
1060.567	-0.04
1060.982	-0.04
1061.398	-0.04
1061.813	-0.04
1062.229	-0.04
1062.644	-0.04
1063.06	-0.04
1063.475	-0.04
1063.891	-0.04
1064.306	-0.04
1064.721	-0.04
1065.137	-0.04
1065.552	-0.04
1065.967	-0.04
1066.382	-0.04
1066.798	-0.04
1067.213	-0.04
1067.628	-0.04
1068.043	-0.04
1068.458	-0.04
1068.873	-0.04
1069.288	-0.04
1069.703	-0.04
1070.118	-0.04
1070.533	-0.04
1070.948	-0.04
1071.363	-0.04
1071.778	-0.04
1072.193	-0.04
1072.607	-0.04
1073.022	-0.04
1073.437	-0.04
1073.852	-0.04
1074.266	-0.04
1074.681	-0.04
1075.096	-0.04
1075.51	-0.04
1075.925	-0.04
1076.339	-0.04
1076.754	-0.04
1077.168	-0.05
1077.583	-0.05
1077.997	-0.05
1078.412	-0.05
1078.826	-0.05
1079.24	-0.05
1079.655	-0.05
1080.069	-0.04
1080.483	-0.04
1080.897	-0.04
1081.312	-0.04
1081.726	-0.04
1082.14	-0.04
1082.554	-0.04
1082.968	-0.04
1083.382	-0.04
1083.796	-0.04
1084.21	-0.04
1084.624	-0.04
1085.038	-0.04
1085.452	-0.04
1085.866	-0.04
1086.28	-0.04
1086.694	-0.04
1087.108	-0.04
1087.521	-0.04
1087.935	-0.04
1088.349	-0.04
1088.763	-0.04
1089.176	-0.04
1089.59	-0.04
1090.004	-0.04
1090.417	-0.04
1090.831	-0.04
1091.244	-0.04
1091.658	-0.04
1092.071	-0.05
1092.485	-0.05
1092.898	-0.05
1093.312	-0.05
1093.725	-0.05
1094.138	-0.05
1094.552	-0.05
1094.965	-0.05
1095.378	-0.05
1095.791	-0.05
1096.205	-0.05
1096.618	-0.05
1097.031	-0.05
1097.444	-0.05
1097.857	-0.05
1098.27	-0.05
1098.683	-0.05
1099.096	-0.05
1099.509	-0.05
1099.922	-0.06
1100.335	-0.06
1100.748	-0.06
1101.161	-0.06
1101.574	-0.06
1101.986	-0.06
1102.399	-0.06
1102.812	-0.06
1103.225	-0.06
1103.637	-0.06
1104.05	-0.06
1104.463	-0.06
1104.875	-0.06
1105.288	-0.06
1105.7	-0.07
1106.113	-0.07
1106.525	-0.07
1106.938	-0.07
1107.35	-0.07
1107.763	-0.07
1108.175	-0.08
1108.588	-0.08
1109	-0.08
1109.412	-0.08
1109.824	-0.08
1110.237	-0.08
1110.649	-0.08
1111.061	-0.08
