Data from 2024-02-06-100ns-20nr-25nacl-100h2o-7bp2-1_5a808-40to10hyt-0_5cpm_Absorbance__66__00193.txt Node

Date: Tue Feb 06 12:40:51 CET 2024
User: Laser008
Spectrometer: MAYP115816
Trigger mode: 0
Integration Time (sec): 2.000000E-1
Scans to average: 10
Electric dark correction enabled: true
Nonlinearity correction enabled: true
Boxcar width: 5
XAxis mode: Wavelengths
Number of Pixels in Spectrum: 2068
>>>>>Begin Spectral Data<<<<<
198.914	-0.31
199.384	-0.27
199.855	-0.22
200.325	-0.18
200.796	-0.15
201.266	-0.13
201.737	-0.12
202.207	-0.12
202.677	-0.11
203.147	-0.11
203.618	-0.1
204.088	-0.08
204.558	-0.08
205.028	-0.07
205.498	-0.07
205.968	-0.07
206.439	-0.08
206.909	-0.07
207.379	-0.07
207.849	-0.07
208.319	-0.07
208.789	-0.07
209.258	-0.08
209.728	-0.08
210.198	-0.08
210.668	-0.08
211.138	-0.08
211.608	-0.08
212.077	-0.09
212.547	-0.09
213.017	-0.09
213.486	-0.09
213.956	-0.09
214.426	-0.09
214.895	-0.08
215.365	-0.09
215.834	-0.09
216.304	-0.09
216.773	-0.08
217.243	-0.08
217.712	-0.08
218.181	-0.08
218.651	-0.07
219.12	-0.07
219.589	-0.07
220.058	-0.07
220.528	-0.07
220.997	-0.07
221.466	-0.07
221.935	-0.07
222.404	-0.07
222.873	-0.06
223.342	-0.06
223.812	-0.06
224.281	-0.06
224.749	-0.05
225.218	-0.05
225.687	-0.04
226.156	-0.04
226.625	-0.03
227.094	-0.02
227.563	-0.01
228.031	-0.01
228.5	0
228.969	0.02
229.438	0.03
229.906	0.04
230.375	0.06
230.844	0.08
231.312	0.09
231.781	0.11
232.249	0.12
232.718	0.14
233.186	0.16
233.655	0.17
234.123	0.18
234.591	0.2
235.06	0.21
235.528	0.22
235.996	0.23
236.465	0.23
236.933	0.24
237.401	0.25
237.869	0.25
238.337	0.26
238.805	0.26
239.274	0.27
239.742	0.27
240.21	0.27
240.678	0.28
241.146	0.28
241.614	0.28
242.081	0.29
242.549	0.29
243.017	0.29
243.485	0.29
243.953	0.29
244.421	0.3
244.888	0.3
245.356	0.3
245.824	0.3
246.291	0.3
246.759	0.3
247.227	0.31
247.694	0.31
248.162	0.31
248.629	0.31
249.097	0.31
249.564	0.32
250.032	0.32
250.499	0.32
250.967	0.32
251.434	0.32
251.901	0.33
252.369	0.33
252.836	0.33
253.303	0.33
253.77	0.33
254.237	0.33
254.705	0.33
255.172	0.33
255.639	0.34
256.106	0.34
256.573	0.34
257.04	0.34
257.507	0.34
257.974	0.34
258.441	0.34
258.908	0.34
259.375	0.34
259.841	0.34
260.308	0.34
260.775	0.34
261.242	0.34
261.709	0.34
262.175	0.34
262.642	0.34
263.109	0.34
263.575	0.34
264.042	0.34
264.508	0.34
264.975	0.34
265.441	0.34
265.908	0.34
266.374	0.34
266.841	0.34
267.307	0.34
267.773	0.33
268.24	0.33
268.706	0.33
269.172	0.33
269.639	0.33
270.105	0.33
270.571	0.32
271.037	0.32
271.503	0.32
271.969	0.32
272.435	0.32
272.902	0.32
273.368	0.31
273.834	0.31
274.3	0.31
274.765	0.31
275.231	0.31
275.697	0.31
276.163	0.3
276.629	0.3
277.095	0.3
277.56	0.3
278.026	0.3
278.492	0.29
278.958	0.29
279.423	0.29
279.889	0.29
280.354	0.28
280.82	0.28
281.286	0.28
281.751	0.28
282.217	0.28
282.682	0.27
283.147	0.27
283.613	0.27
284.078	0.27
284.544	0.27
285.009	0.27
285.474	0.26
285.939	0.26
286.405	0.26
286.87	0.26
287.335	0.26
287.8	0.26
288.265	0.26
288.73	0.25
289.195	0.25
289.66	0.25
290.125	0.25
290.59	0.25
291.055	0.25
291.52	0.25
291.985	0.25
292.45	0.24
292.915	0.24
293.38	0.24
293.844	0.24
294.309	0.24
294.774	0.24
295.239	0.24
295.703	0.24
296.168	0.24
296.632	0.24
297.097	0.24
297.562	0.24
298.026	0.24
298.491	0.23
298.955	0.23
299.419	0.23
299.884	0.23
300.348	0.23
300.813	0.23
301.277	0.23
301.741	0.23
302.205	0.23
302.67	0.23
303.134	0.23
303.598	0.23
304.062	0.23
304.526	0.23
304.99	0.23
305.454	0.23
305.919	0.23
306.383	0.23
306.847	0.23
307.31	0.23
307.774	0.23
308.238	0.23
308.702	0.23
309.166	0.23
309.63	0.23
310.094	0.23
310.557	0.23
311.021	0.23
311.485	0.22
311.948	0.22
312.412	0.22
312.876	0.22
313.339	0.22
313.803	0.22
314.266	0.22
314.73	0.22
315.193	0.22
315.657	0.22
316.12	0.22
316.584	0.22
317.047	0.22
317.51	0.22
317.973	0.22
318.437	0.22
318.9	0.22
319.363	0.22
319.826	0.22
320.29	0.22
320.753	0.22
321.216	0.22
321.679	0.22
322.142	0.22
322.605	0.22
323.068	0.22
323.531	0.22
323.994	0.22
324.457	0.22
324.92	0.22
325.382	0.22
325.845	0.22
326.308	0.21
326.771	0.21
327.233	0.21
327.696	0.21
328.159	0.21
328.622	0.21
329.084	0.21
329.547	0.21
330.009	0.21
330.472	0.21
330.934	0.21
331.397	0.21
331.859	0.21
332.322	0.21
332.784	0.21
333.246	0.21
333.709	0.21
334.171	0.21
334.633	0.21
335.096	0.21
335.558	0.21
336.02	0.21
336.482	0.21
336.944	0.21
337.406	0.21
337.868	0.21
338.331	0.21
338.793	0.21
339.255	0.21
339.717	0.21
340.178	0.2
340.64	0.2
341.102	0.2
341.564	0.2
342.026	0.2
342.488	0.2
342.949	0.2
343.411	0.2
343.873	0.2
344.335	0.2
344.796	0.2
345.258	0.2
345.719	0.2
346.181	0.2
346.643	0.2
347.104	0.2
347.566	0.2
348.027	0.2
348.488	0.2
348.95	0.2
349.411	0.2
349.873	0.2
350.334	0.2
350.795	0.2
351.256	0.2
351.718	0.2
352.179	0.2
352.64	0.2
353.101	0.2
353.562	0.2
354.023	0.2
354.484	0.2
354.945	0.2
355.406	0.2
355.867	0.2
356.328	0.2
356.789	0.2
357.25	0.2
357.711	0.2
358.172	0.2
358.633	0.2
359.093	0.2
359.554	0.2
360.015	0.2
360.476	0.2
360.936	0.2
361.397	0.2
361.858	0.2
362.318	0.2
362.779	0.2
363.239	0.2
363.7	0.2
364.16	0.2
364.621	0.2
365.081	0.2
365.541	0.2
366.002	0.2
366.462	0.2
366.922	0.2
367.383	0.2
367.843	0.2
368.303	0.2
368.763	0.2
369.223	0.2
369.684	0.2
370.144	0.2
370.604	0.2
371.064	0.2
371.524	0.2
371.984	0.2
372.444	0.2
372.904	0.2
373.363	0.2
373.823	0.2
374.283	0.2
374.743	0.2
375.203	0.2
375.663	0.2
376.122	0.2
376.582	0.2
377.042	0.2
377.501	0.2
377.961	0.2
378.42	0.19
378.88	0.19
379.34	0.19
379.799	0.19
380.259	0.19
380.718	0.19
381.177	0.19
381.637	0.19
382.096	0.19
382.555	0.19
383.015	0.19
383.474	0.19
383.933	0.19
384.393	0.19
384.852	0.19
385.311	0.19
385.77	0.19
386.229	0.19
386.688	0.19
387.147	0.19
387.606	0.19
388.065	0.19
388.524	0.19
388.983	0.19
389.442	0.19
389.901	0.19
390.36	0.19
390.819	0.19
391.277	0.19
391.736	0.19
392.195	0.19
392.654	0.19
393.112	0.19
393.571	0.19
394.03	0.19
394.488	0.19
394.947	0.19
395.405	0.19
395.864	0.19
396.322	0.19
396.781	0.19
397.239	0.19
397.698	0.19
398.156	0.19
398.614	0.19
399.073	0.19
399.531	0.19
399.989	0.19
400.447	0.19
400.905	0.19
401.364	0.19
401.822	0.19
402.28	0.19
402.738	0.19
403.196	0.19
403.654	0.19
404.112	0.19
404.57	0.19
405.028	0.19
405.486	0.19
405.944	0.19
406.402	0.19
406.859	0.19
407.317	0.19
407.775	0.19
408.233	0.19
408.691	0.19
409.148	0.19
409.606	0.19
410.064	0.19
410.521	0.19
410.979	0.18
411.436	0.18
411.894	0.18
412.351	0.18
412.809	0.18
413.266	0.18
413.724	0.18
414.181	0.18
414.638	0.18
415.096	0.18
415.553	0.18
416.01	0.18
416.467	0.18
416.925	0.18
417.382	0.18
417.839	0.18
418.296	0.18
418.753	0.18
419.21	0.18
419.667	0.18
420.124	0.18
420.581	0.18
421.038	0.18
421.495	0.18
421.952	0.18
422.409	0.18
422.866	0.18
423.322	0.18
423.779	0.18
424.236	0.18
424.693	0.18
425.149	0.18
425.606	0.18
426.063	0.18
426.519	0.18
426.976	0.18
427.433	0.18
427.889	0.18
428.346	0.18
428.802	0.18
429.258	0.18
429.715	0.18
430.171	0.18
430.628	0.18
431.084	0.18
431.54	0.18
431.997	0.18
432.453	0.18
432.909	0.18
433.365	0.18
433.821	0.18
434.277	0.18
434.734	0.18
435.19	0.18
435.646	0.18
436.102	0.18
436.558	0.18
437.014	0.18
437.47	0.18
437.925	0.17
438.381	0.17
438.837	0.17
439.293	0.17
439.749	0.17
440.205	0.17
440.66	0.17
441.116	0.17
441.572	0.17
442.027	0.17
442.483	0.17
442.939	0.17
443.394	0.17
443.85	0.17
444.305	0.17
444.761	0.17
445.216	0.17
445.672	0.17
446.127	0.17
446.582	0.17
447.038	0.17
447.493	0.17
447.948	0.17
448.403	0.17
448.859	0.17
449.314	0.17
449.769	0.17
450.224	0.17
450.679	0.17
451.134	0.17
451.589	0.17
452.044	0.17
452.499	0.17
452.954	0.17
453.409	0.17
453.864	0.17
454.319	0.17
454.774	0.17
455.229	0.17
455.684	0.17
456.138	0.17
456.593	0.17
457.048	0.17
457.503	0.17
457.957	0.17
458.412	0.17
458.866	0.17
459.321	0.17
459.776	0.17
460.23	0.17
460.685	0.17
461.139	0.17
461.593	0.17
462.048	0.17
462.502	0.17
462.957	0.17
463.411	0.17
463.865	0.17
464.319	0.17
464.774	0.17
465.228	0.17
465.682	0.17
466.136	0.17
466.59	0.17
467.044	0.17
467.499	0.17
467.953	0.16
468.407	0.16
468.861	0.17
469.315	0.16
469.768	0.17
470.222	0.16
470.676	0.16
471.13	0.16
471.584	0.16
472.038	0.16
472.491	0.16
472.945	0.17
473.399	0.17
473.852	0.17
474.306	0.17
474.76	0.16
475.213	0.17
475.667	0.17
476.12	0.17
476.574	0.17
477.027	0.17
477.481	0.17
477.934	0.17
478.388	0.17
478.841	0.17
479.294	0.17
479.748	0.17
480.201	0.17
480.654	0.17
481.107	0.17
481.561	0.17
482.014	0.17
482.467	0.17
482.92	0.17
483.373	0.17
483.826	0.17
484.279	0.17
484.732	0.17
485.185	0.17
485.638	0.17
486.091	0.17
486.544	0.17
486.997	0.17
487.449	0.17
487.902	0.17
488.355	0.17
488.808	0.17
489.26	0.17
489.713	0.17
490.166	0.17
490.618	0.17
491.071	0.18
491.523	0.18
491.976	0.18
492.429	0.18
492.881	0.18
493.333	0.18
493.786	0.18
494.238	0.18
494.691	0.18
495.143	0.18
495.595	0.18
496.048	0.18
496.5	0.18
496.952	0.18
497.404	0.18
497.856	0.18
498.309	0.19
498.761	0.19
499.213	0.19
499.665	0.19
500.117	0.19
500.569	0.19
501.021	0.19
501.473	0.19
501.925	0.19
502.377	0.2
502.828	0.2
503.28	0.2
503.732	0.2
504.184	0.2
504.636	0.2
505.087	0.2
505.539	0.2
505.991	0.2
506.442	0.2
506.894	0.2
507.345	0.21
507.797	0.21
508.249	0.21
508.7	0.21
509.151	0.21
509.603	0.21
510.054	0.21
510.506	0.21
510.957	0.21
511.408	0.21
511.86	0.21
512.311	0.22
512.762	0.22
513.213	0.22
513.665	0.22
514.116	0.22
514.567	0.22
515.018	0.22
515.469	0.22
515.92	0.22
516.371	0.22
516.822	0.22
517.273	0.22
517.724	0.23
518.175	0.23
518.626	0.23
519.076	0.23
519.527	0.23
519.978	0.23
520.429	0.23
520.88	0.23
521.33	0.23
521.781	0.23
522.232	0.23
522.682	0.23
523.133	0.23
523.583	0.24
524.034	0.24
524.484	0.24
524.935	0.24
525.385	0.24
525.836	0.24
526.286	0.24
526.736	0.24
527.187	0.24
527.637	0.24
528.087	0.24
528.538	0.24
528.988	0.24
529.438	0.24
529.888	0.25
530.338	0.25
530.788	0.25
531.238	0.25
531.688	0.25
532.139	0.25
532.589	0.25
533.038	0.25
533.488	0.25
533.938	0.25
534.388	0.25
534.838	0.25
535.288	0.25
535.738	0.25
536.187	0.25
536.637	0.25
537.087	0.25
537.537	0.25
537.986	0.26
538.436	0.26
538.885	0.26
539.335	0.26
539.785	0.26
540.234	0.26
540.684	0.26
541.133	0.26
541.582	0.26
542.032	0.26
542.481	0.26
542.931	0.26
543.38	0.26
543.829	0.26
544.278	0.26
544.728	0.26
545.177	0.26
545.626	0.26
546.075	0.26
546.524	0.26
546.973	0.26
547.422	0.26
547.871	0.27
548.32	0.27
548.769	0.27
549.218	0.27
549.667	0.27
550.116	0.27
550.565	0.27
551.014	0.27
551.463	0.27
551.911	0.27
552.36	0.27
552.809	0.27
553.258	0.27
553.706	0.27
554.155	0.27
554.603	0.27
555.052	0.27
555.501	0.27
555.949	0.27
556.398	0.27
556.846	0.27
557.294	0.27
557.743	0.27
558.191	0.27
558.64	0.27
559.088	0.27
559.536	0.27
559.985	0.27
560.433	0.27
560.881	0.27
561.329	0.27
561.777	0.27
562.225	0.27
562.674	0.27
563.122	0.27
563.57	0.27
564.018	0.27
564.466	0.27
564.914	0.27
565.362	0.27
565.809	0.27
566.257	0.27
566.705	0.27
567.153	0.27
567.601	0.27
568.048	0.27
568.496	0.27
568.944	0.27
569.392	0.27
569.839	0.27
570.287	0.27
570.734	0.27
571.182	0.27
571.63	0.27
572.077	0.27
572.525	0.27
572.972	0.27
573.419	0.27
573.867	0.27
574.314	0.27
574.761	0.27
575.209	0.27
575.656	0.27
576.103	0.27
576.551	0.27
576.998	0.27
577.445	0.27
577.892	0.27
578.339	0.27
578.786	0.27
579.233	0.27
579.68	0.27
580.127	0.27
580.574	0.26
581.021	0.26
581.468	0.26
581.915	0.26
582.362	0.26
582.809	0.26
583.255	0.26
583.702	0.26
584.149	0.26
584.596	0.26
585.042	0.26
585.489	0.26
585.936	0.26
586.382	0.25
586.829	0.25
587.275	0.25
587.722	0.25
588.168	0.25
588.615	0.25
589.061	0.25
589.508	0.25
589.954	0.25
590.4	0.25
590.847	0.25
591.293	0.25
591.739	0.25
592.185	0.25
592.632	0.24
593.078	0.24
593.524	0.24
593.97	0.24
594.416	0.24
594.862	0.24
595.308	0.24
595.754	0.24
596.2	0.24
596.646	0.24
597.092	0.24
597.538	0.23
597.984	0.23
598.43	0.23
598.876	0.23
599.321	0.23
599.767	0.23
600.213	0.23
600.659	0.23
601.104	0.23
601.55	0.23
601.995	0.23
602.441	0.23
602.887	0.22
603.332	0.22
603.778	0.22
604.223	0.22
604.668	0.22
605.114	0.22
605.559	0.22
606.005	0.22
606.45	0.22
606.895	0.22
607.341	0.22
607.786	0.21
608.231	0.21
608.676	0.21
609.121	0.21
609.566	0.21
610.012	0.21
610.457	0.21
610.902	0.21
611.347	0.21
611.792	0.21
612.237	0.2
612.682	0.2
613.127	0.2
613.571	0.2
614.016	0.2
614.461	0.2
614.906	0.2
615.351	0.2
615.795	0.2
616.24	0.2
616.685	0.2
617.129	0.19
617.574	0.19
618.019	0.19
618.463	0.19
618.908	0.19
619.352	0.19
619.797	0.19
620.241	0.19
620.686	0.19
621.13	0.19
621.574	0.19
622.019	0.19
622.463	0.19
622.907	0.19
623.352	0.19
623.796	0.18
624.24	0.18
624.684	0.18
625.128	0.18
625.572	0.18
626.016	0.18
626.461	0.18
626.905	0.18
627.349	0.18
627.793	0.18
628.236	0.18
628.68	0.18
629.124	0.18
629.568	0.18
630.012	0.18
630.456	0.17
630.9	0.17
631.343	0.17
631.787	0.17
632.231	0.17
632.674	0.17
633.118	0.17
633.562	0.17
634.005	0.17
634.449	0.17
634.892	0.17
635.336	0.17
635.779	0.17
636.223	0.17
636.666	0.17
637.109	0.17
637.553	0.17
637.996	0.17
638.439	0.17
638.883	0.17
639.326	0.17
639.769	0.17
640.212	0.17
640.655	0.17
641.099	0.17
641.542	0.17
641.985	0.17
642.428	0.17
642.871	0.17
643.314	0.18
643.757	0.18
644.2	0.18
644.643	0.18
645.085	0.18
645.528	0.18
645.971	0.18
646.414	0.18
646.857	0.18
647.299	0.18
647.742	0.18
648.185	0.18
648.627	0.19
649.07	0.19
649.513	0.19
649.955	0.19
650.398	0.19
650.84	0.19
651.283	0.19
651.725	0.19
652.168	0.19
652.61	0.2
653.052	0.2
653.495	0.2
653.937	0.16
654.379	0.12
654.821	0.13
655.264	0.13
655.706	0.13
656.148	0.13
656.59	0.13
657.032	0.13
657.474	0.13
657.916	0.13
658.358	0.13
658.8	0.16
659.242	0.21
659.684	0.22
660.126	0.22
660.568	0.22
661.01	0.22
661.452	0.22
661.894	0.22
662.335	0.23
662.777	0.23
663.219	0.23
663.661	0.23
664.102	0.23
664.544	0.23
664.985	0.24
665.427	0.24
665.869	0.24
666.31	0.24
666.752	0.24
667.193	0.24
667.634	0.25
668.076	0.25
668.517	0.25
668.959	0.25
669.4	0.25
669.841	0.25
670.282	0.26
670.724	0.26
671.165	0.26
671.606	0.26
672.047	0.26
672.488	0.26
672.929	0.26
673.37	0.26
673.811	0.27
674.252	0.27
674.693	0.27
675.134	0.27
675.575	0.27
676.016	0.27
676.457	0.28
676.898	0.28
677.339	0.28
677.78	0.28
678.22	0.28
678.661	0.28
679.102	0.28
679.542	0.28
679.983	0.28
680.424	0.28
680.864	0.28
681.305	0.28
681.745	0.29
682.186	0.29
682.626	0.29
683.067	0.29
683.507	0.29
683.948	0.29
684.388	0.29
684.828	0.29
685.269	0.29
685.709	0.3
686.149	0.3
686.589	0.3
687.029	0.3
687.47	0.3
687.91	0.3
688.35	0.3
688.79	0.3
689.23	0.3
689.67	0.3
690.11	0.3
690.55	0.3
690.99	0.3
691.43	0.3
691.87	0.3
692.31	0.3
692.749	0.3
693.189	0.3
693.629	0.3
694.069	0.3
694.508	0.3
694.948	0.3
695.388	0.3
695.827	0.3
696.267	0.3
696.706	0.3
697.146	0.3
697.586	0.3
698.025	0.3
698.464	0.31
698.904	0.31
699.343	0.31
699.783	0.31
700.222	0.31
700.661	0.31
701.101	0.31
701.54	0.31
701.979	0.31
702.418	0.31
702.857	0.3
703.297	0.3
703.736	0.3
704.175	0.3
704.614	0.3
705.053	0.3
705.492	0.3
705.931	0.3
706.37	0.3
706.809	0.3
707.248	0.3
707.687	0.3
708.125	0.3
708.564	0.3
709.003	0.3
709.442	0.3
709.88	0.3
710.319	0.3
710.758	0.3
711.196	0.3
711.635	0.3
712.074	0.3
712.512	0.3
712.951	0.3
713.389	0.3
713.828	0.3
714.266	0.3
714.705	0.3
715.143	0.3
715.581	0.3
716.02	0.3
716.458	0.3
716.896	0.29
717.334	0.29
717.773	0.29
718.211	0.29
718.649	0.29
719.087	0.29
719.525	0.29
719.963	0.29
720.401	0.29
720.839	0.29
721.277	0.29
721.715	0.29
722.153	0.29
722.591	0.29
723.029	0.29
723.467	0.29
723.905	0.29
724.342	0.29
724.78	0.29
725.218	0.29
725.656	0.29
726.093	0.29
726.531	0.29
726.969	0.29
727.406	0.29
727.844	0.29
728.281	0.28
728.719	0.28
729.156	0.28
729.594	0.28
730.031	0.28
730.469	0.28
730.906	0.28
731.343	0.28
731.781	0.28
732.218	0.28
732.655	0.28
733.092	0.28
733.53	0.28
733.967	0.28
734.404	0.28
734.841	0.28
735.278	0.27
735.715	0.27
736.152	0.27
736.589	0.27
737.026	0.27
737.463	0.27
737.9	0.27
738.337	0.27
738.774	0.27
739.211	0.26
739.647	0.26
740.084	0.26
740.521	0.26
740.958	0.26
741.394	0.26
741.831	0.26
742.268	0.26
742.704	0.26
743.141	0.26
743.577	0.26
744.014	0.26
744.45	0.26
744.887	0.25
745.323	0.25
745.76	0.25
746.196	0.25
746.632	0.25
747.069	0.25
747.505	0.25
747.941	0.25
748.378	0.25
748.814	0.25
749.25	0.25
749.686	0.25
750.122	0.25
750.558	0.25
750.994	0.24
751.43	0.24
751.866	0.24
752.302	0.24
752.738	0.24
753.174	0.24
753.61	0.24
754.046	0.23
754.482	0.23
754.918	0.23
755.354	0.23
755.789	0.23
756.225	0.23
756.661	0.23
757.096	0.23
757.532	0.23
757.968	0.23
758.403	0.23
758.839	0.23
759.274	0.23
759.71	0.22
760.145	0.22
760.581	0.22
761.016	0.22
761.452	0.22
761.887	0.22
762.322	0.22
762.758	0.21
763.193	0.21
763.628	0.21
764.063	0.21
764.499	0.21
764.934	0.2
765.369	0.2
765.804	0.2
766.239	0.2
766.674	0.2
767.109	0.19
767.544	0.19
767.979	0.19
768.414	0.19
768.849	0.18
769.284	0.18
769.719	0.18
770.154	0.18
770.588	0.17
771.023	0.17
771.458	0.17
771.893	0.16
772.327	0.16
772.762	0.15
773.197	0.15
773.631	0.14
774.066	0.14
774.5	0.13
774.935	0.13
775.369	0.13
775.804	0.12
776.238	0.12
776.673	0.11
777.107	0.11
777.541	0.1
777.976	0.1
778.41	0.09
778.844	0.09
779.279	0.09
779.713	0.08
780.147	0.08
780.581	0.07
781.015	0.07
781.449	0.06
781.883	0.05
782.317	0.05
782.751	0.04
783.185	0.03
783.619	0.03
784.053	0.02
784.487	0.01
784.921	0.01
785.355	-0
785.789	-0.01
786.223	-0.01
786.656	-0.02
787.09	-0.02
787.524	-0.03
787.957	-0.04
788.391	-0.05
788.825	-0.06
789.258	-0.07
789.692	-0.07
790.125	-0.08
790.559	-0.09
790.992	-0.1
791.426	-0.11
791.859	-0.11
792.293	-0.1
792.726	-0.1
793.159	-0.1
793.593	-0.1
794.026	-0.1
794.459	-0.11
794.892	-0.11
795.326	-0.11
795.759	-0.11
796.192	-0.11
796.625	-0.12
797.058	-0.13
797.491	-0.14
797.924	-0.15
798.357	-0.15
798.79	-0.15
799.223	-0.15
799.656	-0.15
800.089	-0.15
800.522	-0.15
800.955	-0.16
801.387	-0.15
801.82	-0.16
802.253	-0.16
802.686	-0.16
803.118	-0.16
803.551	-0.16
803.984	-0.15
804.416	-0.15
804.849	-0.14
805.281	-0.14
805.714	-0.14
806.146	-0.14
806.579	-0.13
807.011	-0.13
807.444	-0.13
807.876	-0.13
808.308	-0.13
808.741	-0.14
809.173	-0.14
809.605	-0.15
810.037	-0.15
810.47	-0.15
810.902	-0.16
811.334	-0.16
811.766	-0.16
812.198	-0.15
812.63	-0.15
813.062	-0.15
813.494	-0.14
813.926	-0.14
814.358	-0.13
814.79	-0.12
815.222	-0.11
815.654	-0.1
816.086	-0.08
816.518	-0.07
816.949	-0.06
817.381	-0.05
817.813	-0.04
818.245	-0.03
818.676	-0.02
819.108	-0.01
819.54	0
819.971	0.01
820.403	0.02
820.834	0.02
821.266	0.03
821.697	0.04
822.129	0.04
822.56	0.05
822.991	0.05
823.423	0.06
823.854	0.06
824.286	0.07
824.717	0.07
825.148	0.07
825.579	0.08
826.01	0.08
826.442	0.08
826.873	0.09
827.304	0.09
827.735	0.09
828.166	0.09
828.597	0.1
829.028	0.1
829.459	0.1
829.89	0.1
830.321	0.1
830.752	0.1
831.183	0.1
831.613	0.1
832.044	0.11
832.475	0.11
832.906	0.11
833.336	0.11
833.767	0.11
834.198	0.11
834.628	0.11
835.059	0.11
835.49	0.11
835.92	0.11
836.351	0.11
836.781	0.11
837.212	0.11
837.642	0.11
838.072	0.12
838.503	0.12
838.933	0.12
839.364	0.12
839.794	0.12
840.224	0.12
840.654	0.12
841.085	0.12
841.515	0.12
841.945	0.12
842.375	0.12
842.805	0.12
843.235	0.11
843.665	0.11
844.095	0.11
844.525	0.11
844.955	0.11
845.385	0.11
845.815	0.11
846.245	0.11
846.675	0.11
847.105	0.11
847.534	0.11
847.964	0.11
848.394	0.11
848.824	0.11
849.253	0.11
849.683	0.11
850.112	0.11
850.542	0.11
850.972	0.11
851.401	0.11
851.831	0.11
852.26	0.11
852.69	0.11
853.119	0.11
853.548	0.11
853.978	0.11
854.407	0.11
854.836	0.11
855.266	0.11
855.695	0.11
856.124	0.11
856.553	0.11
856.983	0.11
857.412	0.11
857.841	0.11
858.27	0.11
858.699	0.11
859.128	0.11
859.557	0.12
859.986	0.12
860.415	0.12
860.844	0.12
861.273	0.12
861.702	0.11
862.13	0.11
862.559	0.11
862.988	0.11
863.417	0.11
863.845	0.11
864.274	0.11
864.703	0.11
865.131	0.11
865.56	0.11
865.989	0.11
866.417	0.11
866.846	0.11
867.274	0.11
867.703	0.11
868.131	0.11
868.559	0.11
868.988	0.11
869.416	0.11
869.844	0.1
870.273	0.1
870.701	0.1
871.129	0.1
871.557	0.1
871.986	0.1
872.414	0.1
872.842	0.1
873.27	0.1
873.698	0.09
874.126	0.09
874.554	0.09
874.982	0.09
875.41	0.09
875.838	0.09
876.266	0.09
876.694	0.09
877.122	0.09
877.549	0.09
877.977	0.09
878.405	0.09
878.833	0.09
879.26	0.09
879.688	0.09
880.116	0.09
880.543	0.09
880.971	0.09
881.399	0.09
881.826	0.09
882.254	0.09
882.681	0.09
883.109	0.09
883.536	0.09
883.963	0.09
884.391	0.09
884.818	0.09
885.245	0.09
885.673	0.09
886.1	0.09
886.527	0.09
886.954	0.09
887.381	0.09
887.809	0.09
888.236	0.09
888.663	0.09
889.09	0.09
889.517	0.09
889.944	0.09
890.371	0.09
890.798	0.09
891.225	0.09
891.652	0.09
892.078	0.09
892.505	0.09
892.932	0.09
893.359	0.08
893.786	0.08
894.212	0.08
894.639	0.08
895.066	0.08
895.492	0.08
895.919	0.08
896.346	0.08
896.772	0.08
897.199	0.08
897.625	0.08
898.052	0.08
898.478	0.07
898.904	0.07
899.331	0.07
899.757	0.07
900.183	0.07
900.61	0.07
901.036	0.07
901.462	0.07
901.888	0.07
902.315	0.07
902.741	0.07
903.167	0.07
903.593	0.07
904.019	0.07
904.445	0.07
904.871	0.07
905.297	0.07
905.723	0.07
906.149	0.07
906.575	0.07
907.001	0.07
907.427	0.07
907.852	0.07
908.278	0.07
908.704	0.07
909.13	0.07
909.555	0.08
909.981	0.08
910.407	0.08
910.832	0.08
911.258	0.08
911.684	0.07
912.109	0.07
912.535	0.07
912.96	0.07
913.386	0.07
913.811	0.07
914.236	0.07
914.662	0.07
915.087	0.07
915.512	0.07
915.938	0.07
916.363	0.07
916.788	0.07
917.213	0.07
917.639	0.07
918.064	0.07
918.489	0.07
918.914	0.07
919.339	0.07
919.764	0.07
920.189	0.07
920.614	0.07
921.039	0.07
921.464	0.07
921.889	0.07
922.314	0.07
922.738	0.07
923.163	0.07
923.588	0.07
924.013	0.07
924.437	0.08
924.862	0.08
925.287	0.08
925.711	0.08
926.136	0.08
926.561	0.08
926.985	0.08
927.41	0.08
927.834	0.08
928.259	0.07
928.683	0.07
929.108	0.07
929.532	0.07
929.956	0.07
930.381	0.07
930.805	0.07
931.229	0.07
931.653	0.07
932.078	0.07
932.502	0.07
932.926	0.07
933.35	0.07
933.774	0.07
934.198	0.07
934.622	0.07
935.046	0.07
935.47	0.07
935.894	0.07
936.318	0.07
936.742	0.06
937.166	0.06
937.59	0.06
938.014	0.06
938.437	0.06
938.861	0.06
939.285	0.06
939.709	0.06
940.132	0.06
940.556	0.06
940.98	0.06
941.403	0.06
941.827	0.06
942.25	0.06
942.674	0.06
943.097	0.06
943.521	0.06
943.944	0.06
944.368	0.06
944.791	0.06
945.214	0.06
945.638	0.06
946.061	0.06
946.484	0.06
946.907	0.06
947.331	0.05
947.754	0.05
948.177	0.05
948.6	0.05
949.023	0.05
949.446	0.05
949.869	0.05
950.292	0.05
950.715	0.05
951.138	0.04
951.561	0.04
951.984	0.04
952.407	0.04
952.83	0.04
953.252	0.04
953.675	0.04
954.098	0.04
954.521	0.04
954.943	0.04
955.366	0.04
955.789	0.04
956.211	0.04
956.634	0.04
957.056	0.05
957.479	0.05
957.902	0.05
958.324	0.05
958.746	0.05
959.169	0.05
959.591	0.05
960.014	0.06
960.436	0.06
960.858	0.06
961.281	0.06
961.703	0.06
962.125	0.06
962.547	0.06
962.969	0.06
963.391	0.06
963.814	0.06
964.236	0.06
964.658	0.06
965.08	0.06
965.502	0.06
965.924	0.06
966.346	0.06
966.768	0.06
967.189	0.06
967.611	0.06
968.033	0.06
968.455	0.06
968.877	0.05
969.298	0.05
969.72	0.05
970.142	0.05
970.563	0.05
970.985	0.05
971.407	0.05
971.828	0.05
972.25	0.05
972.671	0.05
973.093	0.05
973.514	0.05
973.936	0.05
974.357	0.05
974.778	0.05
975.2	0.05
975.621	0.05
976.042	0.05
976.464	0.05
976.885	0.05
977.306	0.05
977.727	0.05
978.148	0.05
978.57	0.05
978.991	0.05
979.412	0.05
979.833	0.05
980.254	0.05
980.675	0.05
981.096	0.05
981.517	0.05
981.937	0.05
982.358	0.05
982.779	0.05
983.2	0.05
983.621	0.05
984.042	0.05
984.462	0.05
984.883	0.05
985.304	0.05
985.724	0.05
986.145	0.05
986.565	0.04
986.986	0.04
987.407	0.04
987.827	0.04
988.248	0.04
988.668	0.04
989.088	0.04
989.509	0.04
989.929	0.04
990.35	0.04
990.77	0.04
991.19	0.04
991.61	0.04
992.031	0.04
992.451	0.04
992.871	0.04
993.291	0.04
993.711	0.04
994.131	0.04
994.551	0.04
994.971	0.04
995.391	0.04
995.811	0.03
996.231	0.03
996.651	0.03
997.071	0.03
997.491	0.03
997.911	0.04
998.331	0.04
998.75	0.04
999.17	0.04
999.59	0.04
1000.009	0.04
1000.429	0.04
1000.849	0.04
1001.268	0.04
1001.688	0.04
1002.107	0.04
1002.527	0.04
1002.946	0.04
1003.366	0.04
1003.785	0.04
1004.205	0.04
1004.624	0.04
1005.044	0.04
1005.463	0.04
1005.882	0.04
1006.301	0.04
1006.721	0.04
1007.14	0.03
1007.559	0.03
1007.978	0.03
1008.397	0.03
1008.816	0.03
1009.235	0.03
1009.655	0.03
1010.074	0.03
1010.492	0.03
1010.911	0.03
1011.33	0.03
1011.749	0.03
1012.168	0.03
1012.587	0.03
1013.006	0.03
1013.425	0.03
1013.843	0.03
1014.262	0.03
1014.681	0.03
1015.099	0.03
1015.518	0.03
1015.937	0.03
1016.355	0.03
1016.774	0.03
1017.192	0.03
1017.611	0.03
1018.029	0.03
1018.448	0.03
1018.866	0.03
1019.285	0.03
1019.703	0.03
1020.121	0.03
1020.54	0.03
1020.958	0.03
1021.376	0.03
1021.794	0.03
1022.213	0.03
1022.631	0.03
1023.049	0.03
1023.467	0.03
1023.885	0.03
1024.303	0.03
1024.721	0.03
1025.139	0.04
1025.557	0.04
1025.975	0.04
1026.393	0.04
1026.811	0.04
1027.229	0.04
1027.647	0.04
1028.065	0.04
1028.482	0.04
1028.9	0.04
1029.318	0.04
1029.735	0.03
1030.153	0.03
1030.571	0.03
1030.988	0.03
1031.406	0.03
1031.823	0.03
1032.241	0.03
1032.659	0.03
1033.076	0.03
1033.493	0.03
1033.911	0.03
1034.328	0.03
1034.746	0.03
1035.163	0.03
1035.58	0.03
1035.997	0.03
1036.415	0.03
1036.832	0.03
1037.249	0.03
1037.666	0.03
1038.083	0.03
1038.501	0.03
1038.918	0.03
1039.335	0.03
1039.752	0.03
1040.169	0.03
1040.586	0.03
1041.003	0.04
1041.419	0.04
1041.836	0.04
1042.253	0.04
1042.67	0.04
1043.087	0.04
1043.504	0.04
1043.92	0.04
1044.337	0.04
1044.754	0.04
1045.17	0.04
1045.587	0.03
1046.004	0.03
1046.42	0.03
1046.837	0.03
1047.253	0.03
1047.67	0.03
1048.086	0.03
1048.503	0.03
1048.919	0.03
1049.335	0.03
1049.752	0.03
1050.168	0.03
1050.584	0.03
1051.001	0.03
1051.417	0.03
1051.833	0.03
1052.249	0.03
1052.665	0.03
1053.081	0.03
1053.497	0.03
1053.914	0.03
1054.33	0.03
1054.746	0.03
1055.162	0.03
1055.578	0.03
1055.993	0.03
1056.409	0.03
1056.825	0.03
1057.241	0.02
1057.657	0.02
1058.073	0.02
1058.488	0.02
1058.904	0.02
1059.32	0.02
1059.736	0.02
1060.151	0.02
1060.567	0.02
1060.982	0.02
1061.398	0.02
1061.813	0.02
1062.229	0.02
1062.644	0.02
1063.06	0.02
1063.475	0.02
1063.891	0.02
1064.306	0.02
1064.721	0.02
1065.137	0.02
1065.552	0.02
1065.967	0.02
1066.382	0.02
1066.798	0.02
1067.213	0.02
1067.628	0.02
1068.043	0.02
1068.458	0.02
1068.873	0.02
1069.288	0.02
1069.703	0.02
1070.118	0.02
1070.533	0.02
1070.948	0.02
1071.363	0.01
1071.778	0.01
1072.193	0.01
1072.607	0.01
1073.022	0.01
1073.437	0.01
1073.852	0.01
1074.266	0.01
1074.681	0.01
1075.096	0.01
1075.51	0.01
1075.925	0.01
1076.339	0.01
1076.754	0.01
1077.168	0.01
1077.583	0.01
1077.997	0
1078.412	0
1078.826	0
1079.24	0
1079.655	0
1080.069	0
1080.483	0.01
1080.897	0.01
1081.312	0.01
1081.726	0.01
1082.14	0.01
1082.554	0.01
1082.968	0.01
1083.382	0.01
1083.796	0.01
1084.21	0.01
1084.624	0.01
1085.038	0.01
1085.452	0.01
1085.866	0.01
1086.28	0.01
1086.694	0.01
1087.108	0.01
1087.521	0.01
1087.935	0.01
1088.349	0.01
1088.763	0.01
1089.176	0.01
1089.59	0.01
1090.004	0.01
1090.417	0
1090.831	0
1091.244	0
1091.658	0
1092.071	0
1092.485	0
1092.898	0
1093.312	0
1093.725	-0
1094.138	-0
1094.552	-0
1094.965	-0
1095.378	-0
1095.791	-0
1096.205	-0
1096.618	-0
1097.031	-0
1097.444	-0.01
1097.857	-0.01
1098.27	-0.01
1098.683	-0.01
1099.096	-0.01
1099.509	-0.01
1099.922	-0.01
1100.335	-0.01
1100.748	-0.01
1101.161	-0.01
1101.574	-0.01
1101.986	-0.01
1102.399	-0.01
1102.812	-0.01
1103.225	-0.01
1103.637	-0.02
1104.05	-0.02
1104.463	-0.02
1104.875	-0.02
1105.288	-0.02
1105.7	-0.02
1106.113	-0.02
1106.525	-0.03
1106.938	-0.03
1107.35	-0.03
1107.763	-0.03
1108.175	-0.03
1108.588	-0.03
1109	-0.04
1109.412	-0.04
1109.824	-0.04
1110.237	-0.04
1110.649	-0.04
1111.061	-0.04
