Data from disp-15_Absorbance__0__17-30-17-457.txt Node

Date: Thu Feb 22 17:30:17 CET 2024
User: Laser008
Spectrometer: MAYP115816
Trigger mode: 0
Integration Time (sec): 1.800000E-1
Scans to average: 10
Electric dark correction enabled: true
Nonlinearity correction enabled: true
Boxcar width: 5
XAxis mode: Wavelengths
Number of Pixels in Spectrum: 2068
>>>>>Begin Spectral Data<<<<<
198.914	-0.55
199.384	-0.52
199.855	-0.45
200.325	-0.38
200.796	-0.34
201.266	-0.31
201.737	-0.3
202.207	-0.29
202.677	-0.28
203.147	-0.28
203.618	-0.26
204.088	-0.24
204.558	-0.22
205.028	-0.22
205.498	-0.22
205.968	-0.22
206.439	-0.23
206.909	-0.23
207.379	-0.23
207.849	-0.22
208.319	-0.23
208.789	-0.23
209.258	-0.23
209.728	-0.23
210.198	-0.24
210.668	-0.23
211.138	-0.24
211.608	-0.24
212.077	-0.24
212.547	-0.24
213.017	-0.24
213.486	-0.24
213.956	-0.24
214.426	-0.24
214.895	-0.24
215.365	-0.24
215.834	-0.24
216.304	-0.24
216.773	-0.24
217.243	-0.24
217.712	-0.24
218.181	-0.24
218.651	-0.23
219.12	-0.23
219.589	-0.23
220.058	-0.24
220.528	-0.24
220.997	-0.23
221.466	-0.23
221.935	-0.23
222.404	-0.23
222.873	-0.22
223.342	-0.22
223.812	-0.22
224.281	-0.21
224.749	-0.21
225.218	-0.2
225.687	-0.19
226.156	-0.18
226.625	-0.17
227.094	-0.17
227.563	-0.15
228.031	-0.14
228.5	-0.12
228.969	-0.1
229.438	-0.08
229.906	-0.05
230.375	-0.02
230.844	0.01
231.312	0.04
231.781	0.07
232.249	0.1
232.718	0.14
233.186	0.18
233.655	0.21
234.123	0.24
234.591	0.27
235.06	0.3
235.528	0.32
235.996	0.35
236.465	0.37
236.933	0.4
237.401	0.42
237.869	0.44
238.337	0.45
238.805	0.47
239.274	0.48
239.742	0.5
240.21	0.51
240.678	0.52
241.146	0.52
241.614	0.53
242.081	0.54
242.549	0.54
243.017	0.55
243.485	0.55
243.953	0.56
244.421	0.56
244.888	0.57
245.356	0.57
245.824	0.57
246.291	0.58
246.759	0.58
247.227	0.58
247.694	0.59
248.162	0.59
248.629	0.59
249.097	0.6
249.564	0.6
250.032	0.6
250.499	0.6
250.967	0.61
251.434	0.61
251.901	0.61
252.369	0.61
252.836	0.61
253.303	0.62
253.77	0.62
254.237	0.62
254.705	0.62
255.172	0.62
255.639	0.62
256.106	0.62
256.573	0.62
257.04	0.62
257.507	0.63
257.974	0.63
258.441	0.63
258.908	0.63
259.375	0.63
259.841	0.63
260.308	0.63
260.775	0.63
261.242	0.63
261.709	0.63
262.175	0.62
262.642	0.62
263.109	0.62
263.575	0.62
264.042	0.62
264.508	0.62
264.975	0.62
265.441	0.62
265.908	0.61
266.374	0.61
266.841	0.61
267.307	0.61
267.773	0.61
268.24	0.6
268.706	0.6
269.172	0.6
269.639	0.6
270.105	0.59
270.571	0.59
271.037	0.59
271.503	0.58
271.969	0.58
272.435	0.58
272.902	0.58
273.368	0.57
273.834	0.57
274.3	0.57
274.765	0.57
275.231	0.56
275.697	0.56
276.163	0.56
276.629	0.55
277.095	0.55
277.56	0.55
278.026	0.54
278.492	0.54
278.958	0.53
279.423	0.53
279.889	0.52
280.354	0.52
280.82	0.52
281.286	0.51
281.751	0.51
282.217	0.51
282.682	0.5
283.147	0.5
283.613	0.5
284.078	0.5
284.544	0.49
285.009	0.49
285.474	0.49
285.939	0.48
286.405	0.48
286.87	0.48
287.335	0.48
287.8	0.47
288.265	0.47
288.73	0.47
289.195	0.47
289.66	0.46
290.125	0.46
290.59	0.46
291.055	0.46
291.52	0.45
291.985	0.45
292.45	0.45
292.915	0.45
293.38	0.44
293.844	0.44
294.309	0.44
294.774	0.44
295.239	0.44
295.703	0.44
296.168	0.43
296.632	0.43
297.097	0.43
297.562	0.43
298.026	0.43
298.491	0.43
298.955	0.43
299.419	0.42
299.884	0.42
300.348	0.42
300.813	0.42
301.277	0.42
301.741	0.42
302.205	0.42
302.67	0.41
303.134	0.41
303.598	0.41
304.062	0.41
304.526	0.41
304.99	0.41
305.454	0.41
305.919	0.41
306.383	0.4
306.847	0.4
307.31	0.4
307.774	0.4
308.238	0.4
308.702	0.4
309.166	0.4
309.63	0.4
310.094	0.39
310.557	0.39
311.021	0.39
311.485	0.39
311.948	0.39
312.412	0.39
312.876	0.39
313.339	0.39
313.803	0.39
314.266	0.38
314.73	0.38
315.193	0.38
315.657	0.38
316.12	0.38
316.584	0.38
317.047	0.38
317.51	0.38
317.973	0.38
318.437	0.38
318.9	0.38
319.363	0.38
319.826	0.37
320.29	0.37
320.753	0.37
321.216	0.37
321.679	0.37
322.142	0.37
322.605	0.37
323.068	0.37
323.531	0.37
323.994	0.36
324.457	0.36
324.92	0.36
325.382	0.36
325.845	0.36
326.308	0.36
326.771	0.36
327.233	0.36
327.696	0.36
328.159	0.36
328.622	0.36
329.084	0.36
329.547	0.35
330.009	0.35
330.472	0.35
330.934	0.35
331.397	0.35
331.859	0.35
332.322	0.35
332.784	0.35
333.246	0.35
333.709	0.35
334.171	0.35
334.633	0.35
335.096	0.34
335.558	0.34
336.02	0.34
336.482	0.34
336.944	0.34
337.406	0.34
337.868	0.34
338.331	0.34
338.793	0.34
339.255	0.34
339.717	0.34
340.178	0.34
340.64	0.34
341.102	0.34
341.564	0.34
342.026	0.34
342.488	0.33
342.949	0.33
343.411	0.33
343.873	0.33
344.335	0.33
344.796	0.33
345.258	0.33
345.719	0.33
346.181	0.33
346.643	0.33
347.104	0.33
347.566	0.33
348.027	0.33
348.488	0.33
348.95	0.33
349.411	0.33
349.873	0.33
350.334	0.33
350.795	0.33
351.256	0.33
351.718	0.33
352.179	0.33
352.64	0.33
353.101	0.33
353.562	0.33
354.023	0.33
354.484	0.33
354.945	0.33
355.406	0.32
355.867	0.32
356.328	0.32
356.789	0.32
357.25	0.32
357.711	0.32
358.172	0.32
358.633	0.32
359.093	0.32
359.554	0.32
360.015	0.32
360.476	0.32
360.936	0.32
361.397	0.32
361.858	0.32
362.318	0.32
362.779	0.32
363.239	0.32
363.7	0.32
364.16	0.32
364.621	0.32
365.081	0.32
365.541	0.32
366.002	0.32
366.462	0.32
366.922	0.32
367.383	0.32
367.843	0.32
368.303	0.32
368.763	0.32
369.223	0.32
369.684	0.32
370.144	0.32
370.604	0.32
371.064	0.32
371.524	0.32
371.984	0.32
372.444	0.32
372.904	0.32
373.363	0.32
373.823	0.32
374.283	0.32
374.743	0.32
375.203	0.31
375.663	0.31
376.122	0.31
376.582	0.31
377.042	0.31
377.501	0.31
377.961	0.31
378.42	0.31
378.88	0.31
379.34	0.31
379.799	0.31
380.259	0.31
380.718	0.31
381.177	0.31
381.637	0.31
382.096	0.31
382.555	0.31
383.015	0.31
383.474	0.31
383.933	0.31
384.393	0.31
384.852	0.31
385.311	0.31
385.77	0.31
386.229	0.31
386.688	0.31
387.147	0.31
387.606	0.31
388.065	0.31
388.524	0.31
388.983	0.31
389.442	0.31
389.901	0.31
390.36	0.31
390.819	0.31
391.277	0.31
391.736	0.31
392.195	0.3
392.654	0.3
393.112	0.3
393.571	0.3
394.03	0.3
394.488	0.3
394.947	0.3
395.405	0.3
395.864	0.3
396.322	0.3
396.781	0.3
397.239	0.3
397.698	0.3
398.156	0.3
398.614	0.3
399.073	0.3
399.531	0.3
399.989	0.3
400.447	0.3
400.905	0.3
401.364	0.3
401.822	0.3
402.28	0.3
402.738	0.3
403.196	0.3
403.654	0.3
404.112	0.3
404.57	0.3
405.028	0.3
405.486	0.3
405.944	0.3
406.402	0.3
406.859	0.3
407.317	0.3
407.775	0.29
408.233	0.29
408.691	0.29
409.148	0.29
409.606	0.29
410.064	0.29
410.521	0.29
410.979	0.29
411.436	0.29
411.894	0.29
412.351	0.29
412.809	0.29
413.266	0.29
413.724	0.29
414.181	0.29
414.638	0.29
415.096	0.29
415.553	0.29
416.01	0.29
416.467	0.29
416.925	0.29
417.382	0.29
417.839	0.29
418.296	0.29
418.753	0.29
419.21	0.29
419.667	0.29
420.124	0.29
420.581	0.29
421.038	0.29
421.495	0.29
421.952	0.29
422.409	0.29
422.866	0.29
423.322	0.29
423.779	0.29
424.236	0.29
424.693	0.29
425.149	0.29
425.606	0.29
426.063	0.29
426.519	0.29
426.976	0.29
427.433	0.29
427.889	0.29
428.346	0.29
428.802	0.29
429.258	0.29
429.715	0.29
430.171	0.28
430.628	0.28
431.084	0.28
431.54	0.28
431.997	0.28
432.453	0.28
432.909	0.28
433.365	0.28
433.821	0.28
434.277	0.28
434.734	0.28
435.19	0.28
435.646	0.28
436.102	0.28
436.558	0.28
437.014	0.28
437.47	0.28
437.925	0.28
438.381	0.28
438.837	0.28
439.293	0.28
439.749	0.28
440.205	0.28
440.66	0.28
441.116	0.28
441.572	0.28
442.027	0.28
442.483	0.28
442.939	0.28
443.394	0.28
443.85	0.28
444.305	0.28
444.761	0.28
445.216	0.28
445.672	0.28
446.127	0.28
446.582	0.28
447.038	0.28
447.493	0.28
447.948	0.28
448.403	0.28
448.859	0.28
449.314	0.28
449.769	0.28
450.224	0.28
450.679	0.28
451.134	0.28
451.589	0.28
452.044	0.28
452.499	0.28
452.954	0.28
453.409	0.28
453.864	0.28
454.319	0.28
454.774	0.28
455.229	0.28
455.684	0.28
456.138	0.28
456.593	0.28
457.048	0.28
457.503	0.28
457.957	0.28
458.412	0.28
458.866	0.29
459.321	0.28
459.776	0.28
460.23	0.28
460.685	0.28
461.139	0.29
461.593	0.29
462.048	0.29
462.502	0.29
462.957	0.29
463.411	0.29
463.865	0.29
464.319	0.29
464.774	0.29
465.228	0.29
465.682	0.29
466.136	0.29
466.59	0.29
467.044	0.29
467.499	0.29
467.953	0.29
468.407	0.29
468.861	0.29
469.315	0.29
469.768	0.29
470.222	0.29
470.676	0.29
471.13	0.29
471.584	0.29
472.038	0.29
472.491	0.3
472.945	0.3
473.399	0.3
473.852	0.3
474.306	0.3
474.76	0.3
475.213	0.3
475.667	0.3
476.12	0.3
476.574	0.3
477.027	0.3
477.481	0.3
477.934	0.3
478.388	0.31
478.841	0.31
479.294	0.31
479.748	0.31
480.201	0.31
480.654	0.31
481.107	0.31
481.561	0.31
482.014	0.31
482.467	0.31
482.92	0.32
483.373	0.32
483.826	0.32
484.279	0.32
484.732	0.32
485.185	0.32
485.638	0.32
486.091	0.33
486.544	0.33
486.997	0.33
487.449	0.33
487.902	0.33
488.355	0.33
488.808	0.33
489.26	0.34
489.713	0.34
490.166	0.34
490.618	0.34
491.071	0.34
491.523	0.35
491.976	0.35
492.429	0.35
492.881	0.35
493.333	0.35
493.786	0.36
494.238	0.36
494.691	0.36
495.143	0.36
495.595	0.36
496.048	0.37
496.5	0.37
496.952	0.37
497.404	0.37
497.856	0.38
498.309	0.38
498.761	0.38
499.213	0.38
499.665	0.39
500.117	0.39
500.569	0.39
501.021	0.39
501.473	0.39
501.925	0.4
502.377	0.4
502.828	0.4
503.28	0.4
503.732	0.41
504.184	0.41
504.636	0.41
505.087	0.41
505.539	0.42
505.991	0.42
506.442	0.42
506.894	0.42
507.345	0.43
507.797	0.43
508.249	0.43
508.7	0.43
509.151	0.44
509.603	0.44
510.054	0.44
510.506	0.44
510.957	0.44
511.408	0.45
511.86	0.45
512.311	0.45
512.762	0.45
513.213	0.45
513.665	0.46
514.116	0.46
514.567	0.46
515.018	0.46
515.469	0.46
515.92	0.46
516.371	0.46
516.822	0.47
517.273	0.47
517.724	0.47
518.175	0.47
518.626	0.47
519.076	0.47
519.527	0.47
519.978	0.47
520.429	0.47
520.88	0.47
521.33	0.47
521.781	0.47
522.232	0.47
522.682	0.47
523.133	0.47
523.583	0.47
524.034	0.47
524.484	0.47
524.935	0.47
525.385	0.47
525.836	0.47
526.286	0.47
526.736	0.47
527.187	0.47
527.637	0.47
528.087	0.47
528.538	0.47
528.988	0.47
529.438	0.47
529.888	0.47
530.338	0.46
530.788	0.46
531.238	0.46
531.688	0.46
532.139	0.46
532.589	0.46
533.038	0.46
533.488	0.45
533.938	0.45
534.388	0.45
534.838	0.45
535.288	0.45
535.738	0.45
536.187	0.44
536.637	0.44
537.087	0.44
537.537	0.44
537.986	0.43
538.436	0.43
538.885	0.43
539.335	0.43
539.785	0.42
540.234	0.42
540.684	0.42
541.133	0.41
541.582	0.41
542.032	0.41
542.481	0.4
542.931	0.4
543.38	0.4
543.829	0.4
544.278	0.39
544.728	0.39
545.177	0.39
545.626	0.38
546.075	0.38
546.524	0.38
546.973	0.37
547.422	0.37
547.871	0.37
548.32	0.36
548.769	0.36
549.218	0.36
549.667	0.35
550.116	0.35
550.565	0.35
551.014	0.34
551.463	0.34
551.911	0.34
552.36	0.33
552.809	0.33
553.258	0.33
553.706	0.32
554.155	0.32
554.603	0.32
555.052	0.31
555.501	0.31
555.949	0.3
556.398	0.3
556.846	0.3
557.294	0.3
557.743	0.29
558.191	0.29
558.64	0.29
559.088	0.28
559.536	0.28
559.985	0.28
560.433	0.27
560.881	0.27
561.329	0.27
561.777	0.27
562.225	0.26
562.674	0.26
563.122	0.26
563.57	0.25
564.018	0.25
564.466	0.25
564.914	0.25
565.362	0.24
565.809	0.24
566.257	0.24
566.705	0.23
567.153	0.23
567.601	0.23
568.048	0.23
568.496	0.22
568.944	0.22
569.392	0.22
569.839	0.22
570.287	0.21
570.734	0.21
571.182	0.21
571.63	0.21
572.077	0.21
572.525	0.2
572.972	0.2
573.419	0.2
573.867	0.2
574.314	0.2
574.761	0.19
575.209	0.19
575.656	0.19
576.103	0.19
576.551	0.19
576.998	0.18
577.445	0.18
577.892	0.18
578.339	0.18
578.786	0.18
579.233	0.18
579.68	0.18
580.127	0.17
580.574	0.17
581.021	0.17
581.468	0.17
581.915	0.17
582.362	0.16
582.809	0.16
583.255	0.16
583.702	0.16
584.149	0.16
584.596	0.16
585.042	0.16
585.489	0.16
585.936	0.15
586.382	0.15
586.829	0.15
587.275	0.15
587.722	0.15
588.168	0.15
588.615	0.15
589.061	0.14
589.508	0.14
589.954	0.14
590.4	0.14
590.847	0.14
591.293	0.14
591.739	0.14
592.185	0.14
592.632	0.14
593.078	0.14
593.524	0.14
593.97	0.14
594.416	0.14
594.862	0.14
595.308	0.13
595.754	0.13
596.2	0.13
596.646	0.14
597.092	0.13
597.538	0.13
597.984	0.13
598.43	0.13
598.876	0.13
599.321	0.13
599.767	0.13
600.213	0.13
600.659	0.13
601.104	0.13
601.55	0.13
601.995	0.13
602.441	0.13
602.887	0.13
603.332	0.13
603.778	0.13
604.223	0.13
604.668	0.13
605.114	0.13
605.559	0.13
606.005	0.13
606.45	0.13
606.895	0.13
607.341	0.13
607.786	0.13
608.231	0.13
608.676	0.13
609.121	0.13
609.566	0.13
610.012	0.13
610.457	0.13
610.902	0.13
611.347	0.13
611.792	0.13
612.237	0.13
612.682	0.13
613.127	0.13
613.571	0.13
614.016	0.13
614.461	0.13
614.906	0.13
615.351	0.13
615.795	0.13
616.24	0.13
616.685	0.13
617.129	0.13
617.574	0.13
618.019	0.13
618.463	0.13
618.908	0.13
619.352	0.13
619.797	0.14
620.241	0.14
620.686	0.14
621.13	0.14
621.574	0.14
622.019	0.14
622.463	0.14
622.907	0.14
623.352	0.14
623.796	0.14
624.24	0.14
624.684	0.14
625.128	0.14
625.572	0.14
626.016	0.14
626.461	0.15
626.905	0.15
627.349	0.15
627.793	0.15
628.236	0.15
628.68	0.15
629.124	0.15
629.568	0.15
630.012	0.15
630.456	0.16
630.9	0.16
631.343	0.16
631.787	0.16
632.231	0.16
632.674	0.16
633.118	0.16
633.562	0.17
634.005	0.17
634.449	0.17
634.892	0.17
635.336	0.17
635.779	0.18
636.223	0.18
636.666	0.18
637.109	0.18
637.553	0.18
637.996	0.19
638.439	0.19
638.883	0.19
639.326	0.19
639.769	0.19
640.212	0.2
640.655	0.2
641.099	0.2
641.542	0.2
641.985	0.21
642.428	0.21
642.871	0.21
643.314	0.22
643.757	0.22
644.2	0.22
644.643	0.22
645.085	0.23
645.528	0.23
645.971	0.23
646.414	0.24
646.857	0.24
647.299	0.24
647.742	0.24
648.185	0.25
648.627	0.25
649.07	0.25
649.513	0.26
649.955	0.26
650.398	0.26
650.84	0.26
651.283	0.27
651.725	0.27
652.168	0.27
652.61	0.28
653.052	0.29
653.495	0.29
653.937	0.23
654.379	0.18
654.821	0.18
655.264	0.19
655.706	0.19
656.148	0.19
656.59	0.19
657.032	0.2
657.474	0.2
657.916	0.2
658.358	0.19
658.8	0.24
659.242	0.33
659.684	0.34
660.126	0.34
660.568	0.35
661.01	0.35
661.452	0.35
661.894	0.36
662.335	0.36
662.777	0.37
663.219	0.37
663.661	0.38
664.102	0.38
664.544	0.38
664.985	0.39
665.427	0.39
665.869	0.39
666.31	0.4
666.752	0.4
667.193	0.41
667.634	0.41
668.076	0.41
668.517	0.42
668.959	0.42
669.4	0.43
669.841	0.43
670.282	0.43
670.724	0.44
671.165	0.44
671.606	0.44
672.047	0.45
672.488	0.45
672.929	0.45
673.37	0.45
673.811	0.46
674.252	0.46
674.693	0.46
675.134	0.46
675.575	0.47
676.016	0.47
676.457	0.47
676.898	0.47
677.339	0.48
677.78	0.48
678.22	0.48
678.661	0.48
679.102	0.48
679.542	0.48
679.983	0.49
680.424	0.49
680.864	0.49
681.305	0.49
681.745	0.49
682.186	0.49
682.626	0.49
683.067	0.49
683.507	0.5
683.948	0.5
684.388	0.5
684.828	0.5
685.269	0.5
685.709	0.5
686.149	0.5
686.589	0.5
687.029	0.5
687.47	0.5
687.91	0.5
688.35	0.5
688.79	0.5
689.23	0.5
689.67	0.5
690.11	0.49
690.55	0.49
690.99	0.49
691.43	0.49
691.87	0.49
692.31	0.49
692.749	0.49
693.189	0.49
693.629	0.49
694.069	0.48
694.508	0.48
694.948	0.48
695.388	0.48
695.827	0.48
696.267	0.47
696.706	0.47
697.146	0.47
697.586	0.47
698.025	0.46
698.464	0.46
698.904	0.46
699.343	0.46
699.783	0.45
700.222	0.45
700.661	0.45
701.101	0.45
701.54	0.45
701.979	0.44
702.418	0.44
702.857	0.44
703.297	0.44
703.736	0.44
704.175	0.43
704.614	0.43
705.053	0.43
705.492	0.43
705.931	0.42
706.37	0.42
706.809	0.42
707.248	0.41
707.687	0.41
708.125	0.41
708.564	0.4
709.003	0.4
709.442	0.4
709.88	0.39
710.319	0.39
710.758	0.39
711.196	0.38
711.635	0.38
712.074	0.38
712.512	0.37
712.951	0.37
713.389	0.37
713.828	0.36
714.266	0.36
714.705	0.36
715.143	0.36
715.581	0.35
716.02	0.35
716.458	0.35
716.896	0.35
717.334	0.34
717.773	0.34
718.211	0.34
718.649	0.33
719.087	0.33
719.525	0.33
719.963	0.32
720.401	0.32
720.839	0.31
721.277	0.31
721.715	0.31
722.153	0.3
722.591	0.3
723.029	0.3
723.467	0.29
723.905	0.29
724.342	0.29
724.78	0.29
725.218	0.28
725.656	0.28
726.093	0.28
726.531	0.28
726.969	0.27
727.406	0.27
727.844	0.27
728.281	0.26
728.719	0.26
729.156	0.26
729.594	0.26
730.031	0.26
730.469	0.25
730.906	0.25
731.343	0.25
731.781	0.25
732.218	0.24
732.655	0.24
733.092	0.24
733.53	0.24
733.967	0.23
734.404	0.23
734.841	0.23
735.278	0.22
735.715	0.22
736.152	0.22
736.589	0.22
737.026	0.21
737.463	0.21
737.9	0.21
738.337	0.21
738.774	0.21
739.211	0.2
739.647	0.2
740.084	0.2
740.521	0.2
740.958	0.2
741.394	0.2
741.831	0.19
742.268	0.19
742.704	0.19
743.141	0.19
743.577	0.18
744.014	0.18
744.45	0.18
744.887	0.18
745.323	0.17
745.76	0.17
746.196	0.17
746.632	0.17
747.069	0.17
747.505	0.16
747.941	0.16
748.378	0.16
748.814	0.16
749.25	0.15
749.686	0.15
750.122	0.15
750.558	0.15
750.994	0.15
751.43	0.15
751.866	0.14
752.302	0.14
752.738	0.14
753.174	0.14
753.61	0.14
754.046	0.14
754.482	0.14
754.918	0.14
755.354	0.14
755.789	0.13
756.225	0.13
756.661	0.13
757.096	0.13
757.532	0.13
757.968	0.13
758.403	0.13
758.839	0.13
759.274	0.12
759.71	0.12
760.145	0.12
760.581	0.12
761.016	0.12
761.452	0.12
761.887	0.12
762.322	0.12
762.758	0.12
763.193	0.11
763.628	0.11
764.063	0.11
764.499	0.11
764.934	0.11
765.369	0.11
765.804	0.11
766.239	0.11
766.674	0.1
767.109	0.1
767.544	0.1
767.979	0.1
768.414	0.1
768.849	0.1
769.284	0.1
769.719	0.1
770.154	0.1
770.588	0.09
771.023	0.09
771.458	0.09
771.893	0.09
772.327	0.09
772.762	0.09
773.197	0.09
773.631	0.09
774.066	0.09
774.5	0.09
774.935	0.09
775.369	0.09
775.804	0.09
776.238	0.09
776.673	0.09
777.107	0.09
777.541	0.09
777.976	0.08
778.41	0.08
778.844	0.08
779.279	0.08
779.713	0.08
780.147	0.08
780.581	0.08
781.015	0.08
781.449	0.08
781.883	0.07
782.317	0.07
782.751	0.07
783.185	0.07
783.619	0.07
784.053	0.07
784.487	0.07
784.921	0.07
785.355	0.07
785.789	0.07
786.223	0.07
786.656	0.07
787.09	0.07
787.524	0.07
787.957	0.07
788.391	0.07
788.825	0.06
789.258	0.06
789.692	0.06
790.125	0.06
790.559	0.06
790.992	0.06
791.426	0.06
791.859	0.06
792.293	0.06
792.726	0.06
793.159	0.06
793.593	0.06
794.026	0.06
794.459	0.06
794.892	0.06
795.326	0.06
795.759	0.06
796.192	0.06
796.625	0.06
797.058	0.06
797.491	0.06
797.924	0.06
798.357	0.06
798.79	0.06
799.223	0.06
799.656	0.06
800.089	0.06
800.522	0.06
800.955	0.06
801.387	0.05
801.82	0.05
802.253	0.05
802.686	0.05
803.118	0.05
803.551	0.05
803.984	0.05
804.416	0.05
804.849	0.05
805.281	0.05
805.714	0.05
806.146	0.05
806.579	0.05
807.011	0.05
807.444	0.05
807.876	0.05
808.308	0.05
808.741	0.05
809.173	0.05
809.605	0.05
810.037	0.05
810.47	0.05
810.902	0.05
811.334	0.05
811.766	0.05
812.198	0.05
812.63	0.05
813.062	0.05
813.494	0.05
813.926	0.05
814.358	0.04
814.79	0.04
815.222	0.04
815.654	0.04
816.086	0.04
816.518	0.04
816.949	0.04
817.381	0.04
817.813	0.04
818.245	0.04
818.676	0.04
819.108	0.04
819.54	0.04
819.971	0.04
820.403	0.04
820.834	0.04
821.266	0.04
821.697	0.04
822.129	0.04
822.56	0.04
822.991	0.04
823.423	0.04
823.854	0.04
824.286	0.04
824.717	0.05
825.148	0.05
825.579	0.05
826.01	0.05
826.442	0.05
826.873	0.05
827.304	0.05
827.735	0.05
828.166	0.05
828.597	0.05
829.028	0.05
829.459	0.04
829.89	0.04
830.321	0.04
830.752	0.04
831.183	0.04
831.613	0.04
832.044	0.04
832.475	0.04
832.906	0.04
833.336	0.04
833.767	0.04
834.198	0.04
834.628	0.04
835.059	0.04
835.49	0.04
835.92	0.04
836.351	0.03
836.781	0.03
837.212	0.03
837.642	0.03
838.072	0.03
838.503	0.03
838.933	0.03
839.364	0.03
839.794	0.03
840.224	0.03
840.654	0.03
841.085	0.03
841.515	0.03
841.945	0.03
842.375	0.03
842.805	0.03
843.235	0.03
843.665	0.03
844.095	0.03
844.525	0.03
844.955	0.03
845.385	0.03
845.815	0.03
846.245	0.03
846.675	0.03
847.105	0.03
847.534	0.03
847.964	0.03
848.394	0.03
848.824	0.03
849.253	0.03
849.683	0.03
850.112	0.03
850.542	0.03
850.972	0.03
851.401	0.03
851.831	0.03
852.26	0.03
852.69	0.03
853.119	0.03
853.548	0.03
853.978	0.03
854.407	0.03
854.836	0.03
855.266	0.03
855.695	0.03
856.124	0.03
856.553	0.03
856.983	0.03
857.412	0.03
857.841	0.03
858.27	0.03
858.699	0.03
859.128	0.03
859.557	0.03
859.986	0.03
860.415	0.03
860.844	0.03
861.273	0.03
861.702	0.03
862.13	0.03
862.559	0.03
862.988	0.03
863.417	0.03
863.845	0.03
864.274	0.03
864.703	0.03
865.131	0.03
865.56	0.02
865.989	0.02
866.417	0.02
866.846	0.02
867.274	0.02
867.703	0.02
868.131	0.02
868.559	0.02
868.988	0.02
869.416	0.02
869.844	0.02
870.273	0.02
870.701	0.02
871.129	0.02
871.557	0.02
871.986	0.02
872.414	0.02
872.842	0.02
873.27	0.02
873.698	0.02
874.126	0.02
874.554	0.02
874.982	0.02
875.41	0.02
875.838	0.02
876.266	0.02
876.694	0.02
877.122	0.02
877.549	0.02
877.977	0.02
878.405	0.02
878.833	0.02
879.26	0.02
879.688	0.02
880.116	0.02
880.543	0.02
880.971	0.02
881.399	0.02
881.826	0.02
882.254	0.02
882.681	0.02
883.109	0.02
883.536	0.02
883.963	0.02
884.391	0.02
884.818	0.02
885.245	0.02
885.673	0.02
886.1	0.02
886.527	0.02
886.954	0.02
887.381	0.01
887.809	0.01
888.236	0.01
888.663	0.01
889.09	0.02
889.517	0.02
889.944	0.02
890.371	0.02
890.798	0.02
891.225	0.02
891.652	0.02
892.078	0.02
892.505	0.02
892.932	0.02
893.359	0.02
893.786	0.02
894.212	0.02
894.639	0.02
895.066	0.02
895.492	0.02
895.919	0.02
896.346	0.02
896.772	0.02
897.199	0.02
897.625	0.02
898.052	0.02
898.478	0.02
898.904	0.02
899.331	0.02
899.757	0.01
900.183	0.01
900.61	0.01
901.036	0.01
901.462	0.01
901.888	0.01
902.315	0.01
902.741	0.01
903.167	0.01
903.593	0.01
904.019	0.01
904.445	0.01
904.871	0.01
905.297	0.01
905.723	0.01
906.149	0.01
906.575	0.01
907.001	0.01
907.427	0.01
907.852	0.01
908.278	0.01
908.704	0.01
909.13	0.01
909.555	0.01
909.981	0.01
910.407	0.01
910.832	0.01
911.258	0.01
911.684	0.01
912.109	0.01
912.535	0.01
912.96	0.01
913.386	0.01
913.811	0.01
914.236	0.02
914.662	0.02
915.087	0.02
915.512	0.02
915.938	0.02
916.363	0.02
916.788	0.02
917.213	0.02
917.639	0.02
918.064	0.02
918.489	0.02
918.914	0.02
919.339	0.02
919.764	0.02
920.189	0.02
920.614	0.02
921.039	0.02
921.464	0.02
921.889	0.02
922.314	0.02
922.738	0.02
923.163	0.01
923.588	0.01
924.013	0.01
924.437	0.01
924.862	0.01
925.287	0.01
925.711	0.01
926.136	0.01
926.561	0.01
926.985	0.01
927.41	0.01
927.834	0.01
928.259	0.01
928.683	0.01
929.108	0.01
929.532	0.01
929.956	0.01
930.381	0.01
930.805	0.01
931.229	0.01
931.653	0.01
932.078	0.01
932.502	0.01
932.926	0.01
933.35	0.01
933.774	0.01
934.198	0.01
934.622	0.01
935.046	0.01
935.47	0.01
935.894	0.01
936.318	0.01
936.742	0.01
937.166	0.01
937.59	0.01
938.014	0.01
938.437	0.01
938.861	0.01
939.285	0.01
939.709	0.01
940.132	0.01
940.556	0.01
940.98	0.01
941.403	0.01
941.827	0.01
942.25	0.01
942.674	0.01
943.097	0.01
943.521	0.01
943.944	0.01
944.368	0.01
944.791	0.01
945.214	0.01
945.638	0.01
946.061	0
946.484	0
946.907	0
947.331	0
947.754	0
948.177	0
948.6	0
949.023	0
949.446	0
949.869	0
950.292	0
950.715	0
951.138	0
951.561	0.01
951.984	0.01
952.407	0.01
952.83	0.01
953.252	0.01
953.675	0.01
954.098	0.01
954.521	0.01
954.943	0.01
955.366	0.01
955.789	0.01
956.211	0.01
956.634	0.01
957.056	0.01
957.479	0.01
957.902	0.01
958.324	0.01
958.746	0.01
959.169	0.01
959.591	0.01
960.014	0.01
960.436	0.01
960.858	0.01
961.281	0.01
961.703	0.01
962.125	0.01
962.547	0.01
962.969	0.01
963.391	0.01
963.814	0.01
964.236	0.01
964.658	0.01
965.08	0.01
965.502	0.01
965.924	0.01
966.346	0.01
966.768	0.01
967.189	0.01
967.611	0.01
968.033	0.01
968.455	0.01
968.877	0.01
969.298	0.01
969.72	0.01
970.142	0.01
970.563	0.01
970.985	0.01
971.407	0.01
971.828	0.01
972.25	0.01
972.671	0.01
973.093	0.01
973.514	0.01
973.936	0.01
974.357	0.01
974.778	0.01
975.2	0.01
975.621	0.01
976.042	0.01
976.464	0.01
976.885	0.01
977.306	0.01
977.727	0.01
978.148	0.01
978.57	0.01
978.991	0.01
979.412	0.01
979.833	0
980.254	0
980.675	0
981.096	0
981.517	0
981.937	0
982.358	0
982.779	0
983.2	0
983.621	0
984.042	0
984.462	0
984.883	0
985.304	0
985.724	0
986.145	0
986.565	0
986.986	0
987.407	0
987.827	0
988.248	0
988.668	0
989.088	0
989.509	0
989.929	-0
990.35	-0
990.77	-0
991.19	-0
991.61	-0
992.031	-0
992.451	-0
992.871	-0
993.291	-0
993.711	-0
994.131	-0
994.551	-0
994.971	-0
995.391	-0
995.811	-0
996.231	-0
996.651	-0
997.071	-0
997.491	-0
997.911	-0
998.331	-0
998.75	-0
999.17	-0
999.59	-0
1000.009	-0
1000.429	-0
1000.849	-0
1001.268	-0
1001.688	-0
1002.107	-0
1002.527	0
1002.946	0
1003.366	0
1003.785	0
1004.205	0
1004.624	0
1005.044	0
1005.463	0
1005.882	0
1006.301	0
1006.721	0
1007.14	0
1007.559	0
1007.978	0
1008.397	-0
1008.816	0
1009.235	0
1009.655	0
1010.074	0
1010.492	0
1010.911	0
1011.33	0
1011.749	0
1012.168	0
1012.587	0
1013.006	0
1013.425	-0
1013.843	-0
1014.262	-0
1014.681	-0
1015.099	-0
1015.518	-0
1015.937	-0
1016.355	-0
1016.774	-0
1017.192	-0
1017.611	-0
1018.029	-0
1018.448	-0
1018.866	-0
1019.285	-0
1019.703	-0
1020.121	-0
1020.54	-0
1020.958	-0
1021.376	-0
1021.794	-0
1022.213	-0
1022.631	-0
1023.049	-0
1023.467	-0
1023.885	-0
1024.303	-0
1024.721	-0
1025.139	-0.01
1025.557	-0.01
1025.975	-0.01
1026.393	-0.01
1026.811	-0.01
1027.229	-0.01
1027.647	-0.01
1028.065	-0.01
1028.482	-0.01
1028.9	-0.01
1029.318	-0.01
1029.735	-0.01
1030.153	-0.01
1030.571	-0.01
1030.988	-0.01
1031.406	-0.01
1031.823	-0.01
1032.241	-0.01
1032.659	-0.01
1033.076	-0.01
1033.493	-0.01
1033.911	-0.01
1034.328	-0.01
1034.746	-0.01
1035.163	-0.01
1035.58	-0.01
1035.997	-0.01
1036.415	-0.01
1036.832	-0.01
1037.249	-0.01
1037.666	-0.01
1038.083	-0.01
1038.501	-0.01
1038.918	-0.01
1039.335	-0.01
1039.752	-0.01
1040.169	-0.01
1040.586	-0.01
1041.003	-0.01
1041.419	-0.01
1041.836	-0.01
1042.253	-0.01
1042.67	-0.01
1043.087	-0.01
1043.504	-0.01
1043.92	-0.01
1044.337	-0.01
1044.754	-0.02
1045.17	-0.02
1045.587	-0.02
1046.004	-0.02
1046.42	-0.02
1046.837	-0.02
1047.253	-0.02
1047.67	-0.02
1048.086	-0.02
1048.503	-0.02
1048.919	-0.02
1049.335	-0.02
1049.752	-0.02
1050.168	-0.02
1050.584	-0.02
1051.001	-0.02
1051.417	-0.02
1051.833	-0.03
1052.249	-0.03
1052.665	-0.03
1053.081	-0.03
1053.497	-0.03
1053.914	-0.03
1054.33	-0.03
1054.746	-0.03
1055.162	-0.03
1055.578	-0.03
1055.993	-0.03
1056.409	-0.03
1056.825	-0.03
1057.241	-0.03
1057.657	-0.03
1058.073	-0.03
1058.488	-0.03
1058.904	-0.03
1059.32	-0.04
1059.736	-0.04
1060.151	-0.04
1060.567	-0.04
1060.982	-0.03
1061.398	-0.03
1061.813	-0.03
1062.229	-0.03
1062.644	-0.03
1063.06	-0.04
1063.475	-0.04
1063.891	-0.03
1064.306	-0.03
1064.721	-0.03
1065.137	-0.03
1065.552	-0.03
1065.967	-0.03
1066.382	-0.03
1066.798	-0.03
1067.213	-0.03
1067.628	-0.03
1068.043	-0.03
1068.458	-0.03
1068.873	-0.03
1069.288	-0.03
1069.703	-0.04
1070.118	-0.04
1070.533	-0.04
1070.948	-0.04
1071.363	-0.04
1071.778	-0.04
1072.193	-0.04
1072.607	-0.04
1073.022	-0.04
1073.437	-0.04
1073.852	-0.04
1074.266	-0.04
1074.681	-0.04
1075.096	-0.04
1075.51	-0.04
1075.925	-0.04
1076.339	-0.04
1076.754	-0.04
1077.168	-0.04
1077.583	-0.04
1077.997	-0.04
1078.412	-0.04
1078.826	-0.04
1079.24	-0.04
1079.655	-0.04
1080.069	-0.04
1080.483	-0.04
1080.897	-0.04
1081.312	-0.04
1081.726	-0.04
1082.14	-0.04
1082.554	-0.04
1082.968	-0.04
1083.382	-0.04
1083.796	-0.04
1084.21	-0.04
1084.624	-0.04
1085.038	-0.04
1085.452	-0.04
1085.866	-0.04
1086.28	-0.04
1086.694	-0.04
1087.108	-0.04
1087.521	-0.04
1087.935	-0.04
1088.349	-0.04
1088.763	-0.04
1089.176	-0.04
1089.59	-0.04
1090.004	-0.04
1090.417	-0.05
1090.831	-0.05
1091.244	-0.05
1091.658	-0.05
1092.071	-0.05
1092.485	-0.05
1092.898	-0.05
1093.312	-0.05
1093.725	-0.05
1094.138	-0.05
1094.552	-0.05
1094.965	-0.05
1095.378	-0.05
1095.791	-0.05
1096.205	-0.05
1096.618	-0.05
1097.031	-0.06
1097.444	-0.06
1097.857	-0.06
1098.27	-0.06
1098.683	-0.06
1099.096	-0.06
1099.509	-0.06
1099.922	-0.07
1100.335	-0.07
1100.748	-0.07
1101.161	-0.07
1101.574	-0.07
1101.986	-0.08
1102.399	-0.08
1102.812	-0.08
1103.225	-0.08
1103.637	-0.08
1104.05	-0.08
1104.463	-0.08
1104.875	-0.09
1105.288	-0.09
1105.7	-0.09
1106.113	-0.09
1106.525	-0.09
1106.938	-0.1
1107.35	-0.1
1107.763	-0.1
1108.175	-0.1
1108.588	-0.1
1109	-0.11
1109.412	-0.11
1109.824	-0.11
1110.237	-0.12
1110.649	-0.12
1111.061	-0.12
