Data from disp-2_Absorbance__0__10-10-01-577.txt Node

Date: Thu Feb 22 10:10:01 CET 2024
User: Laser008
Spectrometer: MAYP115816
Trigger mode: 0
Integration Time (sec): 1.800000E-1
Scans to average: 10
Electric dark correction enabled: true
Nonlinearity correction enabled: true
Boxcar width: 5
XAxis mode: Wavelengths
Number of Pixels in Spectrum: 2068
>>>>>Begin Spectral Data<<<<<
198.914	-0.5
199.384	-0.46
199.855	-0.39
200.325	-0.32
200.796	-0.28
201.266	-0.26
201.737	-0.24
202.207	-0.23
202.677	-0.23
203.147	-0.22
203.618	-0.2
204.088	-0.19
204.558	-0.17
205.028	-0.16
205.498	-0.17
205.968	-0.17
206.439	-0.17
206.909	-0.17
207.379	-0.17
207.849	-0.17
208.319	-0.17
208.789	-0.17
209.258	-0.18
209.728	-0.18
210.198	-0.18
210.668	-0.18
211.138	-0.18
211.608	-0.18
212.077	-0.18
212.547	-0.17
213.017	-0.17
213.486	-0.18
213.956	-0.18
214.426	-0.17
214.895	-0.17
215.365	-0.18
215.834	-0.18
216.304	-0.18
216.773	-0.18
217.243	-0.18
217.712	-0.18
218.181	-0.18
218.651	-0.17
219.12	-0.17
219.589	-0.17
220.058	-0.18
220.528	-0.18
220.997	-0.18
221.466	-0.17
221.935	-0.17
222.404	-0.17
222.873	-0.17
223.342	-0.16
223.812	-0.16
224.281	-0.15
224.749	-0.15
225.218	-0.14
225.687	-0.13
226.156	-0.12
226.625	-0.11
227.094	-0.11
227.563	-0.09
228.031	-0.08
228.5	-0.06
228.969	-0.04
229.438	-0.02
229.906	0
230.375	0.03
230.844	0.06
231.312	0.09
231.781	0.11
232.249	0.15
232.718	0.18
233.186	0.21
233.655	0.24
234.123	0.26
234.591	0.29
235.06	0.31
235.528	0.34
235.996	0.36
236.465	0.38
236.933	0.4
237.401	0.42
237.869	0.44
238.337	0.45
238.805	0.47
239.274	0.48
239.742	0.49
240.21	0.5
240.678	0.51
241.146	0.52
241.614	0.53
242.081	0.53
242.549	0.54
243.017	0.55
243.485	0.55
243.953	0.56
244.421	0.56
244.888	0.56
245.356	0.57
245.824	0.57
246.291	0.58
246.759	0.58
247.227	0.58
247.694	0.59
248.162	0.59
248.629	0.59
249.097	0.6
249.564	0.6
250.032	0.6
250.499	0.61
250.967	0.61
251.434	0.61
251.901	0.61
252.369	0.62
252.836	0.62
253.303	0.62
253.77	0.62
254.237	0.62
254.705	0.63
255.172	0.63
255.639	0.63
256.106	0.63
256.573	0.63
257.04	0.63
257.507	0.63
257.974	0.63
258.441	0.63
258.908	0.63
259.375	0.63
259.841	0.63
260.308	0.63
260.775	0.63
261.242	0.63
261.709	0.63
262.175	0.63
262.642	0.63
263.109	0.63
263.575	0.63
264.042	0.63
264.508	0.63
264.975	0.63
265.441	0.62
265.908	0.62
266.374	0.62
266.841	0.62
267.307	0.62
267.773	0.61
268.24	0.61
268.706	0.61
269.172	0.61
269.639	0.6
270.105	0.6
270.571	0.6
271.037	0.6
271.503	0.59
271.969	0.59
272.435	0.59
272.902	0.58
273.368	0.58
273.834	0.58
274.3	0.58
274.765	0.57
275.231	0.57
275.697	0.57
276.163	0.56
276.629	0.56
277.095	0.56
277.56	0.55
278.026	0.55
278.492	0.54
278.958	0.54
279.423	0.54
279.889	0.53
280.354	0.53
280.82	0.53
281.286	0.52
281.751	0.52
282.217	0.52
282.682	0.51
283.147	0.51
283.613	0.51
284.078	0.51
284.544	0.5
285.009	0.5
285.474	0.5
285.939	0.49
286.405	0.49
286.87	0.49
287.335	0.48
287.8	0.48
288.265	0.48
288.73	0.48
289.195	0.47
289.66	0.47
290.125	0.47
290.59	0.47
291.055	0.46
291.52	0.46
291.985	0.46
292.45	0.46
292.915	0.45
293.38	0.45
293.844	0.45
294.309	0.45
294.774	0.45
295.239	0.45
295.703	0.44
296.168	0.44
296.632	0.44
297.097	0.44
297.562	0.44
298.026	0.44
298.491	0.43
298.955	0.43
299.419	0.43
299.884	0.43
300.348	0.43
300.813	0.43
301.277	0.43
301.741	0.42
302.205	0.42
302.67	0.42
303.134	0.42
303.598	0.42
304.062	0.42
304.526	0.42
304.99	0.42
305.454	0.41
305.919	0.41
306.383	0.41
306.847	0.41
307.31	0.41
307.774	0.41
308.238	0.41
308.702	0.41
309.166	0.41
309.63	0.4
310.094	0.4
310.557	0.4
311.021	0.4
311.485	0.4
311.948	0.4
312.412	0.4
312.876	0.4
313.339	0.4
313.803	0.4
314.266	0.39
314.73	0.39
315.193	0.39
315.657	0.39
316.12	0.39
316.584	0.39
317.047	0.39
317.51	0.39
317.973	0.39
318.437	0.39
318.9	0.38
319.363	0.38
319.826	0.38
320.29	0.38
320.753	0.38
321.216	0.38
321.679	0.38
322.142	0.38
322.605	0.38
323.068	0.38
323.531	0.37
323.994	0.37
324.457	0.37
324.92	0.37
325.382	0.37
325.845	0.37
326.308	0.37
326.771	0.37
327.233	0.37
327.696	0.37
328.159	0.37
328.622	0.37
329.084	0.36
329.547	0.36
330.009	0.36
330.472	0.36
330.934	0.36
331.397	0.36
331.859	0.36
332.322	0.36
332.784	0.36
333.246	0.36
333.709	0.36
334.171	0.36
334.633	0.36
335.096	0.35
335.558	0.35
336.02	0.35
336.482	0.35
336.944	0.35
337.406	0.35
337.868	0.35
338.331	0.35
338.793	0.35
339.255	0.35
339.717	0.35
340.178	0.35
340.64	0.35
341.102	0.35
341.564	0.35
342.026	0.35
342.488	0.34
342.949	0.34
343.411	0.34
343.873	0.34
344.335	0.34
344.796	0.34
345.258	0.34
345.719	0.34
346.181	0.34
346.643	0.34
347.104	0.34
347.566	0.34
348.027	0.34
348.488	0.34
348.95	0.34
349.411	0.34
349.873	0.34
350.334	0.34
350.795	0.34
351.256	0.34
351.718	0.34
352.179	0.34
352.64	0.34
353.101	0.34
353.562	0.34
354.023	0.34
354.484	0.34
354.945	0.33
355.406	0.33
355.867	0.33
356.328	0.33
356.789	0.33
357.25	0.33
357.711	0.33
358.172	0.33
358.633	0.33
359.093	0.33
359.554	0.33
360.015	0.33
360.476	0.33
360.936	0.33
361.397	0.33
361.858	0.33
362.318	0.33
362.779	0.33
363.239	0.33
363.7	0.33
364.16	0.33
364.621	0.33
365.081	0.33
365.541	0.33
366.002	0.33
366.462	0.33
366.922	0.33
367.383	0.33
367.843	0.33
368.303	0.33
368.763	0.33
369.223	0.33
369.684	0.33
370.144	0.33
370.604	0.33
371.064	0.33
371.524	0.33
371.984	0.33
372.444	0.33
372.904	0.33
373.363	0.33
373.823	0.33
374.283	0.33
374.743	0.33
375.203	0.33
375.663	0.32
376.122	0.32
376.582	0.32
377.042	0.32
377.501	0.32
377.961	0.32
378.42	0.32
378.88	0.32
379.34	0.32
379.799	0.32
380.259	0.32
380.718	0.32
381.177	0.32
381.637	0.32
382.096	0.32
382.555	0.32
383.015	0.32
383.474	0.32
383.933	0.32
384.393	0.32
384.852	0.32
385.311	0.32
385.77	0.32
386.229	0.32
386.688	0.32
387.147	0.32
387.606	0.32
388.065	0.32
388.524	0.32
388.983	0.32
389.442	0.32
389.901	0.32
390.36	0.32
390.819	0.32
391.277	0.32
391.736	0.31
392.195	0.31
392.654	0.31
393.112	0.31
393.571	0.31
394.03	0.31
394.488	0.31
394.947	0.31
395.405	0.31
395.864	0.31
396.322	0.31
396.781	0.31
397.239	0.31
397.698	0.31
398.156	0.31
398.614	0.31
399.073	0.31
399.531	0.31
399.989	0.31
400.447	0.31
400.905	0.31
401.364	0.31
401.822	0.31
402.28	0.31
402.738	0.31
403.196	0.31
403.654	0.31
404.112	0.31
404.57	0.31
405.028	0.31
405.486	0.31
405.944	0.31
406.402	0.31
406.859	0.31
407.317	0.31
407.775	0.31
408.233	0.31
408.691	0.31
409.148	0.31
409.606	0.3
410.064	0.3
410.521	0.3
410.979	0.3
411.436	0.3
411.894	0.3
412.351	0.3
412.809	0.3
413.266	0.3
413.724	0.3
414.181	0.3
414.638	0.3
415.096	0.3
415.553	0.3
416.01	0.3
416.467	0.3
416.925	0.3
417.382	0.3
417.839	0.3
418.296	0.3
418.753	0.3
419.21	0.3
419.667	0.3
420.124	0.3
420.581	0.3
421.038	0.3
421.495	0.3
421.952	0.3
422.409	0.3
422.866	0.3
423.322	0.3
423.779	0.3
424.236	0.3
424.693	0.3
425.149	0.3
425.606	0.3
426.063	0.3
426.519	0.3
426.976	0.3
427.433	0.3
427.889	0.3
428.346	0.3
428.802	0.3
429.258	0.3
429.715	0.3
430.171	0.3
430.628	0.3
431.084	0.3
431.54	0.3
431.997	0.3
432.453	0.3
432.909	0.3
433.365	0.3
433.821	0.3
434.277	0.3
434.734	0.3
435.19	0.3
435.646	0.3
436.102	0.3
436.558	0.3
437.014	0.3
437.47	0.3
437.925	0.3
438.381	0.3
438.837	0.3
439.293	0.29
439.749	0.29
440.205	0.29
440.66	0.29
441.116	0.29
441.572	0.29
442.027	0.29
442.483	0.29
442.939	0.29
443.394	0.29
443.85	0.29
444.305	0.29
444.761	0.29
445.216	0.29
445.672	0.29
446.127	0.29
446.582	0.29
447.038	0.29
447.493	0.29
447.948	0.29
448.403	0.29
448.859	0.29
449.314	0.29
449.769	0.29
450.224	0.29
450.679	0.29
451.134	0.29
451.589	0.29
452.044	0.29
452.499	0.3
452.954	0.3
453.409	0.3
453.864	0.3
454.319	0.3
454.774	0.3
455.229	0.3
455.684	0.3
456.138	0.3
456.593	0.3
457.048	0.3
457.503	0.3
457.957	0.3
458.412	0.3
458.866	0.3
459.321	0.3
459.776	0.3
460.23	0.3
460.685	0.3
461.139	0.3
461.593	0.3
462.048	0.3
462.502	0.3
462.957	0.3
463.411	0.3
463.865	0.3
464.319	0.3
464.774	0.3
465.228	0.3
465.682	0.3
466.136	0.3
466.59	0.3
467.044	0.3
467.499	0.3
467.953	0.3
468.407	0.3
468.861	0.3
469.315	0.3
469.768	0.3
470.222	0.31
470.676	0.31
471.13	0.31
471.584	0.31
472.038	0.31
472.491	0.31
472.945	0.31
473.399	0.31
473.852	0.31
474.306	0.31
474.76	0.31
475.213	0.31
475.667	0.31
476.12	0.31
476.574	0.31
477.027	0.31
477.481	0.32
477.934	0.32
478.388	0.32
478.841	0.32
479.294	0.32
479.748	0.32
480.201	0.32
480.654	0.32
481.107	0.32
481.561	0.32
482.014	0.33
482.467	0.33
482.92	0.33
483.373	0.33
483.826	0.33
484.279	0.33
484.732	0.33
485.185	0.34
485.638	0.34
486.091	0.34
486.544	0.34
486.997	0.34
487.449	0.34
487.902	0.34
488.355	0.34
488.808	0.35
489.26	0.35
489.713	0.35
490.166	0.35
490.618	0.35
491.071	0.36
491.523	0.36
491.976	0.36
492.429	0.36
492.881	0.36
493.333	0.37
493.786	0.37
494.238	0.37
494.691	0.37
495.143	0.38
495.595	0.38
496.048	0.38
496.5	0.38
496.952	0.38
497.404	0.39
497.856	0.39
498.309	0.39
498.761	0.39
499.213	0.4
499.665	0.4
500.117	0.4
500.569	0.4
501.021	0.41
501.473	0.41
501.925	0.41
502.377	0.41
502.828	0.42
503.28	0.42
503.732	0.42
504.184	0.42
504.636	0.42
505.087	0.43
505.539	0.43
505.991	0.43
506.442	0.43
506.894	0.44
507.345	0.44
507.797	0.44
508.249	0.44
508.7	0.45
509.151	0.45
509.603	0.45
510.054	0.45
510.506	0.45
510.957	0.46
511.408	0.46
511.86	0.46
512.311	0.46
512.762	0.46
513.213	0.47
513.665	0.47
514.116	0.47
514.567	0.47
515.018	0.47
515.469	0.47
515.92	0.48
516.371	0.48
516.822	0.48
517.273	0.48
517.724	0.48
518.175	0.48
518.626	0.48
519.076	0.48
519.527	0.48
519.978	0.48
520.429	0.49
520.88	0.49
521.33	0.49
521.781	0.49
522.232	0.49
522.682	0.49
523.133	0.49
523.583	0.49
524.034	0.49
524.484	0.49
524.935	0.49
525.385	0.49
525.836	0.49
526.286	0.49
526.736	0.49
527.187	0.49
527.637	0.49
528.087	0.48
528.538	0.48
528.988	0.48
529.438	0.48
529.888	0.48
530.338	0.48
530.788	0.48
531.238	0.48
531.688	0.48
532.139	0.47
532.589	0.47
533.038	0.47
533.488	0.47
533.938	0.47
534.388	0.47
534.838	0.46
535.288	0.46
535.738	0.46
536.187	0.46
536.637	0.45
537.087	0.45
537.537	0.45
537.986	0.45
538.436	0.44
538.885	0.44
539.335	0.44
539.785	0.44
540.234	0.43
540.684	0.43
541.133	0.43
541.582	0.43
542.032	0.42
542.481	0.42
542.931	0.42
543.38	0.41
543.829	0.41
544.278	0.41
544.728	0.4
545.177	0.4
545.626	0.4
546.075	0.39
546.524	0.39
546.973	0.39
547.422	0.39
547.871	0.38
548.32	0.38
548.769	0.38
549.218	0.37
549.667	0.37
550.116	0.37
550.565	0.36
551.014	0.36
551.463	0.36
551.911	0.35
552.36	0.35
552.809	0.35
553.258	0.34
553.706	0.34
554.155	0.34
554.603	0.33
555.052	0.33
555.501	0.33
555.949	0.32
556.398	0.32
556.846	0.32
557.294	0.31
557.743	0.31
558.191	0.31
558.64	0.3
559.088	0.3
559.536	0.3
559.985	0.29
560.433	0.29
560.881	0.29
561.329	0.28
561.777	0.28
562.225	0.28
562.674	0.28
563.122	0.27
563.57	0.27
564.018	0.27
564.466	0.26
564.914	0.26
565.362	0.26
565.809	0.26
566.257	0.25
566.705	0.25
567.153	0.25
567.601	0.24
568.048	0.24
568.496	0.24
568.944	0.24
569.392	0.23
569.839	0.23
570.287	0.23
570.734	0.23
571.182	0.22
571.63	0.22
572.077	0.22
572.525	0.22
572.972	0.22
573.419	0.21
573.867	0.21
574.314	0.21
574.761	0.21
575.209	0.21
575.656	0.21
576.103	0.2
576.551	0.2
576.998	0.2
577.445	0.2
577.892	0.2
578.339	0.2
578.786	0.19
579.233	0.19
579.68	0.19
580.127	0.19
580.574	0.18
581.021	0.18
581.468	0.18
581.915	0.18
582.362	0.18
582.809	0.18
583.255	0.18
583.702	0.17
584.149	0.17
584.596	0.17
585.042	0.17
585.489	0.17
585.936	0.17
586.382	0.17
586.829	0.17
587.275	0.16
587.722	0.16
588.168	0.16
588.615	0.16
589.061	0.16
589.508	0.16
589.954	0.16
590.4	0.16
590.847	0.16
591.293	0.16
591.739	0.16
592.185	0.15
592.632	0.15
593.078	0.15
593.524	0.15
593.97	0.15
594.416	0.15
594.862	0.15
595.308	0.15
595.754	0.15
596.2	0.15
596.646	0.15
597.092	0.15
597.538	0.15
597.984	0.15
598.43	0.15
598.876	0.15
599.321	0.15
599.767	0.15
600.213	0.15
600.659	0.14
601.104	0.14
601.55	0.14
601.995	0.14
602.441	0.14
602.887	0.14
603.332	0.14
603.778	0.14
604.223	0.14
604.668	0.14
605.114	0.14
605.559	0.14
606.005	0.14
606.45	0.14
606.895	0.14
607.341	0.14
607.786	0.14
608.231	0.14
608.676	0.14
609.121	0.14
609.566	0.14
610.012	0.14
610.457	0.14
610.902	0.14
611.347	0.14
611.792	0.14
612.237	0.15
612.682	0.15
613.127	0.15
613.571	0.15
614.016	0.15
614.461	0.15
614.906	0.15
615.351	0.15
615.795	0.15
616.24	0.15
616.685	0.15
617.129	0.15
617.574	0.15
618.019	0.15
618.463	0.15
618.908	0.15
619.352	0.15
619.797	0.15
620.241	0.15
620.686	0.15
621.13	0.15
621.574	0.15
622.019	0.15
622.463	0.15
622.907	0.16
623.352	0.16
623.796	0.16
624.24	0.16
624.684	0.16
625.128	0.16
625.572	0.16
626.016	0.16
626.461	0.16
626.905	0.16
627.349	0.17
627.793	0.17
628.236	0.17
628.68	0.17
629.124	0.17
629.568	0.17
630.012	0.17
630.456	0.17
630.9	0.17
631.343	0.18
631.787	0.18
632.231	0.18
632.674	0.18
633.118	0.18
633.562	0.18
634.005	0.19
634.449	0.19
634.892	0.19
635.336	0.19
635.779	0.19
636.223	0.19
636.666	0.2
637.109	0.2
637.553	0.2
637.996	0.2
638.439	0.2
638.883	0.21
639.326	0.21
639.769	0.21
640.212	0.21
640.655	0.22
641.099	0.22
641.542	0.22
641.985	0.22
642.428	0.22
642.871	0.23
643.314	0.23
643.757	0.23
644.2	0.23
644.643	0.24
645.085	0.24
645.528	0.24
645.971	0.25
646.414	0.25
646.857	0.25
647.299	0.25
647.742	0.26
648.185	0.26
648.627	0.26
649.07	0.27
649.513	0.27
649.955	0.27
650.398	0.28
650.84	0.28
651.283	0.28
651.725	0.29
652.168	0.29
652.61	0.29
653.052	0.3
653.495	0.3
653.937	0.23
654.379	0.18
654.821	0.19
655.264	0.19
655.706	0.2
656.148	0.2
656.59	0.2
657.032	0.2
657.474	0.21
657.916	0.2
658.358	0.2
658.8	0.26
659.242	0.35
659.684	0.35
660.126	0.36
660.568	0.36
661.01	0.37
661.452	0.37
661.894	0.37
662.335	0.38
662.777	0.38
663.219	0.39
663.661	0.39
664.102	0.39
664.544	0.4
664.985	0.4
665.427	0.4
665.869	0.41
666.31	0.41
666.752	0.42
667.193	0.42
667.634	0.42
668.076	0.43
668.517	0.43
668.959	0.44
669.4	0.44
669.841	0.44
670.282	0.45
670.724	0.45
671.165	0.45
671.606	0.46
672.047	0.46
672.488	0.46
672.929	0.46
673.37	0.47
673.811	0.47
674.252	0.47
674.693	0.47
675.134	0.48
675.575	0.48
676.016	0.48
676.457	0.49
676.898	0.49
677.339	0.49
677.78	0.49
678.22	0.49
678.661	0.5
679.102	0.5
679.542	0.5
679.983	0.5
680.424	0.5
680.864	0.51
681.305	0.51
681.745	0.51
682.186	0.51
682.626	0.51
683.067	0.51
683.507	0.51
683.948	0.51
684.388	0.51
684.828	0.51
685.269	0.51
685.709	0.51
686.149	0.51
686.589	0.51
687.029	0.51
687.47	0.51
687.91	0.51
688.35	0.51
688.79	0.51
689.23	0.51
689.67	0.51
690.11	0.51
690.55	0.51
690.99	0.51
691.43	0.51
691.87	0.51
692.31	0.51
692.749	0.51
693.189	0.5
693.629	0.5
694.069	0.5
694.508	0.5
694.948	0.5
695.388	0.5
695.827	0.49
696.267	0.49
696.706	0.49
697.146	0.49
697.586	0.49
698.025	0.48
698.464	0.48
698.904	0.48
699.343	0.48
699.783	0.47
700.222	0.47
700.661	0.47
701.101	0.47
701.54	0.46
701.979	0.46
702.418	0.46
702.857	0.46
703.297	0.45
703.736	0.45
704.175	0.45
704.614	0.45
705.053	0.44
705.492	0.44
705.931	0.44
706.37	0.44
706.809	0.43
707.248	0.43
707.687	0.43
708.125	0.42
708.564	0.42
709.003	0.42
709.442	0.41
709.88	0.41
710.319	0.41
710.758	0.4
711.196	0.4
711.635	0.4
712.074	0.39
712.512	0.39
712.951	0.39
713.389	0.39
713.828	0.38
714.266	0.38
714.705	0.38
715.143	0.37
715.581	0.37
716.02	0.37
716.458	0.37
716.896	0.36
717.334	0.36
717.773	0.35
718.211	0.35
718.649	0.35
719.087	0.34
719.525	0.34
719.963	0.34
720.401	0.33
720.839	0.33
721.277	0.33
721.715	0.32
722.153	0.32
722.591	0.32
723.029	0.31
723.467	0.31
723.905	0.31
724.342	0.3
724.78	0.3
725.218	0.3
725.656	0.29
726.093	0.29
726.531	0.29
726.969	0.29
727.406	0.28
727.844	0.28
728.281	0.28
728.719	0.28
729.156	0.28
729.594	0.28
730.031	0.27
730.469	0.27
730.906	0.27
731.343	0.27
731.781	0.26
732.218	0.26
732.655	0.26
733.092	0.25
733.53	0.25
733.967	0.25
734.404	0.25
734.841	0.24
735.278	0.24
735.715	0.24
736.152	0.24
736.589	0.23
737.026	0.23
737.463	0.23
737.9	0.23
738.337	0.23
738.774	0.22
739.211	0.22
739.647	0.22
740.084	0.22
740.521	0.22
740.958	0.22
741.394	0.21
741.831	0.21
742.268	0.21
742.704	0.21
743.141	0.2
743.577	0.2
744.014	0.2
744.45	0.2
744.887	0.19
745.323	0.19
745.76	0.19
746.196	0.19
746.632	0.19
747.069	0.18
747.505	0.18
747.941	0.18
748.378	0.18
748.814	0.18
749.25	0.17
749.686	0.17
750.122	0.17
750.558	0.17
750.994	0.17
751.43	0.17
751.866	0.16
752.302	0.16
752.738	0.16
753.174	0.16
753.61	0.16
754.046	0.16
754.482	0.15
754.918	0.15
755.354	0.15
755.789	0.15
756.225	0.15
756.661	0.15
757.096	0.15
757.532	0.15
757.968	0.14
758.403	0.14
758.839	0.14
759.274	0.14
759.71	0.14
760.145	0.13
760.581	0.13
761.016	0.13
761.452	0.13
761.887	0.13
762.322	0.13
762.758	0.13
763.193	0.13
763.628	0.13
764.063	0.13
764.499	0.13
764.934	0.13
765.369	0.12
765.804	0.12
766.239	0.12
766.674	0.12
767.109	0.12
767.544	0.12
767.979	0.12
768.414	0.11
768.849	0.11
769.284	0.11
769.719	0.11
770.154	0.11
770.588	0.11
771.023	0.11
771.458	0.11
771.893	0.11
772.327	0.11
772.762	0.11
773.197	0.11
773.631	0.11
774.066	0.11
774.5	0.11
774.935	0.1
775.369	0.1
775.804	0.1
776.238	0.1
776.673	0.1
777.107	0.1
777.541	0.1
777.976	0.1
778.41	0.1
778.844	0.1
779.279	0.1
779.713	0.1
780.147	0.1
780.581	0.09
781.015	0.09
781.449	0.09
781.883	0.09
782.317	0.09
782.751	0.09
783.185	0.09
783.619	0.09
784.053	0.09
784.487	0.08
784.921	0.08
785.355	0.08
785.789	0.08
786.223	0.08
786.656	0.08
787.09	0.08
787.524	0.08
787.957	0.08
788.391	0.08
788.825	0.08
789.258	0.08
789.692	0.08
790.125	0.08
790.559	0.08
790.992	0.08
791.426	0.08
791.859	0.08
792.293	0.08
792.726	0.08
793.159	0.08
793.593	0.08
794.026	0.08
794.459	0.08
794.892	0.08
795.326	0.08
795.759	0.07
796.192	0.07
796.625	0.07
797.058	0.07
797.491	0.07
797.924	0.07
798.357	0.07
798.79	0.07
799.223	0.07
799.656	0.07
800.089	0.07
800.522	0.07
800.955	0.07
801.387	0.07
801.82	0.07
802.253	0.07
802.686	0.07
803.118	0.07
803.551	0.07
803.984	0.07
804.416	0.07
804.849	0.07
805.281	0.07
805.714	0.06
806.146	0.06
806.579	0.06
807.011	0.06
807.444	0.06
807.876	0.06
808.308	0.06
808.741	0.06
809.173	0.06
809.605	0.06
810.037	0.06
810.47	0.06
810.902	0.06
811.334	0.06
811.766	0.06
812.198	0.06
812.63	0.06
813.062	0.06
813.494	0.06
813.926	0.06
814.358	0.06
814.79	0.06
815.222	0.06
815.654	0.06
816.086	0.06
816.518	0.06
816.949	0.06
817.381	0.06
817.813	0.06
818.245	0.06
818.676	0.06
819.108	0.06
819.54	0.06
819.971	0.06
820.403	0.06
820.834	0.06
821.266	0.06
821.697	0.06
822.129	0.06
822.56	0.06
822.991	0.06
823.423	0.06
823.854	0.06
824.286	0.06
824.717	0.06
825.148	0.06
825.579	0.06
826.01	0.06
826.442	0.06
826.873	0.06
827.304	0.06
827.735	0.06
828.166	0.06
828.597	0.06
829.028	0.06
829.459	0.06
829.89	0.06
830.321	0.06
830.752	0.06
831.183	0.05
831.613	0.05
832.044	0.05
832.475	0.05
832.906	0.05
833.336	0.05
833.767	0.05
834.198	0.05
834.628	0.05
835.059	0.05
835.49	0.05
835.92	0.05
836.351	0.05
836.781	0.05
837.212	0.05
837.642	0.05
838.072	0.05
838.503	0.05
838.933	0.05
839.364	0.04
839.794	0.04
840.224	0.04
840.654	0.04
841.085	0.04
841.515	0.04
841.945	0.04
842.375	0.04
842.805	0.04
843.235	0.04
843.665	0.04
844.095	0.04
844.525	0.04
844.955	0.04
845.385	0.04
845.815	0.04
846.245	0.04
846.675	0.04
847.105	0.04
847.534	0.04
847.964	0.05
848.394	0.05
848.824	0.05
849.253	0.05
849.683	0.05
850.112	0.04
850.542	0.04
850.972	0.04
851.401	0.04
851.831	0.04
852.26	0.04
852.69	0.04
853.119	0.04
853.548	0.04
853.978	0.04
854.407	0.04
854.836	0.04
855.266	0.04
855.695	0.04
856.124	0.04
856.553	0.04
856.983	0.04
857.412	0.04
857.841	0.04
858.27	0.04
858.699	0.04
859.128	0.04
859.557	0.04
859.986	0.04
860.415	0.04
860.844	0.04
861.273	0.04
861.702	0.04
862.13	0.04
862.559	0.04
862.988	0.04
863.417	0.04
863.845	0.04
864.274	0.04
864.703	0.04
865.131	0.04
865.56	0.04
865.989	0.04
866.417	0.04
866.846	0.04
867.274	0.04
867.703	0.04
868.131	0.04
868.559	0.04
868.988	0.04
869.416	0.04
869.844	0.04
870.273	0.04
870.701	0.04
871.129	0.04
871.557	0.04
871.986	0.04
872.414	0.03
872.842	0.03
873.27	0.03
873.698	0.03
874.126	0.03
874.554	0.03
874.982	0.03
875.41	0.03
875.838	0.03
876.266	0.03
876.694	0.03
877.122	0.03
877.549	0.03
877.977	0.03
878.405	0.03
878.833	0.03
879.26	0.03
879.688	0.03
880.116	0.03
880.543	0.03
880.971	0.03
881.399	0.03
881.826	0.03
882.254	0.03
882.681	0.03
883.109	0.03
883.536	0.03
883.963	0.03
884.391	0.03
884.818	0.03
885.245	0.03
885.673	0.03
886.1	0.03
886.527	0.03
886.954	0.03
887.381	0.03
887.809	0.03
888.236	0.03
888.663	0.03
889.09	0.03
889.517	0.03
889.944	0.03
890.371	0.03
890.798	0.03
891.225	0.03
891.652	0.03
892.078	0.03
892.505	0.03
892.932	0.03
893.359	0.03
893.786	0.03
894.212	0.03
894.639	0.03
895.066	0.03
895.492	0.03
895.919	0.03
896.346	0.03
896.772	0.03
897.199	0.03
897.625	0.03
898.052	0.03
898.478	0.03
898.904	0.03
899.331	0.03
899.757	0.03
900.183	0.03
900.61	0.03
901.036	0.03
901.462	0.03
901.888	0.03
902.315	0.03
902.741	0.03
903.167	0.03
903.593	0.03
904.019	0.03
904.445	0.03
904.871	0.03
905.297	0.03
905.723	0.03
906.149	0.03
906.575	0.03
907.001	0.03
907.427	0.03
907.852	0.03
908.278	0.03
908.704	0.03
909.13	0.03
909.555	0.03
909.981	0.03
910.407	0.03
910.832	0.03
911.258	0.03
911.684	0.03
912.109	0.03
912.535	0.03
912.96	0.03
913.386	0.02
913.811	0.02
914.236	0.02
914.662	0.02
915.087	0.02
915.512	0.02
915.938	0.02
916.363	0.02
916.788	0.02
917.213	0.02
917.639	0.02
918.064	0.02
918.489	0.03
918.914	0.03
919.339	0.03
919.764	0.03
920.189	0.03
920.614	0.03
921.039	0.03
921.464	0.03
921.889	0.03
922.314	0.03
922.738	0.03
923.163	0.02
923.588	0.02
924.013	0.02
924.437	0.02
924.862	0.02
925.287	0.02
925.711	0.02
926.136	0.02
926.561	0.03
926.985	0.03
927.41	0.03
927.834	0.03
928.259	0.03
928.683	0.03
929.108	0.03
929.532	0.03
929.956	0.03
930.381	0.03
930.805	0.03
931.229	0.03
931.653	0.03
932.078	0.03
932.502	0.03
932.926	0.03
933.35	0.03
933.774	0.03
934.198	0.03
934.622	0.03
935.046	0.03
935.47	0.03
935.894	0.03
936.318	0.03
936.742	0.03
937.166	0.02
937.59	0.02
938.014	0.02
938.437	0.02
938.861	0.02
939.285	0.02
939.709	0.02
940.132	0.02
940.556	0.02
940.98	0.02
941.403	0.02
941.827	0.02
942.25	0.02
942.674	0.02
943.097	0.02
943.521	0.02
943.944	0.02
944.368	0.02
944.791	0.02
945.214	0.02
945.638	0.02
946.061	0.02
946.484	0.02
946.907	0.02
947.331	0.02
947.754	0.02
948.177	0.02
948.6	0.02
949.023	0.02
949.446	0.02
949.869	0.02
950.292	0.02
950.715	0.02
951.138	0.02
951.561	0.02
951.984	0.02
952.407	0.02
952.83	0.02
953.252	0.02
953.675	0.02
954.098	0.02
954.521	0.02
954.943	0.02
955.366	0.02
955.789	0.02
956.211	0.02
956.634	0.02
957.056	0.02
957.479	0.02
957.902	0.02
958.324	0.02
958.746	0.02
959.169	0.02
959.591	0.02
960.014	0.02
960.436	0.02
960.858	0.02
961.281	0.02
961.703	0.02
962.125	0.02
962.547	0.02
962.969	0.02
963.391	0.02
963.814	0.02
964.236	0.02
964.658	0.02
965.08	0.02
965.502	0.02
965.924	0.02
966.346	0.02
966.768	0.02
967.189	0.02
967.611	0.02
968.033	0.02
968.455	0.02
968.877	0.02
969.298	0.02
969.72	0.02
970.142	0.02
970.563	0.02
970.985	0.02
971.407	0.02
971.828	0.02
972.25	0.02
972.671	0.02
973.093	0.02
973.514	0.02
973.936	0.02
974.357	0.02
974.778	0.02
975.2	0.02
975.621	0.02
976.042	0.02
976.464	0.02
976.885	0.02
977.306	0.02
977.727	0.02
978.148	0.02
978.57	0.02
978.991	0.02
979.412	0.02
979.833	0.02
980.254	0.02
980.675	0.02
981.096	0.02
981.517	0.02
981.937	0.02
982.358	0.02
982.779	0.02
983.2	0.02
983.621	0.02
984.042	0.02
984.462	0.02
984.883	0.02
985.304	0.02
985.724	0.02
986.145	0.02
986.565	0.02
986.986	0.02
987.407	0.02
987.827	0.02
988.248	0.02
988.668	0.01
989.088	0.01
989.509	0.01
989.929	0.01
990.35	0.01
990.77	0.01
991.19	0.01
991.61	0.01
992.031	0.01
992.451	0.01
992.871	0.01
993.291	0.01
993.711	0.01
994.131	0.01
994.551	0.01
994.971	0.01
995.391	0.01
995.811	0.01
996.231	0.01
996.651	0.01
997.071	0.01
997.491	0.01
997.911	0.01
998.331	0.01
998.75	0.01
999.17	0.01
999.59	0.01
1000.009	0.01
1000.429	0.01
1000.849	0.01
1001.268	0.01
1001.688	0.02
1002.107	0.02
1002.527	0.02
1002.946	0.02
1003.366	0.02
1003.785	0.02
1004.205	0.02
1004.624	0.02
1005.044	0.01
1005.463	0.01
1005.882	0.01
1006.301	0.01
1006.721	0.01
1007.14	0.01
1007.559	0.01
1007.978	0.01
1008.397	0.01
1008.816	0.01
1009.235	0.01
1009.655	0.01
1010.074	0.01
1010.492	0.01
1010.911	0.01
1011.33	0.01
1011.749	0.01
1012.168	0.01
1012.587	0.01
1013.006	0.01
1013.425	0.01
1013.843	0.01
1014.262	0.01
1014.681	0.01
1015.099	0.01
1015.518	0.01
1015.937	0.01
1016.355	0.01
1016.774	0.01
1017.192	0.01
1017.611	0.01
1018.029	0.01
1018.448	0.01
1018.866	0.01
1019.285	0.01
1019.703	0.01
1020.121	0.01
1020.54	0.01
1020.958	0.01
1021.376	0.01
1021.794	0.01
1022.213	0.01
1022.631	0.01
1023.049	0.01
1023.467	0.01
1023.885	0.01
1024.303	0.01
1024.721	0.01
1025.139	0.01
1025.557	0.01
1025.975	0.01
1026.393	0.01
1026.811	0.01
1027.229	0.01
1027.647	0.01
1028.065	0.01
1028.482	0.01
1028.9	0.01
1029.318	0.01
1029.735	0.01
1030.153	0.01
1030.571	0.01
1030.988	0.01
1031.406	0.01
1031.823	0.01
1032.241	0.01
1032.659	0.01
1033.076	0.01
1033.493	0
1033.911	0
1034.328	0
1034.746	0
1035.163	0
1035.58	0
1035.997	0
1036.415	0
1036.832	0
1037.249	-0
1037.666	-0
1038.083	-0
1038.501	-0
1038.918	-0
1039.335	-0
1039.752	-0
1040.169	-0
1040.586	-0
1041.003	-0
1041.419	-0
1041.836	-0
1042.253	-0
1042.67	-0
1043.087	-0
1043.504	-0
1043.92	-0
1044.337	-0
1044.754	-0
1045.17	-0
1045.587	-0
1046.004	-0
1046.42	-0
1046.837	-0
1047.253	-0
1047.67	-0
1048.086	-0
1048.503	-0
1048.919	-0.01
1049.335	-0.01
1049.752	-0.01
1050.168	-0.01
1050.584	-0.01
1051.001	-0.01
1051.417	-0.01
1051.833	-0.01
1052.249	-0.01
1052.665	-0.01
1053.081	-0.01
1053.497	-0.01
1053.914	-0.01
1054.33	-0.01
1054.746	-0.01
1055.162	-0.01
1055.578	-0.01
1055.993	-0.01
1056.409	-0.01
1056.825	-0.01
1057.241	-0.02
1057.657	-0.02
1058.073	-0.02
1058.488	-0.02
1058.904	-0.02
1059.32	-0.02
1059.736	-0.02
1060.151	-0.02
1060.567	-0.02
1060.982	-0.02
1061.398	-0.02
1061.813	-0.02
1062.229	-0.02
1062.644	-0.02
1063.06	-0.02
1063.475	-0.02
1063.891	-0.02
1064.306	-0.02
1064.721	-0.02
1065.137	-0.02
1065.552	-0.02
1065.967	-0.02
1066.382	-0.02
1066.798	-0.02
1067.213	-0.02
1067.628	-0.02
1068.043	-0.02
1068.458	-0.02
1068.873	-0.02
1069.288	-0.02
1069.703	-0.02
1070.118	-0.02
1070.533	-0.02
1070.948	-0.02
1071.363	-0.02
1071.778	-0.02
1072.193	-0.02
1072.607	-0.02
1073.022	-0.02
1073.437	-0.02
1073.852	-0.02
1074.266	-0.02
1074.681	-0.02
1075.096	-0.02
1075.51	-0.02
1075.925	-0.02
1076.339	-0.02
1076.754	-0.02
1077.168	-0.02
1077.583	-0.02
1077.997	-0.02
1078.412	-0.02
1078.826	-0.02
1079.24	-0.02
1079.655	-0.02
1080.069	-0.02
1080.483	-0.02
1080.897	-0.02
1081.312	-0.02
1081.726	-0.02
1082.14	-0.02
1082.554	-0.02
1082.968	-0.02
1083.382	-0.02
1083.796	-0.02
1084.21	-0.02
1084.624	-0.02
1085.038	-0.02
1085.452	-0.02
1085.866	-0.02
1086.28	-0.02
1086.694	-0.02
1087.108	-0.02
1087.521	-0.02
1087.935	-0.02
1088.349	-0.02
1088.763	-0.02
1089.176	-0.02
1089.59	-0.03
1090.004	-0.03
1090.417	-0.03
1090.831	-0.03
1091.244	-0.03
1091.658	-0.03
1092.071	-0.03
1092.485	-0.03
1092.898	-0.03
1093.312	-0.03
1093.725	-0.03
1094.138	-0.03
1094.552	-0.03
1094.965	-0.03
1095.378	-0.03
1095.791	-0.03
1096.205	-0.03
1096.618	-0.03
1097.031	-0.03
1097.444	-0.03
1097.857	-0.04
1098.27	-0.04
1098.683	-0.04
1099.096	-0.04
1099.509	-0.04
1099.922	-0.04
1100.335	-0.04
1100.748	-0.04
1101.161	-0.05
1101.574	-0.05
1101.986	-0.05
1102.399	-0.05
1102.812	-0.05
1103.225	-0.06
1103.637	-0.06
1104.05	-0.06
1104.463	-0.06
1104.875	-0.06
1105.288	-0.06
1105.7	-0.06
1106.113	-0.07
1106.525	-0.07
1106.938	-0.07
1107.35	-0.07
1107.763	-0.07
1108.175	-0.07
1108.588	-0.08
1109	-0.08
1109.412	-0.09
1109.824	-0.09
1110.237	-0.09
1110.649	-0.09
1111.061	-0.09
