Data from disp-1_Absorbance__0__09-36-47-442.txt Node

Date: Thu Feb 22 09:36:47 CET 2024
User: Laser008
Spectrometer: MAYP115816
Trigger mode: 0
Integration Time (sec): 1.800000E-1
Scans to average: 10
Electric dark correction enabled: true
Nonlinearity correction enabled: true
Boxcar width: 5
XAxis mode: Wavelengths
Number of Pixels in Spectrum: 2068
>>>>>Begin Spectral Data<<<<<
198.914	-0.11
199.384	-0.08
199.855	-0.03
200.325	0.01
200.796	0.04
201.266	0.05
201.737	0.06
202.207	0.07
202.677	0.07
203.147	0.07
203.618	0.08
204.088	0.09
204.558	0.1
205.028	0.11
205.498	0.1
205.968	0.1
206.439	0.1
206.909	0.1
207.379	0.1
207.849	0.1
208.319	0.1
208.789	0.1
209.258	0.1
209.728	0.1
210.198	0.1
210.668	0.1
211.138	0.1
211.608	0.1
212.077	0.1
212.547	0.1
213.017	0.1
213.486	0.1
213.956	0.11
214.426	0.11
214.895	0.11
215.365	0.11
215.834	0.11
216.304	0.11
216.773	0.12
217.243	0.12
217.712	0.12
218.181	0.12
218.651	0.12
219.12	0.13
219.589	0.12
220.058	0.13
220.528	0.13
220.997	0.13
221.466	0.14
221.935	0.14
222.404	0.14
222.873	0.15
223.342	0.15
223.812	0.15
224.281	0.16
224.749	0.17
225.218	0.18
225.687	0.18
226.156	0.19
226.625	0.2
227.094	0.21
227.563	0.22
228.031	0.23
228.5	0.24
228.969	0.26
229.438	0.27
229.906	0.29
230.375	0.3
230.844	0.32
231.312	0.34
231.781	0.36
232.249	0.38
232.718	0.39
233.186	0.41
233.655	0.43
234.123	0.44
234.591	0.46
235.06	0.47
235.528	0.48
235.996	0.49
236.465	0.5
236.933	0.51
237.401	0.52
237.869	0.53
238.337	0.53
238.805	0.54
239.274	0.55
239.742	0.55
240.21	0.56
240.678	0.56
241.146	0.57
241.614	0.57
242.081	0.57
242.549	0.58
243.017	0.58
243.485	0.58
243.953	0.59
244.421	0.59
244.888	0.59
245.356	0.6
245.824	0.6
246.291	0.6
246.759	0.6
247.227	0.61
247.694	0.61
248.162	0.61
248.629	0.61
249.097	0.62
249.564	0.62
250.032	0.62
250.499	0.62
250.967	0.62
251.434	0.63
251.901	0.63
252.369	0.63
252.836	0.63
253.303	0.63
253.77	0.64
254.237	0.64
254.705	0.64
255.172	0.64
255.639	0.64
256.106	0.64
256.573	0.64
257.04	0.64
257.507	0.65
257.974	0.65
258.441	0.65
258.908	0.65
259.375	0.65
259.841	0.65
260.308	0.65
260.775	0.65
261.242	0.64
261.709	0.64
262.175	0.64
262.642	0.64
263.109	0.64
263.575	0.64
264.042	0.64
264.508	0.64
264.975	0.64
265.441	0.63
265.908	0.63
266.374	0.63
266.841	0.63
267.307	0.63
267.773	0.62
268.24	0.62
268.706	0.62
269.172	0.61
269.639	0.61
270.105	0.61
270.571	0.61
271.037	0.6
271.503	0.6
271.969	0.6
272.435	0.59
272.902	0.59
273.368	0.59
273.834	0.58
274.3	0.58
274.765	0.58
275.231	0.57
275.697	0.57
276.163	0.57
276.629	0.56
277.095	0.56
277.56	0.56
278.026	0.55
278.492	0.55
278.958	0.54
279.423	0.54
279.889	0.54
280.354	0.53
280.82	0.53
281.286	0.53
281.751	0.52
282.217	0.52
282.682	0.51
283.147	0.51
283.613	0.51
284.078	0.51
284.544	0.5
285.009	0.5
285.474	0.5
285.939	0.49
286.405	0.49
286.87	0.49
287.335	0.48
287.8	0.48
288.265	0.48
288.73	0.47
289.195	0.47
289.66	0.47
290.125	0.47
290.59	0.46
291.055	0.46
291.52	0.46
291.985	0.46
292.45	0.45
292.915	0.45
293.38	0.45
293.844	0.45
294.309	0.44
294.774	0.44
295.239	0.44
295.703	0.44
296.168	0.44
296.632	0.44
297.097	0.43
297.562	0.43
298.026	0.43
298.491	0.43
298.955	0.43
299.419	0.43
299.884	0.43
300.348	0.42
300.813	0.42
301.277	0.42
301.741	0.42
302.205	0.42
302.67	0.42
303.134	0.42
303.598	0.41
304.062	0.41
304.526	0.41
304.99	0.41
305.454	0.41
305.919	0.41
306.383	0.41
306.847	0.41
307.31	0.4
307.774	0.4
308.238	0.4
308.702	0.4
309.166	0.4
309.63	0.4
310.094	0.4
310.557	0.4
311.021	0.4
311.485	0.39
311.948	0.39
312.412	0.39
312.876	0.39
313.339	0.39
313.803	0.39
314.266	0.39
314.73	0.39
315.193	0.39
315.657	0.39
316.12	0.38
316.584	0.38
317.047	0.38
317.51	0.38
317.973	0.38
318.437	0.38
318.9	0.38
319.363	0.38
319.826	0.38
320.29	0.38
320.753	0.38
321.216	0.37
321.679	0.37
322.142	0.37
322.605	0.37
323.068	0.37
323.531	0.37
323.994	0.37
324.457	0.37
324.92	0.37
325.382	0.37
325.845	0.37
326.308	0.36
326.771	0.36
327.233	0.36
327.696	0.36
328.159	0.36
328.622	0.36
329.084	0.36
329.547	0.36
330.009	0.36
330.472	0.36
330.934	0.36
331.397	0.36
331.859	0.35
332.322	0.35
332.784	0.35
333.246	0.35
333.709	0.35
334.171	0.35
334.633	0.35
335.096	0.35
335.558	0.35
336.02	0.35
336.482	0.35
336.944	0.35
337.406	0.35
337.868	0.35
338.331	0.35
338.793	0.34
339.255	0.34
339.717	0.34
340.178	0.34
340.64	0.34
341.102	0.34
341.564	0.34
342.026	0.34
342.488	0.34
342.949	0.34
343.411	0.34
343.873	0.34
344.335	0.34
344.796	0.34
345.258	0.34
345.719	0.34
346.181	0.34
346.643	0.34
347.104	0.34
347.566	0.34
348.027	0.34
348.488	0.34
348.95	0.34
349.411	0.34
349.873	0.34
350.334	0.33
350.795	0.33
351.256	0.33
351.718	0.33
352.179	0.33
352.64	0.33
353.101	0.33
353.562	0.33
354.023	0.33
354.484	0.33
354.945	0.33
355.406	0.33
355.867	0.33
356.328	0.33
356.789	0.33
357.25	0.33
357.711	0.33
358.172	0.33
358.633	0.33
359.093	0.33
359.554	0.33
360.015	0.33
360.476	0.33
360.936	0.33
361.397	0.33
361.858	0.33
362.318	0.33
362.779	0.33
363.239	0.33
363.7	0.33
364.16	0.33
364.621	0.33
365.081	0.33
365.541	0.33
366.002	0.33
366.462	0.33
366.922	0.33
367.383	0.33
367.843	0.33
368.303	0.33
368.763	0.33
369.223	0.33
369.684	0.32
370.144	0.32
370.604	0.32
371.064	0.32
371.524	0.32
371.984	0.32
372.444	0.32
372.904	0.32
373.363	0.32
373.823	0.32
374.283	0.32
374.743	0.32
375.203	0.32
375.663	0.32
376.122	0.32
376.582	0.32
377.042	0.32
377.501	0.32
377.961	0.32
378.42	0.32
378.88	0.32
379.34	0.32
379.799	0.32
380.259	0.32
380.718	0.32
381.177	0.32
381.637	0.32
382.096	0.32
382.555	0.32
383.015	0.32
383.474	0.32
383.933	0.31
384.393	0.31
384.852	0.31
385.311	0.31
385.77	0.31
386.229	0.31
386.688	0.31
387.147	0.31
387.606	0.31
388.065	0.31
388.524	0.31
388.983	0.31
389.442	0.31
389.901	0.31
390.36	0.31
390.819	0.31
391.277	0.31
391.736	0.31
392.195	0.31
392.654	0.31
393.112	0.31
393.571	0.31
394.03	0.31
394.488	0.31
394.947	0.31
395.405	0.31
395.864	0.31
396.322	0.31
396.781	0.3
397.239	0.3
397.698	0.3
398.156	0.3
398.614	0.3
399.073	0.3
399.531	0.3
399.989	0.3
400.447	0.3
400.905	0.3
401.364	0.3
401.822	0.3
402.28	0.3
402.738	0.3
403.196	0.3
403.654	0.3
404.112	0.3
404.57	0.3
405.028	0.3
405.486	0.3
405.944	0.3
406.402	0.3
406.859	0.3
407.317	0.3
407.775	0.3
408.233	0.3
408.691	0.3
409.148	0.3
409.606	0.3
410.064	0.3
410.521	0.3
410.979	0.3
411.436	0.3
411.894	0.29
412.351	0.29
412.809	0.29
413.266	0.29
413.724	0.29
414.181	0.29
414.638	0.29
415.096	0.29
415.553	0.29
416.01	0.29
416.467	0.29
416.925	0.29
417.382	0.29
417.839	0.29
418.296	0.29
418.753	0.29
419.21	0.29
419.667	0.29
420.124	0.29
420.581	0.29
421.038	0.29
421.495	0.29
421.952	0.29
422.409	0.29
422.866	0.29
423.322	0.29
423.779	0.29
424.236	0.29
424.693	0.29
425.149	0.29
425.606	0.29
426.063	0.29
426.519	0.29
426.976	0.29
427.433	0.29
427.889	0.29
428.346	0.29
428.802	0.29
429.258	0.29
429.715	0.29
430.171	0.29
430.628	0.29
431.084	0.29
431.54	0.29
431.997	0.29
432.453	0.29
432.909	0.29
433.365	0.29
433.821	0.29
434.277	0.29
434.734	0.29
435.19	0.29
435.646	0.29
436.102	0.29
436.558	0.28
437.014	0.28
437.47	0.28
437.925	0.28
438.381	0.28
438.837	0.28
439.293	0.28
439.749	0.28
440.205	0.28
440.66	0.28
441.116	0.28
441.572	0.28
442.027	0.28
442.483	0.28
442.939	0.28
443.394	0.28
443.85	0.28
444.305	0.28
444.761	0.28
445.216	0.28
445.672	0.28
446.127	0.28
446.582	0.28
447.038	0.28
447.493	0.28
447.948	0.28
448.403	0.28
448.859	0.28
449.314	0.28
449.769	0.28
450.224	0.28
450.679	0.28
451.134	0.28
451.589	0.28
452.044	0.28
452.499	0.28
452.954	0.28
453.409	0.28
453.864	0.28
454.319	0.28
454.774	0.28
455.229	0.28
455.684	0.29
456.138	0.29
456.593	0.28
457.048	0.29
457.503	0.29
457.957	0.29
458.412	0.29
458.866	0.29
459.321	0.29
459.776	0.29
460.23	0.29
460.685	0.29
461.139	0.29
461.593	0.29
462.048	0.29
462.502	0.29
462.957	0.29
463.411	0.29
463.865	0.29
464.319	0.29
464.774	0.29
465.228	0.29
465.682	0.29
466.136	0.29
466.59	0.29
467.044	0.29
467.499	0.29
467.953	0.29
468.407	0.29
468.861	0.29
469.315	0.29
469.768	0.29
470.222	0.29
470.676	0.3
471.13	0.3
471.584	0.3
472.038	0.3
472.491	0.3
472.945	0.3
473.399	0.3
473.852	0.3
474.306	0.3
474.76	0.3
475.213	0.3
475.667	0.3
476.12	0.3
476.574	0.3
477.027	0.3
477.481	0.3
477.934	0.31
478.388	0.31
478.841	0.31
479.294	0.31
479.748	0.31
480.201	0.31
480.654	0.31
481.107	0.31
481.561	0.31
482.014	0.31
482.467	0.32
482.92	0.32
483.373	0.32
483.826	0.32
484.279	0.32
484.732	0.32
485.185	0.32
485.638	0.32
486.091	0.33
486.544	0.33
486.997	0.33
487.449	0.33
487.902	0.33
488.355	0.33
488.808	0.34
489.26	0.34
489.713	0.34
490.166	0.34
490.618	0.34
491.071	0.34
491.523	0.35
491.976	0.35
492.429	0.35
492.881	0.35
493.333	0.36
493.786	0.36
494.238	0.36
494.691	0.36
495.143	0.36
495.595	0.37
496.048	0.37
496.5	0.37
496.952	0.37
497.404	0.38
497.856	0.38
498.309	0.38
498.761	0.38
499.213	0.39
499.665	0.39
500.117	0.39
500.569	0.39
501.021	0.4
501.473	0.4
501.925	0.4
502.377	0.4
502.828	0.41
503.28	0.41
503.732	0.41
504.184	0.41
504.636	0.42
505.087	0.42
505.539	0.42
505.991	0.42
506.442	0.43
506.894	0.43
507.345	0.43
507.797	0.43
508.249	0.43
508.7	0.44
509.151	0.44
509.603	0.44
510.054	0.44
510.506	0.45
510.957	0.45
511.408	0.45
511.86	0.45
512.311	0.45
512.762	0.46
513.213	0.46
513.665	0.46
514.116	0.46
514.567	0.46
515.018	0.46
515.469	0.47
515.92	0.47
516.371	0.47
516.822	0.47
517.273	0.47
517.724	0.47
518.175	0.47
518.626	0.47
519.076	0.47
519.527	0.48
519.978	0.48
520.429	0.48
520.88	0.48
521.33	0.48
521.781	0.48
522.232	0.48
522.682	0.48
523.133	0.48
523.583	0.48
524.034	0.48
524.484	0.48
524.935	0.48
525.385	0.48
525.836	0.48
526.286	0.48
526.736	0.48
527.187	0.48
527.637	0.48
528.087	0.47
528.538	0.47
528.988	0.47
529.438	0.47
529.888	0.47
530.338	0.47
530.788	0.47
531.238	0.47
531.688	0.47
532.139	0.46
532.589	0.46
533.038	0.46
533.488	0.46
533.938	0.46
534.388	0.45
534.838	0.45
535.288	0.45
535.738	0.45
536.187	0.44
536.637	0.44
537.087	0.44
537.537	0.44
537.986	0.43
538.436	0.43
538.885	0.43
539.335	0.43
539.785	0.42
540.234	0.42
540.684	0.42
541.133	0.41
541.582	0.41
542.032	0.41
542.481	0.41
542.931	0.4
543.38	0.4
543.829	0.4
544.278	0.39
544.728	0.39
545.177	0.39
545.626	0.38
546.075	0.38
546.524	0.38
546.973	0.37
547.422	0.37
547.871	0.37
548.32	0.36
548.769	0.36
549.218	0.36
549.667	0.35
550.116	0.35
550.565	0.35
551.014	0.34
551.463	0.34
551.911	0.34
552.36	0.33
552.809	0.33
553.258	0.33
553.706	0.32
554.155	0.32
554.603	0.32
555.052	0.31
555.501	0.31
555.949	0.31
556.398	0.3
556.846	0.3
557.294	0.3
557.743	0.29
558.191	0.29
558.64	0.29
559.088	0.28
559.536	0.28
559.985	0.28
560.433	0.27
560.881	0.27
561.329	0.27
561.777	0.26
562.225	0.26
562.674	0.26
563.122	0.25
563.57	0.25
564.018	0.25
564.466	0.25
564.914	0.24
565.362	0.24
565.809	0.24
566.257	0.23
566.705	0.23
567.153	0.23
567.601	0.23
568.048	0.22
568.496	0.22
568.944	0.22
569.392	0.22
569.839	0.21
570.287	0.21
570.734	0.21
571.182	0.21
571.63	0.2
572.077	0.2
572.525	0.2
572.972	0.2
573.419	0.2
573.867	0.19
574.314	0.19
574.761	0.19
575.209	0.19
575.656	0.19
576.103	0.18
576.551	0.18
576.998	0.18
577.445	0.18
577.892	0.18
578.339	0.18
578.786	0.17
579.233	0.17
579.68	0.17
580.127	0.17
580.574	0.17
581.021	0.17
581.468	0.16
581.915	0.16
582.362	0.16
582.809	0.16
583.255	0.16
583.702	0.16
584.149	0.16
584.596	0.15
585.042	0.15
585.489	0.15
585.936	0.15
586.382	0.15
586.829	0.15
587.275	0.15
587.722	0.15
588.168	0.14
588.615	0.14
589.061	0.14
589.508	0.14
589.954	0.14
590.4	0.14
590.847	0.14
591.293	0.14
591.739	0.14
592.185	0.14
592.632	0.14
593.078	0.14
593.524	0.13
593.97	0.13
594.416	0.13
594.862	0.13
595.308	0.13
595.754	0.13
596.2	0.13
596.646	0.13
597.092	0.13
597.538	0.13
597.984	0.13
598.43	0.13
598.876	0.13
599.321	0.13
599.767	0.13
600.213	0.13
600.659	0.13
601.104	0.13
601.55	0.12
601.995	0.12
602.441	0.12
602.887	0.12
603.332	0.12
603.778	0.12
604.223	0.12
604.668	0.12
605.114	0.12
605.559	0.12
606.005	0.12
606.45	0.12
606.895	0.12
607.341	0.12
607.786	0.12
608.231	0.12
608.676	0.12
609.121	0.12
609.566	0.12
610.012	0.12
610.457	0.12
610.902	0.12
611.347	0.12
611.792	0.12
612.237	0.12
612.682	0.12
613.127	0.12
613.571	0.12
614.016	0.12
614.461	0.12
614.906	0.12
615.351	0.12
615.795	0.12
616.24	0.12
616.685	0.12
617.129	0.12
617.574	0.12
618.019	0.12
618.463	0.12
618.908	0.13
619.352	0.13
619.797	0.13
620.241	0.13
620.686	0.13
621.13	0.13
621.574	0.13
622.019	0.13
622.463	0.13
622.907	0.13
623.352	0.13
623.796	0.13
624.24	0.13
624.684	0.14
625.128	0.14
625.572	0.14
626.016	0.14
626.461	0.14
626.905	0.14
627.349	0.14
627.793	0.14
628.236	0.14
628.68	0.14
629.124	0.15
629.568	0.15
630.012	0.15
630.456	0.15
630.9	0.15
631.343	0.15
631.787	0.15
632.231	0.15
632.674	0.15
633.118	0.16
633.562	0.16
634.005	0.16
634.449	0.16
634.892	0.16
635.336	0.16
635.779	0.17
636.223	0.17
636.666	0.17
637.109	0.17
637.553	0.17
637.996	0.18
638.439	0.18
638.883	0.18
639.326	0.18
639.769	0.18
640.212	0.19
640.655	0.19
641.099	0.19
641.542	0.19
641.985	0.2
642.428	0.2
642.871	0.2
643.314	0.2
643.757	0.21
644.2	0.21
644.643	0.21
645.085	0.21
645.528	0.22
645.971	0.22
646.414	0.22
646.857	0.23
647.299	0.23
647.742	0.23
648.185	0.23
648.627	0.24
649.07	0.24
649.513	0.24
649.955	0.25
650.398	0.25
650.84	0.25
651.283	0.26
651.725	0.26
652.168	0.26
652.61	0.27
653.052	0.27
653.495	0.26
653.937	0.2
654.379	0.16
654.821	0.17
655.264	0.18
655.706	0.18
656.148	0.18
656.59	0.18
657.032	0.19
657.474	0.19
657.916	0.19
658.358	0.19
658.8	0.24
659.242	0.32
659.684	0.33
660.126	0.33
660.568	0.34
661.01	0.34
661.452	0.34
661.894	0.35
662.335	0.35
662.777	0.36
663.219	0.36
663.661	0.37
664.102	0.37
664.544	0.37
664.985	0.38
665.427	0.38
665.869	0.38
666.31	0.39
666.752	0.39
667.193	0.4
667.634	0.4
668.076	0.4
668.517	0.41
668.959	0.41
669.4	0.42
669.841	0.42
670.282	0.42
670.724	0.43
671.165	0.43
671.606	0.43
672.047	0.43
672.488	0.44
672.929	0.44
673.37	0.44
673.811	0.44
674.252	0.45
674.693	0.45
675.134	0.45
675.575	0.45
676.016	0.46
676.457	0.46
676.898	0.46
677.339	0.46
677.78	0.47
678.22	0.47
678.661	0.47
679.102	0.47
679.542	0.47
679.983	0.48
680.424	0.48
680.864	0.48
681.305	0.48
681.745	0.48
682.186	0.48
682.626	0.48
683.067	0.48
683.507	0.49
683.948	0.49
684.388	0.49
684.828	0.49
685.269	0.49
685.709	0.49
686.149	0.49
686.589	0.49
687.029	0.49
687.47	0.49
687.91	0.49
688.35	0.49
688.79	0.49
689.23	0.49
689.67	0.49
690.11	0.49
690.55	0.49
690.99	0.48
691.43	0.48
691.87	0.48
692.31	0.48
692.749	0.48
693.189	0.48
693.629	0.48
694.069	0.48
694.508	0.47
694.948	0.47
695.388	0.47
695.827	0.47
696.267	0.47
696.706	0.46
697.146	0.46
697.586	0.46
698.025	0.46
698.464	0.46
698.904	0.45
699.343	0.45
699.783	0.45
700.222	0.45
700.661	0.44
701.101	0.44
701.54	0.44
701.979	0.44
702.418	0.43
702.857	0.43
703.297	0.43
703.736	0.43
704.175	0.42
704.614	0.42
705.053	0.42
705.492	0.42
705.931	0.41
706.37	0.41
706.809	0.41
707.248	0.4
707.687	0.4
708.125	0.4
708.564	0.39
709.003	0.39
709.442	0.39
709.88	0.38
710.319	0.38
710.758	0.38
711.196	0.37
711.635	0.37
712.074	0.37
712.512	0.36
712.951	0.36
713.389	0.36
713.828	0.35
714.266	0.35
714.705	0.35
715.143	0.34
715.581	0.34
716.02	0.34
716.458	0.34
716.896	0.33
717.334	0.33
717.773	0.33
718.211	0.32
718.649	0.32
719.087	0.32
719.525	0.31
719.963	0.31
720.401	0.31
720.839	0.3
721.277	0.3
721.715	0.3
722.153	0.29
722.591	0.29
723.029	0.29
723.467	0.28
723.905	0.28
724.342	0.28
724.78	0.27
725.218	0.27
725.656	0.27
726.093	0.27
726.531	0.26
726.969	0.26
727.406	0.26
727.844	0.25
728.281	0.25
728.719	0.25
729.156	0.25
729.594	0.24
730.031	0.24
730.469	0.24
730.906	0.24
731.343	0.24
731.781	0.23
732.218	0.23
732.655	0.23
733.092	0.23
733.53	0.22
733.967	0.22
734.404	0.22
734.841	0.21
735.278	0.21
735.715	0.21
736.152	0.21
736.589	0.21
737.026	0.2
737.463	0.2
737.9	0.2
738.337	0.2
738.774	0.19
739.211	0.19
739.647	0.19
740.084	0.19
740.521	0.19
740.958	0.18
741.394	0.18
741.831	0.18
742.268	0.18
742.704	0.17
743.141	0.17
743.577	0.17
744.014	0.17
744.45	0.17
744.887	0.16
745.323	0.16
745.76	0.16
746.196	0.16
746.632	0.16
747.069	0.15
747.505	0.15
747.941	0.15
748.378	0.15
748.814	0.15
749.25	0.15
749.686	0.14
750.122	0.14
750.558	0.14
750.994	0.14
751.43	0.14
751.866	0.14
752.302	0.13
752.738	0.13
753.174	0.13
753.61	0.13
754.046	0.13
754.482	0.13
754.918	0.13
755.354	0.12
755.789	0.12
756.225	0.12
756.661	0.12
757.096	0.12
757.532	0.12
757.968	0.12
758.403	0.12
758.839	0.11
759.274	0.11
759.71	0.11
760.145	0.11
760.581	0.11
761.016	0.11
761.452	0.11
761.887	0.11
762.322	0.1
762.758	0.1
763.193	0.1
763.628	0.1
764.063	0.1
764.499	0.1
764.934	0.1
765.369	0.1
765.804	0.1
766.239	0.1
766.674	0.09
767.109	0.09
767.544	0.09
767.979	0.09
768.414	0.09
768.849	0.09
769.284	0.09
769.719	0.09
770.154	0.09
770.588	0.09
771.023	0.08
771.458	0.08
771.893	0.08
772.327	0.08
772.762	0.08
773.197	0.08
773.631	0.08
774.066	0.08
774.5	0.08
774.935	0.08
775.369	0.08
775.804	0.08
776.238	0.08
776.673	0.07
777.107	0.07
777.541	0.07
777.976	0.07
778.41	0.07
778.844	0.07
779.279	0.07
779.713	0.07
780.147	0.07
780.581	0.07
781.015	0.06
781.449	0.06
781.883	0.06
782.317	0.06
782.751	0.06
783.185	0.06
783.619	0.06
784.053	0.06
784.487	0.06
784.921	0.06
785.355	0.06
785.789	0.06
786.223	0.06
786.656	0.06
787.09	0.06
787.524	0.06
787.957	0.06
788.391	0.06
788.825	0.05
789.258	0.05
789.692	0.05
790.125	0.05
790.559	0.05
790.992	0.05
791.426	0.05
791.859	0.05
792.293	0.05
792.726	0.05
793.159	0.05
793.593	0.05
794.026	0.05
794.459	0.05
794.892	0.05
795.326	0.05
795.759	0.05
796.192	0.05
796.625	0.05
797.058	0.05
797.491	0.05
797.924	0.05
798.357	0.05
798.79	0.05
799.223	0.05
799.656	0.05
800.089	0.05
800.522	0.04
800.955	0.04
801.387	0.04
801.82	0.04
802.253	0.04
802.686	0.04
803.118	0.04
803.551	0.04
803.984	0.04
804.416	0.04
804.849	0.04
805.281	0.04
805.714	0.04
806.146	0.04
806.579	0.04
807.011	0.04
807.444	0.04
807.876	0.04
808.308	0.04
808.741	0.04
809.173	0.03
809.605	0.03
810.037	0.03
810.47	0.03
810.902	0.03
811.334	0.03
811.766	0.03
812.198	0.03
812.63	0.03
813.062	0.03
813.494	0.03
813.926	0.03
814.358	0.03
814.79	0.03
815.222	0.03
815.654	0.03
816.086	0.03
816.518	0.03
816.949	0.03
817.381	0.03
817.813	0.03
818.245	0.03
818.676	0.03
819.108	0.03
819.54	0.03
819.971	0.03
820.403	0.03
820.834	0.03
821.266	0.03
821.697	0.03
822.129	0.03
822.56	0.03
822.991	0.03
823.423	0.03
823.854	0.03
824.286	0.03
824.717	0.03
825.148	0.03
825.579	0.03
826.01	0.03
826.442	0.03
826.873	0.03
827.304	0.03
827.735	0.03
828.166	0.03
828.597	0.03
829.028	0.03
829.459	0.03
829.89	0.03
830.321	0.03
830.752	0.03
831.183	0.03
831.613	0.03
832.044	0.03
832.475	0.03
832.906	0.03
833.336	0.03
833.767	0.02
834.198	0.02
834.628	0.02
835.059	0.02
835.49	0.02
835.92	0.02
836.351	0.02
836.781	0.02
837.212	0.02
837.642	0.02
838.072	0.02
838.503	0.02
838.933	0.02
839.364	0.02
839.794	0.02
840.224	0.02
840.654	0.02
841.085	0.02
841.515	0.02
841.945	0.02
842.375	0.02
842.805	0.02
843.235	0.02
843.665	0.02
844.095	0.02
844.525	0.02
844.955	0.02
845.385	0.02
845.815	0.02
846.245	0.02
846.675	0.02
847.105	0.02
847.534	0.02
847.964	0.02
848.394	0.02
848.824	0.02
849.253	0.02
849.683	0.02
850.112	0.02
850.542	0.02
850.972	0.02
851.401	0.02
851.831	0.01
852.26	0.01
852.69	0.01
853.119	0.01
853.548	0.01
853.978	0.01
854.407	0.01
854.836	0.01
855.266	0.01
855.695	0.01
856.124	0.01
856.553	0.01
856.983	0.01
857.412	0.01
857.841	0.01
858.27	0.01
858.699	0.01
859.128	0.01
859.557	0.01
859.986	0.01
860.415	0.01
860.844	0.01
861.273	0.01
861.702	0.01
862.13	0.01
862.559	0.01
862.988	0.01
863.417	0.01
863.845	0.01
864.274	0.01
864.703	0.01
865.131	0.01
865.56	0.01
865.989	0.01
866.417	0.01
866.846	0.01
867.274	0.01
867.703	0.01
868.131	0.01
868.559	0.01
868.988	0.01
869.416	0.01
869.844	0.01
870.273	0.01
870.701	0.01
871.129	0.01
871.557	0.01
871.986	0.01
872.414	0.01
872.842	0.01
873.27	0.01
873.698	0.01
874.126	0.01
874.554	0.01
874.982	0.01
875.41	0.01
875.838	0.01
876.266	0.01
876.694	0.01
877.122	0.01
877.549	0.01
877.977	0.01
878.405	0.01
878.833	0.01
879.26	0.01
879.688	0.01
880.116	0.01
880.543	0.01
880.971	0.01
881.399	0.01
881.826	0.01
882.254	0.01
882.681	0.01
883.109	0.01
883.536	0.01
883.963	0.01
884.391	0.01
884.818	0.01
885.245	0.01
885.673	0.01
886.1	0.01
886.527	0.01
886.954	0.01
887.381	0.01
887.809	0.01
888.236	0.01
888.663	0.01
889.09	0.01
889.517	0.01
889.944	0.01
890.371	0.01
890.798	0.01
891.225	0.01
891.652	0.01
892.078	0.01
892.505	0.01
892.932	0.01
893.359	0.01
893.786	0.01
894.212	0.01
894.639	0.01
895.066	0.01
895.492	0.01
895.919	0.01
896.346	0
896.772	0
897.199	0
897.625	0
898.052	0
898.478	0
898.904	0
899.331	0
899.757	0
900.183	0
900.61	0
901.036	0
901.462	0
901.888	0
902.315	0
902.741	0
903.167	0
903.593	0
904.019	0
904.445	0
904.871	0
905.297	-0
905.723	-0
906.149	-0
906.575	-0
907.001	0
907.427	0
907.852	0
908.278	0
908.704	0
909.13	0
909.555	0
909.981	0
910.407	0
910.832	0
911.258	0
911.684	0
912.109	0
912.535	0
912.96	0
913.386	0
913.811	0
914.236	0
914.662	0
915.087	0
915.512	0
915.938	0
916.363	0
916.788	0.01
917.213	0.01
917.639	0.01
918.064	0.01
918.489	0.01
918.914	0.01
919.339	0.01
919.764	0
920.189	0
920.614	0
921.039	0
921.464	0
921.889	0
922.314	0
922.738	0
923.163	0
923.588	-0
924.013	-0
924.437	-0
924.862	-0
925.287	0
925.711	0
926.136	0
926.561	0
926.985	0
927.41	0
927.834	0
928.259	0
928.683	0
929.108	0
929.532	0
929.956	0
930.381	0
930.805	0
931.229	0
931.653	0
932.078	0
932.502	0
932.926	0
933.35	0
933.774	0
934.198	0
934.622	0
935.046	0
935.47	0
935.894	0
936.318	0
936.742	0
937.166	0
937.59	0
938.014	0
938.437	0
938.861	0
939.285	0
939.709	0
940.132	0
940.556	0
940.98	0
941.403	0
941.827	0
942.25	0
942.674	0
943.097	0
943.521	0
943.944	0
944.368	0
944.791	0
945.214	0
945.638	0
946.061	0
946.484	0
946.907	0
947.331	0
947.754	0
948.177	0
948.6	0
949.023	0
949.446	0
949.869	0
950.292	0
950.715	0
951.138	0
951.561	0
951.984	0
952.407	0
952.83	0
953.252	0
953.675	0
954.098	0
954.521	0
954.943	0
955.366	0
955.789	0
956.211	-0
956.634	-0
957.056	-0
957.479	-0
957.902	-0
958.324	-0
958.746	-0
959.169	-0
959.591	-0
960.014	-0
960.436	-0
960.858	-0
961.281	-0
961.703	-0
962.125	-0
962.547	0
962.969	0
963.391	0
963.814	0
964.236	0
964.658	0
965.08	0
965.502	0
965.924	0
966.346	0
966.768	0
967.189	0
967.611	0
968.033	0
968.455	0
968.877	0
969.298	0
969.72	0
970.142	0
970.563	0
970.985	0
971.407	0
971.828	0
972.25	0
972.671	0
973.093	0
973.514	0
973.936	0
974.357	0
974.778	0
975.2	0
975.621	0
976.042	0
976.464	0
976.885	0
977.306	0
977.727	0
978.148	-0
978.57	-0
978.991	-0
979.412	-0
979.833	-0
980.254	-0
980.675	-0
981.096	-0
981.517	-0
981.937	-0
982.358	-0
982.779	-0
983.2	-0
983.621	-0
984.042	-0
984.462	-0
984.883	-0
985.304	-0
985.724	-0
986.145	-0
986.565	-0
986.986	-0
987.407	-0
987.827	-0
988.248	-0
988.668	-0
989.088	-0
989.509	-0
989.929	-0
990.35	-0
990.77	-0
991.19	-0
991.61	-0
992.031	-0
992.451	-0
992.871	-0
993.291	-0
993.711	-0
994.131	-0
994.551	-0
994.971	-0
995.391	-0
995.811	-0
996.231	-0
996.651	-0
997.071	-0
997.491	-0
997.911	-0
998.331	-0
998.75	-0
999.17	-0
999.59	-0
1000.009	-0
1000.429	-0
1000.849	-0
1001.268	-0.01
1001.688	-0.01
1002.107	-0.01
1002.527	-0.01
1002.946	-0.01
1003.366	-0.01
1003.785	-0.01
1004.205	-0.01
1004.624	-0.01
1005.044	-0
1005.463	-0
1005.882	-0
1006.301	-0
1006.721	-0
1007.14	-0
1007.559	-0
1007.978	-0
1008.397	-0
1008.816	-0
1009.235	-0
1009.655	-0
1010.074	-0
1010.492	-0
1010.911	-0
1011.33	-0
1011.749	-0
1012.168	-0
1012.587	0
1013.006	0
1013.425	-0
1013.843	-0
1014.262	-0
1014.681	-0
1015.099	-0
1015.518	-0
1015.937	-0
1016.355	-0
1016.774	-0
1017.192	-0
1017.611	-0
1018.029	-0
1018.448	-0
1018.866	-0.01
1019.285	-0.01
1019.703	-0.01
1020.121	-0.01
1020.54	-0.01
1020.958	-0.01
1021.376	-0.01
1021.794	-0.01
1022.213	-0.01
1022.631	-0.01
1023.049	-0.01
1023.467	-0.01
1023.885	-0.01
1024.303	-0.01
1024.721	-0.01
1025.139	-0.01
1025.557	-0.01
1025.975	-0.01
1026.393	-0.01
1026.811	-0.01
1027.229	-0.01
1027.647	-0.01
1028.065	-0.01
1028.482	-0.01
1028.9	-0.01
1029.318	-0.01
1029.735	-0.01
1030.153	-0.01
1030.571	-0.01
1030.988	-0.01
1031.406	-0.01
1031.823	-0.01
1032.241	-0.01
1032.659	-0.01
1033.076	-0.01
1033.493	-0.01
1033.911	-0.01
1034.328	-0.01
1034.746	-0.01
1035.163	-0.01
1035.58	-0.01
1035.997	-0.01
1036.415	-0.01
1036.832	-0.01
1037.249	-0.01
1037.666	-0.01
1038.083	-0.01
1038.501	-0.01
1038.918	-0.01
1039.335	-0.01
1039.752	-0.01
1040.169	-0.01
1040.586	-0.01
1041.003	-0.01
1041.419	-0.01
1041.836	-0.01
1042.253	-0.01
1042.67	-0.01
1043.087	-0.01
1043.504	-0.01
1043.92	-0.01
1044.337	-0.01
1044.754	-0.01
1045.17	-0.01
1045.587	-0.01
1046.004	-0.01
1046.42	-0.01
1046.837	-0.01
1047.253	-0.01
1047.67	-0.01
1048.086	-0.01
1048.503	-0.01
1048.919	-0.01
1049.335	-0.01
1049.752	-0.01
1050.168	-0.01
1050.584	-0.01
1051.001	-0.01
1051.417	-0.01
1051.833	-0.01
1052.249	-0.01
1052.665	-0.01
1053.081	-0.01
1053.497	-0.01
1053.914	-0.01
1054.33	-0.01
1054.746	-0.01
1055.162	-0.01
1055.578	-0.01
1055.993	-0.01
1056.409	-0.01
1056.825	-0.01
1057.241	-0.01
1057.657	-0.01
1058.073	-0.01
1058.488	-0.01
1058.904	-0.01
1059.32	-0.01
1059.736	-0.01
1060.151	-0.01
1060.567	-0.01
1060.982	-0.01
1061.398	-0.01
1061.813	-0.01
1062.229	-0.01
1062.644	-0.01
1063.06	-0.01
1063.475	-0.01
1063.891	-0.01
1064.306	-0.01
1064.721	-0.01
1065.137	-0.01
1065.552	-0.01
1065.967	-0.01
1066.382	-0.01
1066.798	-0.01
1067.213	-0.01
1067.628	-0.01
1068.043	-0.01
1068.458	-0.01
1068.873	-0.01
1069.288	-0.01
1069.703	-0.01
1070.118	-0.01
1070.533	-0.01
1070.948	-0.01
1071.363	-0.01
1071.778	-0.01
1072.193	-0.01
1072.607	-0.01
1073.022	-0.01
1073.437	-0.01
1073.852	-0.01
1074.266	-0.01
1074.681	-0.01
1075.096	-0.01
1075.51	-0.01
1075.925	-0.01
1076.339	-0.01
1076.754	-0.01
1077.168	-0.01
1077.583	-0.01
1077.997	-0.01
1078.412	-0.01
1078.826	-0.01
1079.24	-0.01
1079.655	-0.01
1080.069	-0.01
1080.483	-0.01
1080.897	-0.01
1081.312	-0.01
1081.726	-0.01
1082.14	-0.01
1082.554	-0.01
1082.968	-0.01
1083.382	-0.01
1083.796	-0.01
1084.21	-0.01
1084.624	-0.01
1085.038	-0.01
1085.452	-0.01
1085.866	-0.01
1086.28	-0.01
1086.694	-0.01
1087.108	-0.01
1087.521	-0.01
1087.935	-0.01
1088.349	-0.01
1088.763	-0.01
1089.176	-0.01
1089.59	-0.01
1090.004	-0.01
1090.417	-0.01
1090.831	-0.01
1091.244	-0.01
1091.658	-0.01
1092.071	-0.01
1092.485	-0.01
1092.898	-0.01
1093.312	-0.01
1093.725	-0.01
1094.138	-0.01
1094.552	-0.01
1094.965	-0.01
1095.378	-0.01
1095.791	-0.01
1096.205	-0.01
1096.618	-0.01
1097.031	-0.01
1097.444	-0.01
1097.857	-0.01
1098.27	-0.01
1098.683	-0.01
1099.096	-0.01
1099.509	-0.01
1099.922	-0.01
1100.335	-0.01
1100.748	-0.01
1101.161	-0.01
1101.574	-0.01
1101.986	-0.01
1102.399	-0.01
1102.812	-0.01
1103.225	-0.01
1103.637	-0.01
1104.05	-0.01
1104.463	-0.01
1104.875	-0.01
1105.288	-0.01
1105.7	-0.01
1106.113	-0.01
1106.525	-0.01
1106.938	-0.01
1107.35	-0.01
1107.763	-0.01
1108.175	-0.01
1108.588	-0.01
1109	-0.01
1109.412	-0.01
1109.824	-0.01
1110.237	-0.01
1110.649	-0.01
1111.061	-0.01
