Data from redip-kinet-2-5a_Absorbance__70__00070.txt Node

Date: Fri Apr 12 13:47:50 CEST 2024
User: Laser008
Spectrometer: MAYP115816
Trigger mode: 0
Integration Time (sec): 2.000000E-1
Scans to average: 10
Electric dark correction enabled: true
Nonlinearity correction enabled: true
Boxcar width: 5
XAxis mode: Wavelengths
Number of Pixels in Spectrum: 2068
>>>>>Begin Spectral Data<<<<<
198.914	-2.24
199.384	-2.08
199.855	-1.94
200.325	-1.82
200.796	-1.75
201.266	-1.69
201.737	-1.62
202.207	-1.55
202.677	-1.5
203.147	-1.45
203.618	-1.42
204.088	-1.4
204.558	-1.38
205.028	-1.36
205.498	-1.36
205.968	-1.36
206.439	-1.35
206.909	-1.35
207.379	-1.35
207.849	-1.34
208.319	-1.34
208.789	-1.34
209.258	-1.34
209.728	-1.33
210.198	-1.33
210.668	-1.33
211.138	-1.33
211.608	-1.32
212.077	-1.32
212.547	-1.32
213.017	-1.32
213.486	-1.32
213.956	-1.32
214.426	-1.32
214.895	-1.32
215.365	-1.32
215.834	-1.31
216.304	-1.31
216.773	-1.31
217.243	-1.31
217.712	-1.31
218.181	-1.3
218.651	-1.3
219.12	-1.3
219.589	-1.3
220.058	-1.29
220.528	-1.29
220.997	-1.29
221.466	-1.28
221.935	-1.28
222.404	-1.27
222.873	-1.27
223.342	-1.26
223.812	-1.25
224.281	-1.25
224.749	-1.24
225.218	-1.23
225.687	-1.22
226.156	-1.21
226.625	-1.2
227.094	-1.18
227.563	-1.16
228.031	-1.14
228.5	-1.12
228.969	-1.1
229.438	-1.07
229.906	-1.04
230.375	-1
230.844	-0.96
231.312	-0.92
231.781	-0.88
232.249	-0.83
232.718	-0.79
233.186	-0.74
233.655	-0.69
234.123	-0.64
234.591	-0.58
235.06	-0.53
235.528	-0.48
235.996	-0.43
236.465	-0.39
236.933	-0.34
237.401	-0.29
237.869	-0.25
238.337	-0.21
238.805	-0.17
239.274	-0.13
239.742	-0.1
240.21	-0.06
240.678	-0.03
241.146	-0
241.614	0.03
242.081	0.05
242.549	0.08
243.017	0.1
243.485	0.12
243.953	0.14
244.421	0.16
244.888	0.18
245.356	0.2
245.824	0.21
246.291	0.23
246.759	0.24
247.227	0.25
247.694	0.26
248.162	0.28
248.629	0.29
249.097	0.3
249.564	0.31
250.032	0.32
250.499	0.32
250.967	0.33
251.434	0.34
251.901	0.35
252.369	0.35
252.836	0.36
253.303	0.37
253.77	0.37
254.237	0.38
254.705	0.38
255.172	0.39
255.639	0.39
256.106	0.4
256.573	0.4
257.04	0.4
257.507	0.41
257.974	0.41
258.441	0.41
258.908	0.42
259.375	0.42
259.841	0.42
260.308	0.42
260.775	0.42
261.242	0.43
261.709	0.43
262.175	0.43
262.642	0.43
263.109	0.43
263.575	0.43
264.042	0.43
264.508	0.43
264.975	0.43
265.441	0.43
265.908	0.43
266.374	0.44
266.841	0.44
267.307	0.44
267.773	0.43
268.24	0.43
268.706	0.43
269.172	0.43
269.639	0.43
270.105	0.43
270.571	0.43
271.037	0.43
271.503	0.43
271.969	0.43
272.435	0.43
272.902	0.42
273.368	0.42
273.834	0.42
274.3	0.42
274.765	0.42
275.231	0.42
275.697	0.41
276.163	0.41
276.629	0.41
277.095	0.41
277.56	0.41
278.026	0.4
278.492	0.4
278.958	0.4
279.423	0.4
279.889	0.4
280.354	0.39
280.82	0.39
281.286	0.39
281.751	0.39
282.217	0.39
282.682	0.39
283.147	0.39
283.613	0.39
284.078	0.39
284.544	0.39
285.009	0.38
285.474	0.38
285.939	0.38
286.405	0.38
286.87	0.38
287.335	0.38
287.8	0.37
288.265	0.37
288.73	0.37
289.195	0.37
289.66	0.37
290.125	0.37
290.59	0.37
291.055	0.37
291.52	0.36
291.985	0.36
292.45	0.36
292.915	0.36
293.38	0.36
293.844	0.36
294.309	0.36
294.774	0.36
295.239	0.35
295.703	0.35
296.168	0.35
296.632	0.35
297.097	0.35
297.562	0.35
298.026	0.35
298.491	0.35
298.955	0.35
299.419	0.35
299.884	0.34
300.348	0.34
300.813	0.34
301.277	0.34
301.741	0.34
302.205	0.34
302.67	0.34
303.134	0.34
303.598	0.34
304.062	0.34
304.526	0.34
304.99	0.33
305.454	0.33
305.919	0.33
306.383	0.33
306.847	0.33
307.31	0.33
307.774	0.33
308.238	0.33
308.702	0.33
309.166	0.33
309.63	0.33
310.094	0.32
310.557	0.32
311.021	0.32
311.485	0.32
311.948	0.32
312.412	0.32
312.876	0.32
313.339	0.32
313.803	0.32
314.266	0.32
314.73	0.31
315.193	0.31
315.657	0.31
316.12	0.31
316.584	0.31
317.047	0.31
317.51	0.31
317.973	0.31
318.437	0.31
318.9	0.31
319.363	0.3
319.826	0.3
320.29	0.3
320.753	0.3
321.216	0.3
321.679	0.3
322.142	0.3
322.605	0.3
323.068	0.3
323.531	0.3
323.994	0.29
324.457	0.29
324.92	0.29
325.382	0.29
325.845	0.29
326.308	0.29
326.771	0.29
327.233	0.29
327.696	0.29
328.159	0.29
328.622	0.29
329.084	0.28
329.547	0.28
330.009	0.28
330.472	0.28
330.934	0.28
331.397	0.28
331.859	0.28
332.322	0.28
332.784	0.28
333.246	0.28
333.709	0.27
334.171	0.27
334.633	0.27
335.096	0.27
335.558	0.27
336.02	0.27
336.482	0.27
336.944	0.27
337.406	0.27
337.868	0.27
338.331	0.27
338.793	0.27
339.255	0.26
339.717	0.26
340.178	0.26
340.64	0.26
341.102	0.26
341.564	0.26
342.026	0.26
342.488	0.26
342.949	0.26
343.411	0.26
343.873	0.26
344.335	0.26
344.796	0.26
345.258	0.26
345.719	0.25
346.181	0.25
346.643	0.25
347.104	0.25
347.566	0.25
348.027	0.25
348.488	0.25
348.95	0.25
349.411	0.25
349.873	0.25
350.334	0.25
350.795	0.24
351.256	0.24
351.718	0.24
352.179	0.24
352.64	0.24
353.101	0.24
353.562	0.24
354.023	0.24
354.484	0.24
354.945	0.23
355.406	0.23
355.867	0.23
356.328	0.23
356.789	0.23
357.25	0.23
357.711	0.23
358.172	0.23
358.633	0.23
359.093	0.23
359.554	0.23
360.015	0.23
360.476	0.23
360.936	0.24
361.397	0.24
361.858	0.24
362.318	0.24
362.779	0.24
363.239	0.24
363.7	0.24
364.16	0.23
364.621	0.23
365.081	0.23
365.541	0.23
366.002	0.23
366.462	0.23
366.922	0.23
367.383	0.23
367.843	0.23
368.303	0.23
368.763	0.23
369.223	0.23
369.684	0.23
370.144	0.23
370.604	0.23
371.064	0.23
371.524	0.23
371.984	0.23
372.444	0.22
372.904	0.22
373.363	0.22
373.823	0.22
374.283	0.22
374.743	0.22
375.203	0.22
375.663	0.22
376.122	0.22
376.582	0.22
377.042	0.22
377.501	0.22
377.961	0.22
378.42	0.22
378.88	0.23
379.34	0.23
379.799	0.22
380.259	0.22
380.718	0.22
381.177	0.22
381.637	0.22
382.096	0.22
382.555	0.22
383.015	0.22
383.474	0.22
383.933	0.22
384.393	0.22
384.852	0.22
385.311	0.22
385.77	0.22
386.229	0.22
386.688	0.22
387.147	0.22
387.606	0.22
388.065	0.22
388.524	0.22
388.983	0.22
389.442	0.22
389.901	0.22
390.36	0.22
390.819	0.22
391.277	0.22
391.736	0.22
392.195	0.22
392.654	0.22
393.112	0.22
393.571	0.22
394.03	0.22
394.488	0.22
394.947	0.22
395.405	0.22
395.864	0.22
396.322	0.22
396.781	0.22
397.239	0.22
397.698	0.22
398.156	0.22
398.614	0.22
399.073	0.22
399.531	0.22
399.989	0.22
400.447	0.22
400.905	0.21
401.364	0.21
401.822	0.21
402.28	0.21
402.738	0.21
403.196	0.21
403.654	0.21
404.112	0.21
404.57	0.21
405.028	0.21
405.486	0.21
405.944	0.21
406.402	0.21
406.859	0.21
407.317	0.21
407.775	0.21
408.233	0.21
408.691	0.2
409.148	0.2
409.606	0.2
410.064	0.2
410.521	0.2
410.979	0.2
411.436	0.2
411.894	0.2
412.351	0.2
412.809	0.2
413.266	0.2
413.724	0.2
414.181	0.2
414.638	0.2
415.096	0.2
415.553	0.2
416.01	0.2
416.467	0.2
416.925	0.2
417.382	0.2
417.839	0.2
418.296	0.2
418.753	0.2
419.21	0.2
419.667	0.2
420.124	0.2
420.581	0.2
421.038	0.2
421.495	0.2
421.952	0.2
422.409	0.2
422.866	0.2
423.322	0.2
423.779	0.2
424.236	0.2
424.693	0.2
425.149	0.2
425.606	0.2
426.063	0.2
426.519	0.2
426.976	0.2
427.433	0.2
427.889	0.2
428.346	0.2
428.802	0.2
429.258	0.2
429.715	0.2
430.171	0.2
430.628	0.2
431.084	0.2
431.54	0.2
431.997	0.2
432.453	0.2
432.909	0.2
433.365	0.2
433.821	0.19
434.277	0.19
434.734	0.19
435.19	0.19
435.646	0.19
436.102	0.19
436.558	0.19
437.014	0.19
437.47	0.19
437.925	0.19
438.381	0.19
438.837	0.19
439.293	0.19
439.749	0.19
440.205	0.19
440.66	0.19
441.116	0.19
441.572	0.19
442.027	0.19
442.483	0.19
442.939	0.19
443.394	0.19
443.85	0.19
444.305	0.19
444.761	0.19
445.216	0.19
445.672	0.19
446.127	0.19
446.582	0.19
447.038	0.19
447.493	0.19
447.948	0.19
448.403	0.19
448.859	0.19
449.314	0.19
449.769	0.19
450.224	0.19
450.679	0.19
451.134	0.19
451.589	0.19
452.044	0.19
452.499	0.19
452.954	0.19
453.409	0.19
453.864	0.19
454.319	0.19
454.774	0.18
455.229	0.18
455.684	0.18
456.138	0.18
456.593	0.18
457.048	0.18
457.503	0.18
457.957	0.18
458.412	0.18
458.866	0.18
459.321	0.18
459.776	0.18
460.23	0.18
460.685	0.18
461.139	0.18
461.593	0.18
462.048	0.18
462.502	0.18
462.957	0.18
463.411	0.18
463.865	0.18
464.319	0.18
464.774	0.18
465.228	0.18
465.682	0.18
466.136	0.18
466.59	0.18
467.044	0.18
467.499	0.18
467.953	0.18
468.407	0.18
468.861	0.17
469.315	0.17
469.768	0.17
470.222	0.17
470.676	0.17
471.13	0.17
471.584	0.17
472.038	0.17
472.491	0.17
472.945	0.17
473.399	0.17
473.852	0.18
474.306	0.18
474.76	0.18
475.213	0.18
475.667	0.18
476.12	0.18
476.574	0.18
477.027	0.18
477.481	0.18
477.934	0.18
478.388	0.18
478.841	0.18
479.294	0.18
479.748	0.18
480.201	0.18
480.654	0.19
481.107	0.19
481.561	0.19
482.014	0.19
482.467	0.19
482.92	0.19
483.373	0.2
483.826	0.2
484.279	0.2
484.732	0.21
485.185	0.21
485.638	0.21
486.091	0.21
486.544	0.21
486.997	0.21
487.449	0.21
487.902	0.21
488.355	0.21
488.808	0.21
489.26	0.2
489.713	0.2
490.166	0.2
490.618	0.2
491.071	0.2
491.523	0.2
491.976	0.2
492.429	0.2
492.881	0.2
493.333	0.2
493.786	0.21
494.238	0.21
494.691	0.21
495.143	0.21
495.595	0.21
496.048	0.21
496.5	0.22
496.952	0.22
497.404	0.22
497.856	0.22
498.309	0.22
498.761	0.22
499.213	0.22
499.665	0.22
500.117	0.22
500.569	0.22
501.021	0.22
501.473	0.23
501.925	0.23
502.377	0.23
502.828	0.23
503.28	0.23
503.732	0.23
504.184	0.23
504.636	0.24
505.087	0.24
505.539	0.24
505.991	0.24
506.442	0.24
506.894	0.24
507.345	0.24
507.797	0.24
508.249	0.24
508.7	0.24
509.151	0.24
509.603	0.24
510.054	0.24
510.506	0.24
510.957	0.24
511.408	0.24
511.86	0.24
512.311	0.24
512.762	0.24
513.213	0.23
513.665	0.23
514.116	0.23
514.567	0.23
515.018	0.23
515.469	0.23
515.92	0.23
516.371	0.23
516.822	0.23
517.273	0.23
517.724	0.23
518.175	0.23
518.626	0.23
519.076	0.23
519.527	0.23
519.978	0.23
520.429	0.22
520.88	0.22
521.33	0.22
521.781	0.21
522.232	0.21
522.682	0.21
523.133	0.2
523.583	0.2
524.034	0.2
524.484	0.2
524.935	0.2
525.385	0.2
525.836	0.21
526.286	0.21
526.736	0.21
527.187	0.22
527.637	0.22
528.087	0.23
528.538	0.23
528.988	0.23
529.438	0.23
529.888	0.24
530.338	0.24
530.788	0.24
531.238	0.24
531.688	0.24
532.139	0.24
532.589	0.24
533.038	0.24
533.488	0.24
533.938	0.24
534.388	0.24
534.838	0.24
535.288	0.24
535.738	0.24
536.187	0.24
536.637	0.24
537.087	0.24
537.537	0.24
537.986	0.24
538.436	0.24
538.885	0.24
539.335	0.24
539.785	0.24
540.234	0.24
540.684	0.24
541.133	0.23
541.582	0.23
542.032	0.23
542.481	0.23
542.931	0.23
543.38	0.23
543.829	0.23
544.278	0.23
544.728	0.22
545.177	0.22
545.626	0.22
546.075	0.22
546.524	0.22
546.973	0.22
547.422	0.22
547.871	0.21
548.32	0.21
548.769	0.21
549.218	0.2
549.667	0.2
550.116	0.2
550.565	0.19
551.014	0.19
551.463	0.19
551.911	0.19
552.36	0.18
552.809	0.18
553.258	0.18
553.706	0.18
554.155	0.18
554.603	0.18
555.052	0.18
555.501	0.17
555.949	0.17
556.398	0.16
556.846	0.16
557.294	0.16
557.743	0.16
558.191	0.15
558.64	0.15
559.088	0.15
559.536	0.15
559.985	0.15
560.433	0.15
560.881	0.15
561.329	0.15
561.777	0.15
562.225	0.15
562.674	0.15
563.122	0.14
563.57	0.14
564.018	0.14
564.466	0.13
564.914	0.13
565.362	0.13
565.809	0.13
566.257	0.13
566.705	0.13
567.153	0.13
567.601	0.13
568.048	0.13
568.496	0.13
568.944	0.13
569.392	0.14
569.839	0.14
570.287	0.14
570.734	0.14
571.182	0.14
571.63	0.15
572.077	0.15
572.525	0.15
572.972	0.15
573.419	0.15
573.867	0.15
574.314	0.14
574.761	0.14
575.209	0.14
575.656	0.14
576.103	0.14
576.551	0.14
576.998	0.14
577.445	0.14
577.892	0.14
578.339	0.14
578.786	0.14
579.233	0.14
579.68	0.14
580.127	0.14
580.574	0.14
581.021	0.13
581.468	0.13
581.915	0.13
582.362	0.13
582.809	0.13
583.255	0.13
583.702	0.13
584.149	0.13
584.596	0.12
585.042	0.12
585.489	0.12
585.936	0.12
586.382	0.12
586.829	0.12
587.275	0.12
587.722	0.11
588.168	0.11
588.615	0.11
589.061	0.11
589.508	0.1
589.954	0.1
590.4	0.1
590.847	0.1
591.293	0.1
591.739	0.1
592.185	0.1
592.632	0.1
593.078	0.1
593.524	0.1
593.97	0.1
594.416	0.1
594.862	0.1
595.308	0.1
595.754	0.09
596.2	0.09
596.646	0.09
597.092	0.09
597.538	0.09
597.984	0.1
598.43	0.1
598.876	0.1
599.321	0.1
599.767	0.1
600.213	0.1
600.659	0.1
601.104	0.1
601.55	0.09
601.995	0.09
602.441	0.09
602.887	0.09
603.332	0.09
603.778	0.09
604.223	0.09
604.668	0.09
605.114	0.09
605.559	0.09
606.005	0.1
606.45	0.09
606.895	0.09
607.341	0.09
607.786	0.09
608.231	0.09
608.676	0.09
609.121	0.09
609.566	0.09
610.012	0.09
610.457	0.09
610.902	0.09
611.347	0.09
611.792	0.09
612.237	0.09
612.682	0.1
613.127	0.1
613.571	0.1
614.016	0.1
614.461	0.09
614.906	0.09
615.351	0.09
615.795	0.09
616.24	0.09
616.685	0.09
617.129	0.09
617.574	0.09
618.019	0.09
618.463	0.08
618.908	0.08
619.352	0.08
619.797	0.09
620.241	0.09
620.686	0.09
621.13	0.09
621.574	0.09
622.019	0.09
622.463	0.09
622.907	0.09
623.352	0.09
623.796	0.09
624.24	0.09
624.684	0.09
625.128	0.09
625.572	0.09
626.016	0.09
626.461	0.09
626.905	0.09
627.349	0.1
627.793	0.1
628.236	0.1
628.68	0.1
629.124	0.1
629.568	0.1
630.012	0.1
630.456	0.1
630.9	0.1
631.343	0.1
631.787	0.1
632.231	0.1
632.674	0.1
633.118	0.1
633.562	0.1
634.005	0.1
634.449	0.1
634.892	0.1
635.336	0.11
635.779	0.11
636.223	0.11
636.666	0.11
637.109	0.11
637.553	0.11
637.996	0.12
638.439	0.12
638.883	0.12
639.326	0.12
639.769	0.12
640.212	0.12
640.655	0.12
641.099	0.13
641.542	0.13
641.985	0.13
642.428	0.13
642.871	0.14
643.314	0.14
643.757	0.14
644.2	0.14
644.643	0.15
645.085	0.15
645.528	0.15
645.971	0.16
646.414	0.16
646.857	0.16
647.299	0.17
647.742	0.17
648.185	0.17
648.627	0.18
649.07	0.18
649.513	0.18
649.955	0.18
650.398	0.19
650.84	0.19
651.283	0.19
651.725	0.19
652.168	0.2
652.61	0.2
653.052	0.2
653.495	0.2
653.937	0.17
654.379	0.14
654.821	0.15
655.264	0.15
655.706	0.15
656.148	0.15
656.59	0.16
657.032	0.16
657.474	0.16
657.916	0.16
658.358	0.16
658.8	0.2
659.242	0.25
659.684	0.25
660.126	0.25
660.568	0.25
661.01	0.25
661.452	0.26
661.894	0.26
662.335	0.26
662.777	0.27
663.219	0.27
663.661	0.27
664.102	0.28
664.544	0.28
664.985	0.28
665.427	0.28
665.869	0.29
666.31	0.29
666.752	0.29
667.193	0.3
667.634	0.3
668.076	0.3
668.517	0.3
668.959	0.31
669.4	0.31
669.841	0.32
670.282	0.32
670.724	0.32
671.165	0.33
671.606	0.33
672.047	0.33
672.488	0.33
672.929	0.33
673.37	0.33
673.811	0.33
674.252	0.33
674.693	0.33
675.134	0.33
675.575	0.34
676.016	0.34
676.457	0.34
676.898	0.34
677.339	0.35
677.78	0.35
678.22	0.35
678.661	0.35
679.102	0.36
679.542	0.36
679.983	0.36
680.424	0.36
680.864	0.36
681.305	0.36
681.745	0.36
682.186	0.37
682.626	0.37
683.067	0.37
683.507	0.37
683.948	0.37
684.388	0.38
684.828	0.38
685.269	0.38
685.709	0.38
686.149	0.38
686.589	0.38
687.029	0.38
687.47	0.38
687.91	0.38
688.35	0.38
688.79	0.38
689.23	0.38
689.67	0.38
690.11	0.38
690.55	0.38
690.99	0.38
691.43	0.38
691.87	0.38
692.31	0.38
692.749	0.38
693.189	0.38
693.629	0.38
694.069	0.38
694.508	0.37
694.948	0.37
695.388	0.37
695.827	0.37
696.267	0.37
696.706	0.37
697.146	0.37
697.586	0.37
698.025	0.37
698.464	0.37
698.904	0.36
699.343	0.36
699.783	0.36
700.222	0.36
700.661	0.35
701.101	0.35
701.54	0.35
701.979	0.35
702.418	0.35
702.857	0.35
703.297	0.35
703.736	0.34
704.175	0.34
704.614	0.34
705.053	0.34
705.492	0.34
705.931	0.34
706.37	0.34
706.809	0.33
707.248	0.33
707.687	0.33
708.125	0.33
708.564	0.33
709.003	0.32
709.442	0.32
709.88	0.32
710.319	0.31
710.758	0.31
711.196	0.31
711.635	0.3
712.074	0.3
712.512	0.3
712.951	0.3
713.389	0.29
713.828	0.29
714.266	0.29
714.705	0.29
715.143	0.28
715.581	0.28
716.02	0.28
716.458	0.27
716.896	0.27
717.334	0.27
717.773	0.26
718.211	0.26
718.649	0.26
719.087	0.25
719.525	0.25
719.963	0.25
720.401	0.25
720.839	0.24
721.277	0.24
721.715	0.24
722.153	0.23
722.591	0.23
723.029	0.23
723.467	0.23
723.905	0.22
724.342	0.22
724.78	0.22
725.218	0.22
725.656	0.21
726.093	0.21
726.531	0.21
726.969	0.21
727.406	0.21
727.844	0.2
728.281	0.2
728.719	0.2
729.156	0.2
729.594	0.2
730.031	0.2
730.469	0.19
730.906	0.19
731.343	0.19
731.781	0.19
732.218	0.19
732.655	0.18
733.092	0.18
733.53	0.18
733.967	0.17
734.404	0.17
734.841	0.17
735.278	0.16
735.715	0.16
736.152	0.16
736.589	0.15
737.026	0.15
737.463	0.15
737.9	0.15
738.337	0.14
738.774	0.14
739.211	0.14
739.647	0.13
740.084	0.13
740.521	0.13
740.958	0.13
741.394	0.12
741.831	0.12
742.268	0.11
742.704	0.11
743.141	0.1
743.577	0.1
744.014	0.1
744.45	0.09
744.887	0.09
745.323	0.09
745.76	0.09
746.196	0.09
746.632	0.09
747.069	0.09
747.505	0.09
747.941	0.09
748.378	0.09
748.814	0.08
749.25	0.08
749.686	0.08
750.122	0.08
750.558	0.08
750.994	0.08
751.43	0.08
751.866	0.08
752.302	0.08
752.738	0.08
753.174	0.08
753.61	0.07
754.046	0.07
754.482	0.07
754.918	0.07
755.354	0.07
755.789	0.07
756.225	0.07
756.661	0.07
757.096	0.07
757.532	0.07
757.968	0.07
758.403	0.07
758.839	0.07
759.274	0.07
759.71	0.06
760.145	0.06
760.581	0.06
761.016	0.05
761.452	0.05
761.887	0.05
762.322	0.05
762.758	0.05
763.193	0.04
763.628	0.04
764.063	0.04
764.499	0.04
764.934	0.03
765.369	0.03
765.804	0.03
766.239	0.03
766.674	0.03
767.109	0.02
767.544	0.02
767.979	0.02
768.414	0.02
768.849	0.01
769.284	0.01
769.719	0.01
770.154	0.01
770.588	0.01
771.023	0
771.458	-0
771.893	-0
772.327	-0.01
772.762	-0.01
773.197	-0.01
773.631	-0.02
774.066	-0.02
774.5	-0.02
774.935	-0.03
775.369	-0.03
775.804	-0.03
776.238	-0.04
776.673	-0.04
777.107	-0.05
777.541	-0.05
777.976	-0.06
778.41	-0.07
778.844	-0.07
779.279	-0.07
779.713	-0.07
780.147	-0.07
780.581	-0.07
781.015	-0.07
781.449	-0.07
781.883	-0.07
782.317	-0.07
782.751	-0.07
783.185	-0.06
783.619	-0.07
784.053	-0.07
784.487	-0.07
784.921	-0.07
785.355	-0.07
785.789	-0.07
786.223	-0.07
786.656	-0.07
787.09	-0.06
787.524	-0.06
787.957	-0.06
788.391	-0.06
788.825	-0.06
789.258	-0.06
789.692	-0.06
790.125	-0.06
790.559	-0.06
790.992	-0.06
791.426	-0.06
791.859	-0.06
792.293	-0.05
792.726	-0.05
793.159	-0.04
793.593	-0.04
794.026	-0.04
794.459	-0.05
794.892	-0.05
795.326	-0.05
795.759	-0.05
796.192	-0.05
796.625	-0.06
797.058	-0.07
797.491	-0.08
797.924	-0.08
798.357	-0.08
798.79	-0.08
799.223	-0.08
799.656	-0.08
800.089	-0.08
800.522	-0.08
800.955	-0.08
801.387	-0.08
801.82	-0.08
802.253	-0.09
802.686	-0.09
803.118	-0.09
803.551	-0.09
803.984	-0.08
804.416	-0.08
804.849	-0.07
805.281	-0.07
805.714	-0.07
806.146	-0.07
806.579	-0.07
807.011	-0.07
807.444	-0.07
807.876	-0.07
808.308	-0.07
808.741	-0.08
809.173	-0.08
809.605	-0.08
810.037	-0.09
810.47	-0.09
810.902	-0.09
811.334	-0.09
811.766	-0.09
812.198	-0.08
812.63	-0.08
813.062	-0.08
813.494	-0.08
813.926	-0.08
814.358	-0.08
814.79	-0.08
815.222	-0.08
815.654	-0.07
816.086	-0.07
816.518	-0.08
816.949	-0.08
817.381	-0.08
817.813	-0.08
818.245	-0.08
818.676	-0.07
819.108	-0.07
819.54	-0.07
819.971	-0.07
820.403	-0.08
820.834	-0.08
821.266	-0.08
821.697	-0.08
822.129	-0.08
822.56	-0.08
822.991	-0.08
823.423	-0.08
823.854	-0.08
824.286	-0.08
824.717	-0.08
825.148	-0.07
825.579	-0.06
826.01	-0.06
826.442	-0.05
826.873	-0.05
827.304	-0.04
827.735	-0.03
828.166	-0.03
828.597	-0.02
829.028	-0.02
829.459	-0.01
829.89	-0.01
830.321	-0.01
830.752	-0.01
831.183	-0
831.613	-0
832.044	0
832.475	0
832.906	0.01
833.336	0.01
833.767	0.01
834.198	0.01
834.628	0.01
835.059	0.01
835.49	0.01
835.92	0.01
836.351	0.02
836.781	0.02
837.212	0.02
837.642	0.02
838.072	0.02
838.503	0.02
838.933	0.02
839.364	0.02
839.794	0.02
840.224	0.02
840.654	0.02
841.085	0.02
841.515	0.02
841.945	0.03
842.375	0.03
842.805	0.03
843.235	0.03
843.665	0.03
844.095	0.03
844.525	0.03
844.955	0.03
845.385	0.03
845.815	0.03
846.245	0.03
846.675	0.03
847.105	0.03
847.534	0.03
847.964	0.04
848.394	0.04
848.824	0.04
849.253	0.04
849.683	0.04
850.112	0.04
850.542	0.04
850.972	0.04
851.401	0.04
851.831	0.04
852.26	0.04
852.69	0.04
853.119	0.04
853.548	0.04
853.978	0.04
854.407	0.04
854.836	0.04
855.266	0.04
855.695	0.04
856.124	0.05
856.553	0.05
856.983	0.05
857.412	0.05
857.841	0.05
858.27	0.05
858.699	0.05
859.128	0.05
859.557	0.05
859.986	0.05
860.415	0.05
860.844	0.05
861.273	0.05
861.702	0.05
862.13	0.05
862.559	0.05
862.988	0.05
863.417	0.05
863.845	0.05
864.274	0.05
864.703	0.05
865.131	0.05
865.56	0.05
865.989	0.05
866.417	0.06
866.846	0.06
867.274	0.06
867.703	0.06
868.131	0.06
868.559	0.06
868.988	0.06
869.416	0.06
869.844	0.06
870.273	0.06
870.701	0.06
871.129	0.06
871.557	0.06
871.986	0.06
872.414	0.06
872.842	0.06
873.27	0.06
873.698	0.06
874.126	0.06
874.554	0.06
874.982	0.06
875.41	0.06
875.838	0.06
876.266	0.06
876.694	0.06
877.122	0.06
877.549	0.06
877.977	0.06
878.405	0.06
878.833	0.06
879.26	0.07
879.688	0.06
880.116	0.06
880.543	0.06
880.971	0.06
881.399	0.06
881.826	0.06
882.254	0.06
882.681	0.06
883.109	0.06
883.536	0.06
883.963	0.06
884.391	0.06
884.818	0.06
885.245	0.06
885.673	0.06
886.1	0.06
886.527	0.06
886.954	0.06
887.381	0.06
887.809	0.06
888.236	0.06
888.663	0.06
889.09	0.07
889.517	0.07
889.944	0.07
890.371	0.07
890.798	0.06
891.225	0.06
891.652	0.06
892.078	0.06
892.505	0.06
892.932	0.06
893.359	0.06
893.786	0.06
894.212	0.06
894.639	0.06
895.066	0.06
895.492	0.06
895.919	0.06
896.346	0.06
896.772	0.06
897.199	0.06
897.625	0.06
898.052	0.06
898.478	0.06
898.904	0.06
899.331	0.06
899.757	0.06
900.183	0.06
900.61	0.06
901.036	0.06
901.462	0.06
901.888	0.06
902.315	0.06
902.741	0.06
903.167	0.06
903.593	0.06
904.019	0.06
904.445	0.06
904.871	0.06
905.297	0.06
905.723	0.06
906.149	0.06
906.575	0.06
907.001	0.06
907.427	0.06
907.852	0.06
908.278	0.06
908.704	0.06
909.13	0.06
909.555	0.07
909.981	0.07
910.407	0.07
910.832	0.07
911.258	0.07
911.684	0.07
912.109	0.07
912.535	0.07
912.96	0.07
913.386	0.07
913.811	0.07
914.236	0.07
914.662	0.07
915.087	0.07
915.512	0.07
915.938	0.06
916.363	0.06
916.788	0.06
917.213	0.06
917.639	0.06
918.064	0.07
918.489	0.07
918.914	0.07
919.339	0.07
919.764	0.07
920.189	0.07
920.614	0.07
921.039	0.07
921.464	0.07
921.889	0.07
922.314	0.07
922.738	0.07
923.163	0.07
923.588	0.07
924.013	0.07
924.437	0.07
924.862	0.07
925.287	0.07
925.711	0.07
926.136	0.07
926.561	0.07
926.985	0.07
927.41	0.07
927.834	0.07
928.259	0.07
928.683	0.07
929.108	0.07
929.532	0.07
929.956	0.07
930.381	0.07
930.805	0.07
931.229	0.07
931.653	0.08
932.078	0.08
932.502	0.08
932.926	0.08
933.35	0.08
933.774	0.08
934.198	0.08
934.622	0.08
935.046	0.08
935.47	0.08
935.894	0.08
936.318	0.08
936.742	0.08
937.166	0.08
937.59	0.08
938.014	0.08
938.437	0.08
938.861	0.08
939.285	0.08
939.709	0.08
940.132	0.08
940.556	0.08
940.98	0.08
941.403	0.08
941.827	0.08
942.25	0.08
942.674	0.08
943.097	0.08
943.521	0.08
943.944	0.08
944.368	0.08
944.791	0.08
945.214	0.08
945.638	0.08
946.061	0.08
946.484	0.08
946.907	0.08
947.331	0.08
947.754	0.08
948.177	0.08
948.6	0.08
949.023	0.08
949.446	0.08
949.869	0.08
950.292	0.08
950.715	0.08
951.138	0.08
951.561	0.08
951.984	0.08
952.407	0.08
952.83	0.08
953.252	0.08
953.675	0.08
954.098	0.08
954.521	0.08
954.943	0.08
955.366	0.08
955.789	0.08
956.211	0.08
956.634	0.08
957.056	0.08
957.479	0.08
957.902	0.08
958.324	0.08
958.746	0.08
959.169	0.08
959.591	0.08
960.014	0.08
960.436	0.08
960.858	0.08
961.281	0.08
961.703	0.08
962.125	0.08
962.547	0.08
962.969	0.08
963.391	0.08
963.814	0.08
964.236	0.08
964.658	0.08
965.08	0.08
965.502	0.08
965.924	0.08
966.346	0.08
966.768	0.08
967.189	0.08
967.611	0.08
968.033	0.08
968.455	0.08
968.877	0.08
969.298	0.08
969.72	0.08
970.142	0.08
970.563	0.08
970.985	0.08
971.407	0.08
971.828	0.08
972.25	0.08
972.671	0.08
973.093	0.08
973.514	0.08
973.936	0.08
974.357	0.08
974.778	0.08
975.2	0.08
975.621	0.08
976.042	0.08
976.464	0.08
976.885	0.08
977.306	0.08
977.727	0.08
978.148	0.08
978.57	0.08
978.991	0.08
979.412	0.08
979.833	0.08
980.254	0.08
980.675	0.08
981.096	0.08
981.517	0.08
981.937	0.08
982.358	0.08
982.779	0.08
983.2	0.08
983.621	0.08
984.042	0.08
984.462	0.08
984.883	0.08
985.304	0.08
985.724	0.08
986.145	0.08
986.565	0.08
986.986	0.08
987.407	0.08
987.827	0.08
988.248	0.08
988.668	0.08
989.088	0.08
989.509	0.08
989.929	0.08
990.35	0.08
990.77	0.08
991.19	0.08
991.61	0.08
992.031	0.08
992.451	0.08
992.871	0.08
993.291	0.08
993.711	0.08
994.131	0.08
994.551	0.08
994.971	0.08
995.391	0.08
995.811	0.08
996.231	0.08
996.651	0.08
997.071	0.08
997.491	0.08
997.911	0.08
998.331	0.08
998.75	0.08
999.17	0.08
999.59	0.08
1000.009	0.08
1000.429	0.08
1000.849	0.08
1001.268	0.08
1001.688	0.08
1002.107	0.08
1002.527	0.08
1002.946	0.08
1003.366	0.08
1003.785	0.08
1004.205	0.08
1004.624	0.08
1005.044	0.08
1005.463	0.08
1005.882	0.08
1006.301	0.08
1006.721	0.08
1007.14	0.08
1007.559	0.08
1007.978	0.08
1008.397	0.08
1008.816	0.08
1009.235	0.08
1009.655	0.08
1010.074	0.08
1010.492	0.08
1010.911	0.08
1011.33	0.08
1011.749	0.08
1012.168	0.08
1012.587	0.08
1013.006	0.08
1013.425	0.08
1013.843	0.08
1014.262	0.09
1014.681	0.09
1015.099	0.09
1015.518	0.09
1015.937	0.09
1016.355	0.09
1016.774	0.09
1017.192	0.09
1017.611	0.09
1018.029	0.09
1018.448	0.09
1018.866	0.09
1019.285	0.09
1019.703	0.09
1020.121	0.09
1020.54	0.09
1020.958	0.09
1021.376	0.09
1021.794	0.09
1022.213	0.09
1022.631	0.09
1023.049	0.09
1023.467	0.09
1023.885	0.09
1024.303	0.09
1024.721	0.09
1025.139	0.09
1025.557	0.09
1025.975	0.09
1026.393	0.09
1026.811	0.09
1027.229	0.09
1027.647	0.09
1028.065	0.09
1028.482	0.09
1028.9	0.09
1029.318	0.09
1029.735	0.09
1030.153	0.09
1030.571	0.09
1030.988	0.09
1031.406	0.09
1031.823	0.1
1032.241	0.1
1032.659	0.1
1033.076	0.1
1033.493	0.1
1033.911	0.1
1034.328	0.1
1034.746	0.1
1035.163	0.1
1035.58	0.1
1035.997	0.1
1036.415	0.1
1036.832	0.1
1037.249	0.1
1037.666	0.1
1038.083	0.1
1038.501	0.1
1038.918	0.1
1039.335	0.11
1039.752	0.11
1040.169	0.11
1040.586	0.11
1041.003	0.11
1041.419	0.11
1041.836	0.11
1042.253	0.11
1042.67	0.11
1043.087	0.11
1043.504	0.11
1043.92	0.12
1044.337	0.12
1044.754	0.12
1045.17	0.12
1045.587	0.12
1046.004	0.12
1046.42	0.12
1046.837	0.12
1047.253	0.12
1047.67	0.12
1048.086	0.12
1048.503	0.12
1048.919	0.12
1049.335	0.12
1049.752	0.12
1050.168	0.12
1050.584	0.12
1051.001	0.12
1051.417	0.12
1051.833	0.12
1052.249	0.12
1052.665	0.12
1053.081	0.13
1053.497	0.13
1053.914	0.13
1054.33	0.13
1054.746	0.13
1055.162	0.13
1055.578	0.13
1055.993	0.13
1056.409	0.13
1056.825	0.13
1057.241	0.14
1057.657	0.14
1058.073	0.14
1058.488	0.14
1058.904	0.14
1059.32	0.15
1059.736	0.15
1060.151	0.15
1060.567	0.15
1060.982	0.15
1061.398	0.15
1061.813	0.16
1062.229	0.16
1062.644	0.16
1063.06	0.16
1063.475	0.16
1063.891	0.16
1064.306	0.16
1064.721	0.16
1065.137	0.17
1065.552	0.17
1065.967	0.17
1066.382	0.17
1066.798	0.17
1067.213	0.18
1067.628	0.18
1068.043	0.18
1068.458	0.18
1068.873	0.18
1069.288	0.18
1069.703	0.19
1070.118	0.19
1070.533	0.19
1070.948	0.19
1071.363	0.19
1071.778	0.2
1072.193	0.2
1072.607	0.2
1073.022	0.21
1073.437	0.21
1073.852	0.21
1074.266	0.22
1074.681	0.22
1075.096	0.22
1075.51	0.23
1075.925	0.23
1076.339	0.24
1076.754	0.24
1077.168	0.24
1077.583	0.25
1077.997	0.25
1078.412	0.26
1078.826	0.26
1079.24	0.27
1079.655	0.27
1080.069	0.27
1080.483	0.28
1080.897	0.28
1081.312	0.28
1081.726	0.29
1082.14	0.29
1082.554	0.3
1082.968	0.3
1083.382	0.31
1083.796	0.31
1084.21	0.32
1084.624	0.33
1085.038	0.34
1085.452	0.35
1085.866	0.35
1086.28	0.36
1086.694	0.37
1087.108	0.38
1087.521	0.39
1087.935	0.4
1088.349	0.42
1088.763	0.43
1089.176	0.45
1089.59	0.46
1090.004	0.48
1090.417	0.5
1090.831	0.53
1091.244	0.56
1091.658	0.59
1092.071	0.62
1092.485	0.65
1092.898	0.69
1093.312	0.74
1093.725	0.79
1094.138	0.86
1094.552	0.94
1094.965	1.05
1095.378	1.2
1095.791	1.44
1096.205	2.13
1096.618	-0
1097.031	-0
1097.444	-0
1097.857	-0
1098.27	-0
1098.683	-0
1099.096	-0
1099.509	-0
1099.922	-0
1100.335	-0
1100.748	-0
1101.161	-0
1101.574	-0
1101.986	-0
1102.399	-0
1102.812	-0
1103.225	-0
1103.637	-0
1104.05	-0
1104.463	-0
1104.875	-0
1105.288	-0
1105.7	-0
1106.113	-0
1106.525	-0
1106.938	-0
1107.35	-0
1107.763	-0
1108.175	-0
1108.588	-0
1109	-0
1109.412	-0
1109.824	-0
1110.237	-0
1110.649	-0
1111.061	-0
