Data from redip-kinet-2-5a_Absorbance__65__00065.txt Node

Date: Fri Apr 12 13:47:40 CEST 2024
User: Laser008
Spectrometer: MAYP115816
Trigger mode: 0
Integration Time (sec): 2.000000E-1
Scans to average: 10
Electric dark correction enabled: true
Nonlinearity correction enabled: true
Boxcar width: 5
XAxis mode: Wavelengths
Number of Pixels in Spectrum: 2068
>>>>>Begin Spectral Data<<<<<
198.914	-2.23
199.384	-2.07
199.855	-1.93
200.325	-1.82
200.796	-1.74
201.266	-1.69
201.737	-1.61
202.207	-1.55
202.677	-1.5
203.147	-1.45
203.618	-1.42
204.088	-1.39
204.558	-1.37
205.028	-1.36
205.498	-1.35
205.968	-1.35
206.439	-1.35
206.909	-1.35
207.379	-1.34
207.849	-1.34
208.319	-1.34
208.789	-1.33
209.258	-1.33
209.728	-1.33
210.198	-1.33
210.668	-1.32
211.138	-1.32
211.608	-1.32
212.077	-1.32
212.547	-1.32
213.017	-1.32
213.486	-1.32
213.956	-1.32
214.426	-1.31
214.895	-1.31
215.365	-1.31
215.834	-1.31
216.304	-1.31
216.773	-1.31
217.243	-1.3
217.712	-1.3
218.181	-1.3
218.651	-1.3
219.12	-1.3
219.589	-1.29
220.058	-1.29
220.528	-1.29
220.997	-1.28
221.466	-1.28
221.935	-1.27
222.404	-1.27
222.873	-1.26
223.342	-1.26
223.812	-1.25
224.281	-1.24
224.749	-1.23
225.218	-1.23
225.687	-1.22
226.156	-1.21
226.625	-1.19
227.094	-1.18
227.563	-1.16
228.031	-1.14
228.5	-1.12
228.969	-1.09
229.438	-1.06
229.906	-1.03
230.375	-1
230.844	-0.96
231.312	-0.92
231.781	-0.88
232.249	-0.83
232.718	-0.78
233.186	-0.73
233.655	-0.68
234.123	-0.63
234.591	-0.58
235.06	-0.53
235.528	-0.48
235.996	-0.43
236.465	-0.39
236.933	-0.34
237.401	-0.29
237.869	-0.25
238.337	-0.21
238.805	-0.17
239.274	-0.13
239.742	-0.1
240.21	-0.07
240.678	-0.03
241.146	-0
241.614	0.02
242.081	0.05
242.549	0.07
243.017	0.1
243.485	0.12
243.953	0.14
244.421	0.16
244.888	0.18
245.356	0.19
245.824	0.21
246.291	0.22
246.759	0.23
247.227	0.25
247.694	0.26
248.162	0.27
248.629	0.28
249.097	0.29
249.564	0.3
250.032	0.31
250.499	0.32
250.967	0.33
251.434	0.33
251.901	0.34
252.369	0.35
252.836	0.35
253.303	0.36
253.77	0.37
254.237	0.37
254.705	0.38
255.172	0.38
255.639	0.39
256.106	0.39
256.573	0.39
257.04	0.4
257.507	0.4
257.974	0.4
258.441	0.41
258.908	0.41
259.375	0.41
259.841	0.41
260.308	0.41
260.775	0.42
261.242	0.42
261.709	0.42
262.175	0.42
262.642	0.42
263.109	0.42
263.575	0.42
264.042	0.42
264.508	0.42
264.975	0.42
265.441	0.43
265.908	0.43
266.374	0.43
266.841	0.43
267.307	0.43
267.773	0.43
268.24	0.42
268.706	0.42
269.172	0.42
269.639	0.42
270.105	0.42
270.571	0.42
271.037	0.42
271.503	0.42
271.969	0.42
272.435	0.42
272.902	0.41
273.368	0.41
273.834	0.41
274.3	0.41
274.765	0.41
275.231	0.41
275.697	0.4
276.163	0.4
276.629	0.4
277.095	0.4
277.56	0.39
278.026	0.39
278.492	0.39
278.958	0.39
279.423	0.39
279.889	0.38
280.354	0.38
280.82	0.38
281.286	0.38
281.751	0.38
282.217	0.38
282.682	0.38
283.147	0.38
283.613	0.38
284.078	0.38
284.544	0.37
285.009	0.37
285.474	0.37
285.939	0.37
286.405	0.37
286.87	0.36
287.335	0.36
287.8	0.36
288.265	0.36
288.73	0.36
289.195	0.36
289.66	0.36
290.125	0.35
290.59	0.35
291.055	0.35
291.52	0.35
291.985	0.35
292.45	0.35
292.915	0.35
293.38	0.35
293.844	0.34
294.309	0.34
294.774	0.34
295.239	0.34
295.703	0.34
296.168	0.34
296.632	0.34
297.097	0.34
297.562	0.34
298.026	0.33
298.491	0.33
298.955	0.33
299.419	0.33
299.884	0.33
300.348	0.33
300.813	0.33
301.277	0.33
301.741	0.33
302.205	0.33
302.67	0.33
303.134	0.32
303.598	0.32
304.062	0.32
304.526	0.32
304.99	0.32
305.454	0.32
305.919	0.32
306.383	0.32
306.847	0.32
307.31	0.32
307.774	0.32
308.238	0.31
308.702	0.31
309.166	0.31
309.63	0.31
310.094	0.31
310.557	0.31
311.021	0.31
311.485	0.31
311.948	0.31
312.412	0.31
312.876	0.31
313.339	0.3
313.803	0.3
314.266	0.3
314.73	0.3
315.193	0.3
315.657	0.3
316.12	0.3
316.584	0.3
317.047	0.3
317.51	0.3
317.973	0.29
318.437	0.29
318.9	0.29
319.363	0.29
319.826	0.29
320.29	0.29
320.753	0.29
321.216	0.29
321.679	0.29
322.142	0.29
322.605	0.28
323.068	0.28
323.531	0.28
323.994	0.28
324.457	0.28
324.92	0.28
325.382	0.28
325.845	0.28
326.308	0.28
326.771	0.28
327.233	0.28
327.696	0.27
328.159	0.27
328.622	0.27
329.084	0.27
329.547	0.27
330.009	0.27
330.472	0.27
330.934	0.27
331.397	0.27
331.859	0.27
332.322	0.27
332.784	0.26
333.246	0.26
333.709	0.26
334.171	0.26
334.633	0.26
335.096	0.26
335.558	0.26
336.02	0.26
336.482	0.26
336.944	0.26
337.406	0.26
337.868	0.26
338.331	0.25
338.793	0.25
339.255	0.25
339.717	0.25
340.178	0.25
340.64	0.25
341.102	0.25
341.564	0.25
342.026	0.25
342.488	0.25
342.949	0.25
343.411	0.25
343.873	0.25
344.335	0.25
344.796	0.24
345.258	0.24
345.719	0.24
346.181	0.24
346.643	0.24
347.104	0.24
347.566	0.24
348.027	0.24
348.488	0.24
348.95	0.24
349.411	0.24
349.873	0.23
350.334	0.23
350.795	0.23
351.256	0.23
351.718	0.23
352.179	0.23
352.64	0.23
353.101	0.23
353.562	0.23
354.023	0.23
354.484	0.22
354.945	0.22
355.406	0.22
355.867	0.22
356.328	0.22
356.789	0.22
357.25	0.22
357.711	0.22
358.172	0.22
358.633	0.22
359.093	0.22
359.554	0.22
360.015	0.22
360.476	0.22
360.936	0.22
361.397	0.22
361.858	0.22
362.318	0.23
362.779	0.23
363.239	0.22
363.7	0.22
364.16	0.22
364.621	0.22
365.081	0.22
365.541	0.22
366.002	0.22
366.462	0.22
366.922	0.22
367.383	0.22
367.843	0.22
368.303	0.22
368.763	0.22
369.223	0.22
369.684	0.22
370.144	0.22
370.604	0.22
371.064	0.22
371.524	0.22
371.984	0.21
372.444	0.21
372.904	0.21
373.363	0.21
373.823	0.21
374.283	0.21
374.743	0.21
375.203	0.21
375.663	0.21
376.122	0.21
376.582	0.21
377.042	0.21
377.501	0.21
377.961	0.21
378.42	0.21
378.88	0.21
379.34	0.21
379.799	0.21
380.259	0.21
380.718	0.21
381.177	0.21
381.637	0.21
382.096	0.21
382.555	0.21
383.015	0.21
383.474	0.21
383.933	0.21
384.393	0.21
384.852	0.21
385.311	0.21
385.77	0.21
386.229	0.21
386.688	0.21
387.147	0.21
387.606	0.21
388.065	0.21
388.524	0.21
388.983	0.21
389.442	0.21
389.901	0.21
390.36	0.21
390.819	0.21
391.277	0.21
391.736	0.21
392.195	0.21
392.654	0.21
393.112	0.21
393.571	0.21
394.03	0.21
394.488	0.21
394.947	0.21
395.405	0.21
395.864	0.21
396.322	0.21
396.781	0.21
397.239	0.21
397.698	0.21
398.156	0.21
398.614	0.21
399.073	0.21
399.531	0.21
399.989	0.21
400.447	0.21
400.905	0.2
401.364	0.2
401.822	0.2
402.28	0.2
402.738	0.2
403.196	0.2
403.654	0.2
404.112	0.2
404.57	0.2
405.028	0.2
405.486	0.2
405.944	0.2
406.402	0.2
406.859	0.2
407.317	0.2
407.775	0.2
408.233	0.2
408.691	0.19
409.148	0.19
409.606	0.19
410.064	0.19
410.521	0.19
410.979	0.19
411.436	0.19
411.894	0.19
412.351	0.19
412.809	0.19
413.266	0.19
413.724	0.19
414.181	0.19
414.638	0.19
415.096	0.19
415.553	0.19
416.01	0.19
416.467	0.19
416.925	0.19
417.382	0.19
417.839	0.19
418.296	0.19
418.753	0.19
419.21	0.19
419.667	0.19
420.124	0.19
420.581	0.19
421.038	0.19
421.495	0.19
421.952	0.19
422.409	0.19
422.866	0.19
423.322	0.19
423.779	0.19
424.236	0.19
424.693	0.19
425.149	0.19
425.606	0.19
426.063	0.19
426.519	0.19
426.976	0.19
427.433	0.19
427.889	0.19
428.346	0.19
428.802	0.19
429.258	0.19
429.715	0.19
430.171	0.19
430.628	0.19
431.084	0.19
431.54	0.19
431.997	0.19
432.453	0.19
432.909	0.19
433.365	0.19
433.821	0.19
434.277	0.18
434.734	0.18
435.19	0.18
435.646	0.18
436.102	0.18
436.558	0.18
437.014	0.18
437.47	0.18
437.925	0.18
438.381	0.18
438.837	0.18
439.293	0.18
439.749	0.18
440.205	0.18
440.66	0.18
441.116	0.18
441.572	0.18
442.027	0.18
442.483	0.18
442.939	0.18
443.394	0.18
443.85	0.18
444.305	0.18
444.761	0.18
445.216	0.18
445.672	0.18
446.127	0.18
446.582	0.18
447.038	0.18
447.493	0.18
447.948	0.18
448.403	0.18
448.859	0.18
449.314	0.18
449.769	0.18
450.224	0.18
450.679	0.18
451.134	0.18
451.589	0.18
452.044	0.18
452.499	0.18
452.954	0.18
453.409	0.18
453.864	0.17
454.319	0.17
454.774	0.17
455.229	0.17
455.684	0.17
456.138	0.17
456.593	0.17
457.048	0.17
457.503	0.17
457.957	0.17
458.412	0.17
458.866	0.17
459.321	0.17
459.776	0.17
460.23	0.17
460.685	0.17
461.139	0.17
461.593	0.17
462.048	0.17
462.502	0.17
462.957	0.17
463.411	0.17
463.865	0.17
464.319	0.17
464.774	0.17
465.228	0.17
465.682	0.17
466.136	0.17
466.59	0.17
467.044	0.17
467.499	0.17
467.953	0.17
468.407	0.17
468.861	0.16
469.315	0.16
469.768	0.16
470.222	0.16
470.676	0.16
471.13	0.16
471.584	0.16
472.038	0.16
472.491	0.16
472.945	0.16
473.399	0.16
473.852	0.17
474.306	0.17
474.76	0.17
475.213	0.17
475.667	0.17
476.12	0.17
476.574	0.17
477.027	0.17
477.481	0.17
477.934	0.17
478.388	0.17
478.841	0.17
479.294	0.17
479.748	0.17
480.201	0.17
480.654	0.18
481.107	0.18
481.561	0.18
482.014	0.18
482.467	0.18
482.92	0.18
483.373	0.19
483.826	0.19
484.279	0.19
484.732	0.2
485.185	0.2
485.638	0.2
486.091	0.2
486.544	0.2
486.997	0.2
487.449	0.2
487.902	0.2
488.355	0.2
488.808	0.2
489.26	0.19
489.713	0.19
490.166	0.19
490.618	0.19
491.071	0.19
491.523	0.19
491.976	0.19
492.429	0.19
492.881	0.19
493.333	0.19
493.786	0.19
494.238	0.2
494.691	0.2
495.143	0.2
495.595	0.2
496.048	0.2
496.5	0.2
496.952	0.2
497.404	0.21
497.856	0.21
498.309	0.21
498.761	0.21
499.213	0.21
499.665	0.21
500.117	0.21
500.569	0.21
501.021	0.21
501.473	0.21
501.925	0.22
502.377	0.22
502.828	0.22
503.28	0.22
503.732	0.22
504.184	0.22
504.636	0.22
505.087	0.22
505.539	0.22
505.991	0.22
506.442	0.22
506.894	0.22
507.345	0.22
507.797	0.22
508.249	0.22
508.7	0.22
509.151	0.22
509.603	0.23
510.054	0.23
510.506	0.23
510.957	0.23
511.408	0.23
511.86	0.23
512.311	0.22
512.762	0.22
513.213	0.22
513.665	0.22
514.116	0.22
514.567	0.22
515.018	0.22
515.469	0.22
515.92	0.22
516.371	0.22
516.822	0.22
517.273	0.22
517.724	0.22
518.175	0.22
518.626	0.22
519.076	0.22
519.527	0.22
519.978	0.21
520.429	0.21
520.88	0.21
521.33	0.21
521.781	0.2
522.232	0.2
522.682	0.19
523.133	0.19
523.583	0.19
524.034	0.19
524.484	0.19
524.935	0.19
525.385	0.19
525.836	0.19
526.286	0.2
526.736	0.2
527.187	0.21
527.637	0.21
528.087	0.21
528.538	0.22
528.988	0.22
529.438	0.22
529.888	0.22
530.338	0.22
530.788	0.23
531.238	0.23
531.688	0.23
532.139	0.23
532.589	0.23
533.038	0.23
533.488	0.23
533.938	0.23
534.388	0.23
534.838	0.23
535.288	0.23
535.738	0.23
536.187	0.23
536.637	0.23
537.087	0.23
537.537	0.23
537.986	0.23
538.436	0.22
538.885	0.22
539.335	0.22
539.785	0.22
540.234	0.22
540.684	0.22
541.133	0.22
541.582	0.22
542.032	0.22
542.481	0.22
542.931	0.22
543.38	0.21
543.829	0.21
544.278	0.21
544.728	0.21
545.177	0.21
545.626	0.21
546.075	0.21
546.524	0.21
546.973	0.21
547.422	0.2
547.871	0.2
548.32	0.2
548.769	0.19
549.218	0.19
549.667	0.19
550.116	0.19
550.565	0.18
551.014	0.18
551.463	0.18
551.911	0.17
552.36	0.17
552.809	0.17
553.258	0.17
553.706	0.17
554.155	0.17
554.603	0.17
555.052	0.16
555.501	0.16
555.949	0.16
556.398	0.15
556.846	0.15
557.294	0.15
557.743	0.15
558.191	0.14
558.64	0.14
559.088	0.14
559.536	0.14
559.985	0.14
560.433	0.14
560.881	0.14
561.329	0.14
561.777	0.14
562.225	0.14
562.674	0.14
563.122	0.13
563.57	0.13
564.018	0.13
564.466	0.13
564.914	0.12
565.362	0.12
565.809	0.12
566.257	0.12
566.705	0.12
567.153	0.12
567.601	0.12
568.048	0.12
568.496	0.12
568.944	0.13
569.392	0.13
569.839	0.13
570.287	0.13
570.734	0.13
571.182	0.13
571.63	0.14
572.077	0.14
572.525	0.14
572.972	0.14
573.419	0.14
573.867	0.14
574.314	0.14
574.761	0.13
575.209	0.13
575.656	0.14
576.103	0.14
576.551	0.14
576.998	0.13
577.445	0.13
577.892	0.13
578.339	0.13
578.786	0.13
579.233	0.13
579.68	0.13
580.127	0.13
580.574	0.13
581.021	0.13
581.468	0.12
581.915	0.12
582.362	0.12
582.809	0.12
583.255	0.12
583.702	0.12
584.149	0.12
584.596	0.11
585.042	0.11
585.489	0.11
585.936	0.11
586.382	0.11
586.829	0.11
587.275	0.11
587.722	0.11
588.168	0.1
588.615	0.1
589.061	0.1
589.508	0.1
589.954	0.09
590.4	0.09
590.847	0.09
591.293	0.09
591.739	0.09
592.185	0.09
592.632	0.09
593.078	0.09
593.524	0.09
593.97	0.09
594.416	0.09
594.862	0.09
595.308	0.09
595.754	0.09
596.2	0.09
596.646	0.09
597.092	0.09
597.538	0.09
597.984	0.09
598.43	0.09
598.876	0.09
599.321	0.09
599.767	0.09
600.213	0.09
600.659	0.09
601.104	0.09
601.55	0.09
601.995	0.09
602.441	0.09
602.887	0.08
603.332	0.08
603.778	0.08
604.223	0.08
604.668	0.09
605.114	0.09
605.559	0.09
606.005	0.09
606.45	0.09
606.895	0.09
607.341	0.09
607.786	0.09
608.231	0.09
608.676	0.09
609.121	0.09
609.566	0.09
610.012	0.09
610.457	0.09
610.902	0.09
611.347	0.09
611.792	0.09
612.237	0.09
612.682	0.09
613.127	0.09
613.571	0.09
614.016	0.09
614.461	0.09
614.906	0.09
615.351	0.09
615.795	0.09
616.24	0.08
616.685	0.08
617.129	0.08
617.574	0.08
618.019	0.08
618.463	0.08
618.908	0.08
619.352	0.08
619.797	0.08
620.241	0.08
620.686	0.08
621.13	0.08
621.574	0.08
622.019	0.08
622.463	0.08
622.907	0.08
623.352	0.09
623.796	0.09
624.24	0.09
624.684	0.09
625.128	0.09
625.572	0.09
626.016	0.09
626.461	0.09
626.905	0.09
627.349	0.09
627.793	0.09
628.236	0.09
628.68	0.09
629.124	0.09
629.568	0.09
630.012	0.09
630.456	0.09
630.9	0.09
631.343	0.09
631.787	0.09
632.231	0.09
632.674	0.09
633.118	0.09
633.562	0.09
634.005	0.09
634.449	0.09
634.892	0.1
635.336	0.1
635.779	0.1
636.223	0.1
636.666	0.1
637.109	0.1
637.553	0.11
637.996	0.11
638.439	0.11
638.883	0.11
639.326	0.11
639.769	0.11
640.212	0.11
640.655	0.11
641.099	0.12
641.542	0.12
641.985	0.12
642.428	0.12
642.871	0.13
643.314	0.13
643.757	0.13
644.2	0.13
644.643	0.14
645.085	0.14
645.528	0.14
645.971	0.15
646.414	0.15
646.857	0.15
647.299	0.16
647.742	0.16
648.185	0.16
648.627	0.16
649.07	0.17
649.513	0.17
649.955	0.17
650.398	0.18
650.84	0.18
651.283	0.18
651.725	0.18
652.168	0.18
652.61	0.19
653.052	0.19
653.495	0.19
653.937	0.15
654.379	0.13
654.821	0.14
655.264	0.14
655.706	0.14
656.148	0.15
656.59	0.15
657.032	0.15
657.474	0.15
657.916	0.15
658.358	0.15
658.8	0.19
659.242	0.23
659.684	0.23
660.126	0.23
660.568	0.24
661.01	0.24
661.452	0.24
661.894	0.24
662.335	0.25
662.777	0.25
663.219	0.25
663.661	0.26
664.102	0.26
664.544	0.26
664.985	0.27
665.427	0.27
665.869	0.27
666.31	0.27
666.752	0.28
667.193	0.28
667.634	0.28
668.076	0.28
668.517	0.29
668.959	0.29
669.4	0.29
669.841	0.3
670.282	0.3
670.724	0.31
671.165	0.31
671.606	0.31
672.047	0.31
672.488	0.31
672.929	0.31
673.37	0.32
673.811	0.32
674.252	0.32
674.693	0.32
675.134	0.32
675.575	0.32
676.016	0.32
676.457	0.32
676.898	0.33
677.339	0.33
677.78	0.33
678.22	0.33
678.661	0.34
679.102	0.34
679.542	0.34
679.983	0.34
680.424	0.34
680.864	0.34
681.305	0.34
681.745	0.35
682.186	0.35
682.626	0.35
683.067	0.35
683.507	0.35
683.948	0.35
684.388	0.36
684.828	0.36
685.269	0.36
685.709	0.36
686.149	0.36
686.589	0.36
687.029	0.36
687.47	0.36
687.91	0.36
688.35	0.36
688.79	0.36
689.23	0.36
689.67	0.36
690.11	0.36
690.55	0.36
690.99	0.36
691.43	0.36
691.87	0.36
692.31	0.36
692.749	0.36
693.189	0.36
693.629	0.36
694.069	0.36
694.508	0.35
694.948	0.35
695.388	0.36
695.827	0.35
696.267	0.35
696.706	0.35
697.146	0.35
697.586	0.35
698.025	0.35
698.464	0.35
698.904	0.34
699.343	0.34
699.783	0.34
700.222	0.34
700.661	0.34
701.101	0.34
701.54	0.33
701.979	0.33
702.418	0.33
702.857	0.33
703.297	0.33
703.736	0.33
704.175	0.33
704.614	0.32
705.053	0.32
705.492	0.32
705.931	0.32
706.37	0.32
706.809	0.32
707.248	0.32
707.687	0.31
708.125	0.31
708.564	0.31
709.003	0.31
709.442	0.3
709.88	0.3
710.319	0.3
710.758	0.29
711.196	0.29
711.635	0.29
712.074	0.29
712.512	0.28
712.951	0.28
713.389	0.28
713.828	0.28
714.266	0.27
714.705	0.27
715.143	0.27
715.581	0.26
716.02	0.26
716.458	0.26
716.896	0.26
717.334	0.25
717.773	0.25
718.211	0.24
718.649	0.24
719.087	0.24
719.525	0.24
719.963	0.24
720.401	0.23
720.839	0.23
721.277	0.23
721.715	0.22
722.153	0.22
722.591	0.22
723.029	0.22
723.467	0.21
723.905	0.21
724.342	0.21
724.78	0.21
725.218	0.2
725.656	0.2
726.093	0.2
726.531	0.2
726.969	0.2
727.406	0.19
727.844	0.19
728.281	0.19
728.719	0.19
729.156	0.19
729.594	0.19
730.031	0.18
730.469	0.18
730.906	0.18
731.343	0.18
731.781	0.18
732.218	0.17
732.655	0.17
733.092	0.17
733.53	0.17
733.967	0.16
734.404	0.16
734.841	0.16
735.278	0.15
735.715	0.15
736.152	0.15
736.589	0.14
737.026	0.14
737.463	0.14
737.9	0.14
738.337	0.14
738.774	0.13
739.211	0.13
739.647	0.13
740.084	0.12
740.521	0.12
740.958	0.12
741.394	0.11
741.831	0.11
742.268	0.1
742.704	0.1
743.141	0.1
743.577	0.09
744.014	0.09
744.45	0.09
744.887	0.08
745.323	0.08
745.76	0.08
746.196	0.08
746.632	0.08
747.069	0.08
747.505	0.08
747.941	0.08
748.378	0.08
748.814	0.08
749.25	0.08
749.686	0.08
750.122	0.08
750.558	0.08
750.994	0.08
751.43	0.07
751.866	0.07
752.302	0.07
752.738	0.07
753.174	0.07
753.61	0.07
754.046	0.07
754.482	0.07
754.918	0.07
755.354	0.07
755.789	0.07
756.225	0.07
756.661	0.07
757.096	0.07
757.532	0.06
757.968	0.06
758.403	0.06
758.839	0.06
759.274	0.06
759.71	0.06
760.145	0.06
760.581	0.05
761.016	0.05
761.452	0.05
761.887	0.05
762.322	0.04
762.758	0.04
763.193	0.04
763.628	0.04
764.063	0.03
764.499	0.03
764.934	0.03
765.369	0.03
765.804	0.02
766.239	0.02
766.674	0.02
767.109	0.02
767.544	0.02
767.979	0.01
768.414	0.01
768.849	0.01
769.284	0.01
769.719	0.01
770.154	0.01
770.588	0
771.023	-0
771.458	-0
771.893	-0.01
772.327	-0.01
772.762	-0.01
773.197	-0.02
773.631	-0.02
774.066	-0.02
774.5	-0.03
774.935	-0.03
775.369	-0.03
775.804	-0.04
776.238	-0.04
776.673	-0.05
777.107	-0.05
777.541	-0.06
777.976	-0.06
778.41	-0.07
778.844	-0.07
779.279	-0.07
779.713	-0.07
780.147	-0.07
780.581	-0.07
781.015	-0.07
781.449	-0.07
781.883	-0.07
782.317	-0.07
782.751	-0.07
783.185	-0.06
783.619	-0.07
784.053	-0.07
784.487	-0.07
784.921	-0.07
785.355	-0.07
785.789	-0.07
786.223	-0.07
786.656	-0.07
787.09	-0.06
787.524	-0.06
787.957	-0.06
788.391	-0.06
788.825	-0.07
789.258	-0.06
789.692	-0.06
790.125	-0.06
790.559	-0.06
790.992	-0.06
791.426	-0.07
791.859	-0.06
792.293	-0.05
792.726	-0.05
793.159	-0.04
793.593	-0.04
794.026	-0.04
794.459	-0.05
794.892	-0.05
795.326	-0.05
795.759	-0.05
796.192	-0.05
796.625	-0.06
797.058	-0.07
797.491	-0.08
797.924	-0.08
798.357	-0.08
798.79	-0.08
799.223	-0.08
799.656	-0.08
800.089	-0.08
800.522	-0.08
800.955	-0.08
801.387	-0.08
801.82	-0.08
802.253	-0.09
802.686	-0.09
803.118	-0.09
803.551	-0.09
803.984	-0.08
804.416	-0.08
804.849	-0.07
805.281	-0.07
805.714	-0.07
806.146	-0.07
806.579	-0.07
807.011	-0.07
807.444	-0.07
807.876	-0.07
808.308	-0.07
808.741	-0.08
809.173	-0.08
809.605	-0.08
810.037	-0.09
810.47	-0.09
810.902	-0.09
811.334	-0.09
811.766	-0.09
812.198	-0.08
812.63	-0.08
813.062	-0.08
813.494	-0.08
813.926	-0.08
814.358	-0.08
814.79	-0.08
815.222	-0.08
815.654	-0.07
816.086	-0.07
816.518	-0.08
816.949	-0.08
817.381	-0.08
817.813	-0.08
818.245	-0.08
818.676	-0.07
819.108	-0.07
819.54	-0.07
819.971	-0.07
820.403	-0.08
820.834	-0.08
821.266	-0.08
821.697	-0.08
822.129	-0.08
822.56	-0.08
822.991	-0.08
823.423	-0.08
823.854	-0.08
824.286	-0.08
824.717	-0.08
825.148	-0.07
825.579	-0.06
826.01	-0.06
826.442	-0.05
826.873	-0.05
827.304	-0.04
827.735	-0.03
828.166	-0.03
828.597	-0.02
829.028	-0.02
829.459	-0.02
829.89	-0.01
830.321	-0.01
830.752	-0.01
831.183	-0.01
831.613	-0
832.044	-0
832.475	0
832.906	0
833.336	0
833.767	0.01
834.198	0.01
834.628	0.01
835.059	0.01
835.49	0.01
835.92	0.01
836.351	0.01
836.781	0.01
837.212	0.02
837.642	0.02
838.072	0.02
838.503	0.02
838.933	0.02
839.364	0.02
839.794	0.02
840.224	0.02
840.654	0.02
841.085	0.02
841.515	0.02
841.945	0.02
842.375	0.02
842.805	0.02
843.235	0.02
843.665	0.03
844.095	0.03
844.525	0.03
844.955	0.03
845.385	0.03
845.815	0.03
846.245	0.03
846.675	0.03
847.105	0.03
847.534	0.03
847.964	0.03
848.394	0.03
848.824	0.03
849.253	0.03
849.683	0.03
850.112	0.04
850.542	0.04
850.972	0.04
851.401	0.04
851.831	0.04
852.26	0.04
852.69	0.04
853.119	0.04
853.548	0.04
853.978	0.04
854.407	0.04
854.836	0.04
855.266	0.04
855.695	0.04
856.124	0.04
856.553	0.04
856.983	0.04
857.412	0.04
857.841	0.04
858.27	0.04
858.699	0.04
859.128	0.04
859.557	0.05
859.986	0.05
860.415	0.05
860.844	0.05
861.273	0.05
861.702	0.05
862.13	0.05
862.559	0.05
862.988	0.05
863.417	0.05
863.845	0.05
864.274	0.05
864.703	0.05
865.131	0.05
865.56	0.05
865.989	0.05
866.417	0.05
866.846	0.05
867.274	0.05
867.703	0.05
868.131	0.05
868.559	0.05
868.988	0.06
869.416	0.06
869.844	0.06
870.273	0.06
870.701	0.06
871.129	0.06
871.557	0.06
871.986	0.06
872.414	0.06
872.842	0.06
873.27	0.06
873.698	0.06
874.126	0.06
874.554	0.06
874.982	0.06
875.41	0.06
875.838	0.06
876.266	0.06
876.694	0.06
877.122	0.06
877.549	0.06
877.977	0.06
878.405	0.06
878.833	0.06
879.26	0.06
879.688	0.06
880.116	0.06
880.543	0.06
880.971	0.06
881.399	0.06
881.826	0.06
882.254	0.06
882.681	0.06
883.109	0.06
883.536	0.06
883.963	0.06
884.391	0.06
884.818	0.06
885.245	0.06
885.673	0.06
886.1	0.06
886.527	0.06
886.954	0.06
887.381	0.06
887.809	0.06
888.236	0.06
888.663	0.06
889.09	0.06
889.517	0.06
889.944	0.06
890.371	0.06
890.798	0.06
891.225	0.06
891.652	0.06
892.078	0.06
892.505	0.06
892.932	0.06
893.359	0.06
893.786	0.06
894.212	0.06
894.639	0.06
895.066	0.06
895.492	0.06
895.919	0.06
896.346	0.06
896.772	0.06
897.199	0.06
897.625	0.06
898.052	0.06
898.478	0.06
898.904	0.06
899.331	0.06
899.757	0.06
900.183	0.06
900.61	0.06
901.036	0.06
901.462	0.06
901.888	0.06
902.315	0.06
902.741	0.06
903.167	0.06
903.593	0.06
904.019	0.06
904.445	0.06
904.871	0.06
905.297	0.06
905.723	0.06
906.149	0.06
906.575	0.06
907.001	0.06
907.427	0.06
907.852	0.06
908.278	0.06
908.704	0.06
909.13	0.06
909.555	0.06
909.981	0.06
910.407	0.06
910.832	0.06
911.258	0.06
911.684	0.06
912.109	0.06
912.535	0.06
912.96	0.06
913.386	0.06
913.811	0.06
914.236	0.06
914.662	0.06
915.087	0.06
915.512	0.06
915.938	0.06
916.363	0.06
916.788	0.06
917.213	0.06
917.639	0.06
918.064	0.06
918.489	0.06
918.914	0.06
919.339	0.06
919.764	0.06
920.189	0.07
920.614	0.07
921.039	0.07
921.464	0.07
921.889	0.07
922.314	0.07
922.738	0.07
923.163	0.07
923.588	0.07
924.013	0.06
924.437	0.06
924.862	0.06
925.287	0.06
925.711	0.06
926.136	0.06
926.561	0.07
926.985	0.07
927.41	0.07
927.834	0.07
928.259	0.07
928.683	0.07
929.108	0.07
929.532	0.07
929.956	0.07
930.381	0.07
930.805	0.07
931.229	0.07
931.653	0.07
932.078	0.07
932.502	0.07
932.926	0.07
933.35	0.07
933.774	0.07
934.198	0.07
934.622	0.07
935.046	0.07
935.47	0.07
935.894	0.07
936.318	0.07
936.742	0.07
937.166	0.07
937.59	0.07
938.014	0.07
938.437	0.07
938.861	0.07
939.285	0.07
939.709	0.07
940.132	0.08
940.556	0.08
940.98	0.08
941.403	0.08
941.827	0.08
942.25	0.08
942.674	0.08
943.097	0.08
943.521	0.08
943.944	0.08
944.368	0.08
944.791	0.08
945.214	0.08
945.638	0.08
946.061	0.08
946.484	0.08
946.907	0.08
947.331	0.08
947.754	0.08
948.177	0.08
948.6	0.08
949.023	0.08
949.446	0.08
949.869	0.08
950.292	0.08
950.715	0.08
951.138	0.08
951.561	0.08
951.984	0.08
952.407	0.08
952.83	0.08
953.252	0.07
953.675	0.07
954.098	0.07
954.521	0.07
954.943	0.07
955.366	0.07
955.789	0.07
956.211	0.07
956.634	0.08
957.056	0.08
957.479	0.08
957.902	0.08
958.324	0.08
958.746	0.08
959.169	0.08
959.591	0.08
960.014	0.08
960.436	0.08
960.858	0.08
961.281	0.08
961.703	0.08
962.125	0.08
962.547	0.08
962.969	0.08
963.391	0.08
963.814	0.08
964.236	0.08
964.658	0.07
965.08	0.07
965.502	0.07
965.924	0.07
966.346	0.07
966.768	0.07
967.189	0.07
967.611	0.07
968.033	0.08
968.455	0.08
968.877	0.08
969.298	0.08
969.72	0.08
970.142	0.08
970.563	0.08
970.985	0.08
971.407	0.08
971.828	0.08
972.25	0.08
972.671	0.08
973.093	0.08
973.514	0.08
973.936	0.08
974.357	0.08
974.778	0.08
975.2	0.08
975.621	0.08
976.042	0.08
976.464	0.08
976.885	0.08
977.306	0.08
977.727	0.08
978.148	0.08
978.57	0.08
978.991	0.08
979.412	0.08
979.833	0.08
980.254	0.08
980.675	0.08
981.096	0.08
981.517	0.08
981.937	0.08
982.358	0.08
982.779	0.08
983.2	0.08
983.621	0.08
984.042	0.08
984.462	0.08
984.883	0.08
985.304	0.08
985.724	0.08
986.145	0.08
986.565	0.08
986.986	0.08
987.407	0.08
987.827	0.08
988.248	0.08
988.668	0.08
989.088	0.08
989.509	0.08
989.929	0.08
990.35	0.08
990.77	0.08
991.19	0.08
991.61	0.08
992.031	0.08
992.451	0.08
992.871	0.08
993.291	0.08
993.711	0.08
994.131	0.08
994.551	0.08
994.971	0.08
995.391	0.08
995.811	0.08
996.231	0.08
996.651	0.08
997.071	0.08
997.491	0.08
997.911	0.08
998.331	0.08
998.75	0.08
999.17	0.08
999.59	0.08
1000.009	0.08
1000.429	0.08
1000.849	0.08
1001.268	0.08
1001.688	0.08
1002.107	0.08
1002.527	0.08
1002.946	0.08
1003.366	0.08
1003.785	0.08
1004.205	0.08
1004.624	0.08
1005.044	0.08
1005.463	0.08
1005.882	0.08
1006.301	0.08
1006.721	0.08
1007.14	0.08
1007.559	0.08
1007.978	0.08
1008.397	0.08
1008.816	0.08
1009.235	0.08
1009.655	0.08
1010.074	0.08
1010.492	0.08
1010.911	0.08
1011.33	0.08
1011.749	0.08
1012.168	0.08
1012.587	0.08
1013.006	0.08
1013.425	0.08
1013.843	0.08
1014.262	0.08
1014.681	0.08
1015.099	0.08
1015.518	0.08
1015.937	0.08
1016.355	0.08
1016.774	0.08
1017.192	0.08
1017.611	0.08
1018.029	0.08
1018.448	0.08
1018.866	0.08
1019.285	0.08
1019.703	0.08
1020.121	0.08
1020.54	0.08
1020.958	0.08
1021.376	0.08
1021.794	0.08
1022.213	0.08
1022.631	0.08
1023.049	0.08
1023.467	0.08
1023.885	0.08
1024.303	0.08
1024.721	0.08
1025.139	0.08
1025.557	0.08
1025.975	0.09
1026.393	0.09
1026.811	0.09
1027.229	0.09
1027.647	0.09
1028.065	0.09
1028.482	0.09
1028.9	0.09
1029.318	0.09
1029.735	0.09
1030.153	0.09
1030.571	0.09
1030.988	0.09
1031.406	0.09
1031.823	0.09
1032.241	0.09
1032.659	0.09
1033.076	0.09
1033.493	0.09
1033.911	0.09
1034.328	0.09
1034.746	0.09
1035.163	0.09
1035.58	0.1
1035.997	0.1
1036.415	0.1
1036.832	0.1
1037.249	0.1
1037.666	0.1
1038.083	0.1
1038.501	0.1
1038.918	0.1
1039.335	0.1
1039.752	0.1
1040.169	0.1
1040.586	0.1
1041.003	0.11
1041.419	0.11
1041.836	0.11
1042.253	0.11
1042.67	0.11
1043.087	0.11
1043.504	0.11
1043.92	0.11
1044.337	0.11
1044.754	0.11
1045.17	0.11
1045.587	0.11
1046.004	0.11
1046.42	0.11
1046.837	0.12
1047.253	0.12
1047.67	0.12
1048.086	0.12
1048.503	0.12
1048.919	0.12
1049.335	0.12
1049.752	0.12
1050.168	0.12
1050.584	0.12
1051.001	0.12
1051.417	0.12
1051.833	0.12
1052.249	0.12
1052.665	0.12
1053.081	0.12
1053.497	0.12
1053.914	0.13
1054.33	0.13
1054.746	0.13
1055.162	0.13
1055.578	0.13
1055.993	0.13
1056.409	0.13
1056.825	0.13
1057.241	0.13
1057.657	0.13
1058.073	0.14
1058.488	0.14
1058.904	0.14
1059.32	0.14
1059.736	0.14
1060.151	0.15
1060.567	0.15
1060.982	0.15
1061.398	0.15
1061.813	0.15
1062.229	0.15
1062.644	0.15
1063.06	0.15
1063.475	0.16
1063.891	0.16
1064.306	0.16
1064.721	0.16
1065.137	0.16
1065.552	0.16
1065.967	0.17
1066.382	0.17
1066.798	0.17
1067.213	0.17
1067.628	0.17
1068.043	0.18
1068.458	0.18
1068.873	0.18
1069.288	0.18
1069.703	0.18
1070.118	0.18
1070.533	0.19
1070.948	0.19
1071.363	0.19
1071.778	0.19
1072.193	0.2
1072.607	0.2
1073.022	0.2
1073.437	0.21
1073.852	0.21
1074.266	0.21
1074.681	0.22
1075.096	0.22
1075.51	0.22
1075.925	0.23
1076.339	0.23
1076.754	0.23
1077.168	0.24
1077.583	0.24
1077.997	0.25
1078.412	0.25
1078.826	0.26
1079.24	0.26
1079.655	0.26
1080.069	0.27
1080.483	0.27
1080.897	0.27
1081.312	0.28
1081.726	0.28
1082.14	0.29
1082.554	0.29
1082.968	0.3
1083.382	0.3
1083.796	0.31
1084.21	0.32
1084.624	0.32
1085.038	0.33
1085.452	0.34
1085.866	0.35
1086.28	0.35
1086.694	0.36
1087.108	0.37
1087.521	0.38
1087.935	0.39
1088.349	0.41
1088.763	0.42
1089.176	0.43
1089.59	0.45
1090.004	0.47
1090.417	0.49
1090.831	0.52
1091.244	0.54
1091.658	0.57
1092.071	0.6
1092.485	0.64
1092.898	0.67
1093.312	0.72
1093.725	0.76
1094.138	0.82
1094.552	0.89
1094.965	0.99
1095.378	1.12
1095.791	1.32
1096.205	1.74
1096.618	-0
1097.031	-0
1097.444	-0
1097.857	-0
1098.27	-0
1098.683	-0
1099.096	-0
1099.509	-0
1099.922	-0
1100.335	-0
1100.748	-0
1101.161	-0
1101.574	-0
1101.986	-0
1102.399	-0
1102.812	-0
1103.225	-0
1103.637	-0
1104.05	-0
1104.463	-0
1104.875	-0
1105.288	-0
1105.7	-0
1106.113	-0
1106.525	-0
1106.938	-0
1107.35	-0
1107.763	-0
1108.175	-0
1108.588	-0
1109	-0
1109.412	-0
1109.824	-0
1110.237	-0
1110.649	-0
1111.061	-0
