Data from redip-kinet-2-5a_Absorbance__170__00170.txt Node

Date: Fri Apr 12 13:51:09 CEST 2024
User: Laser008
Spectrometer: MAYP115816
Trigger mode: 0
Integration Time (sec): 2.000000E-1
Scans to average: 10
Electric dark correction enabled: true
Nonlinearity correction enabled: true
Boxcar width: 5
XAxis mode: Wavelengths
Number of Pixels in Spectrum: 2068
>>>>>Begin Spectral Data<<<<<
198.914	-2.09
199.384	-1.93
199.855	-1.79
200.325	-1.68
200.796	-1.61
201.266	-1.55
201.737	-1.48
202.207	-1.41
202.677	-1.36
203.147	-1.31
203.618	-1.29
204.088	-1.26
204.558	-1.24
205.028	-1.23
205.498	-1.22
205.968	-1.22
206.439	-1.22
206.909	-1.21
207.379	-1.21
207.849	-1.21
208.319	-1.2
208.789	-1.2
209.258	-1.2
209.728	-1.2
210.198	-1.19
210.668	-1.19
211.138	-1.19
211.608	-1.19
212.077	-1.19
212.547	-1.19
213.017	-1.19
213.486	-1.19
213.956	-1.19
214.426	-1.18
214.895	-1.18
215.365	-1.18
215.834	-1.18
216.304	-1.18
216.773	-1.18
217.243	-1.17
217.712	-1.17
218.181	-1.17
218.651	-1.17
219.12	-1.16
219.589	-1.16
220.058	-1.16
220.528	-1.15
220.997	-1.15
221.466	-1.15
221.935	-1.14
222.404	-1.14
222.873	-1.13
223.342	-1.13
223.812	-1.12
224.281	-1.11
224.749	-1.1
225.218	-1.1
225.687	-1.08
226.156	-1.07
226.625	-1.06
227.094	-1.04
227.563	-1.03
228.031	-1.01
228.5	-0.99
228.969	-0.96
229.438	-0.93
229.906	-0.9
230.375	-0.87
230.844	-0.83
231.312	-0.79
231.781	-0.75
232.249	-0.7
232.718	-0.65
233.186	-0.6
233.655	-0.55
234.123	-0.5
234.591	-0.45
235.06	-0.4
235.528	-0.35
235.996	-0.3
236.465	-0.26
236.933	-0.21
237.401	-0.17
237.869	-0.12
238.337	-0.08
238.805	-0.04
239.274	-0.01
239.742	0.03
240.21	0.06
240.678	0.09
241.146	0.12
241.614	0.15
242.081	0.17
242.549	0.2
243.017	0.22
243.485	0.24
243.953	0.26
244.421	0.28
244.888	0.29
245.356	0.31
245.824	0.33
246.291	0.34
246.759	0.35
247.227	0.37
247.694	0.38
248.162	0.39
248.629	0.4
249.097	0.41
249.564	0.42
250.032	0.43
250.499	0.43
250.967	0.44
251.434	0.45
251.901	0.46
252.369	0.46
252.836	0.47
253.303	0.48
253.77	0.48
254.237	0.49
254.705	0.49
255.172	0.5
255.639	0.5
256.106	0.51
256.573	0.51
257.04	0.51
257.507	0.52
257.974	0.52
258.441	0.52
258.908	0.52
259.375	0.53
259.841	0.53
260.308	0.53
260.775	0.53
261.242	0.53
261.709	0.53
262.175	0.53
262.642	0.53
263.109	0.54
263.575	0.54
264.042	0.54
264.508	0.54
264.975	0.54
265.441	0.54
265.908	0.54
266.374	0.54
266.841	0.54
267.307	0.54
267.773	0.54
268.24	0.54
268.706	0.53
269.172	0.53
269.639	0.53
270.105	0.53
270.571	0.53
271.037	0.53
271.503	0.53
271.969	0.52
272.435	0.52
272.902	0.52
273.368	0.52
273.834	0.52
274.3	0.52
274.765	0.51
275.231	0.51
275.697	0.51
276.163	0.51
276.629	0.5
277.095	0.5
277.56	0.5
278.026	0.49
278.492	0.49
278.958	0.49
279.423	0.49
279.889	0.48
280.354	0.48
280.82	0.48
281.286	0.48
281.751	0.48
282.217	0.48
282.682	0.47
283.147	0.47
283.613	0.47
284.078	0.47
284.544	0.47
285.009	0.47
285.474	0.46
285.939	0.46
286.405	0.46
286.87	0.46
287.335	0.45
287.8	0.45
288.265	0.45
288.73	0.45
289.195	0.45
289.66	0.45
290.125	0.44
290.59	0.44
291.055	0.44
291.52	0.44
291.985	0.44
292.45	0.43
292.915	0.43
293.38	0.43
293.844	0.43
294.309	0.43
294.774	0.43
295.239	0.42
295.703	0.42
296.168	0.42
296.632	0.42
297.097	0.42
297.562	0.42
298.026	0.42
298.491	0.41
298.955	0.41
299.419	0.41
299.884	0.41
300.348	0.41
300.813	0.41
301.277	0.41
301.741	0.41
302.205	0.41
302.67	0.4
303.134	0.4
303.598	0.4
304.062	0.4
304.526	0.4
304.99	0.4
305.454	0.4
305.919	0.4
306.383	0.4
306.847	0.39
307.31	0.39
307.774	0.39
308.238	0.39
308.702	0.39
309.166	0.39
309.63	0.39
310.094	0.39
310.557	0.39
311.021	0.38
311.485	0.38
311.948	0.38
312.412	0.38
312.876	0.38
313.339	0.38
313.803	0.38
314.266	0.38
314.73	0.38
315.193	0.37
315.657	0.37
316.12	0.37
316.584	0.37
317.047	0.37
317.51	0.37
317.973	0.37
318.437	0.37
318.9	0.37
319.363	0.37
319.826	0.36
320.29	0.36
320.753	0.36
321.216	0.36
321.679	0.36
322.142	0.36
322.605	0.36
323.068	0.36
323.531	0.36
323.994	0.35
324.457	0.35
324.92	0.35
325.382	0.35
325.845	0.35
326.308	0.35
326.771	0.35
327.233	0.35
327.696	0.35
328.159	0.35
328.622	0.34
329.084	0.34
329.547	0.34
330.009	0.34
330.472	0.34
330.934	0.34
331.397	0.34
331.859	0.34
332.322	0.34
332.784	0.34
333.246	0.33
333.709	0.33
334.171	0.33
334.633	0.33
335.096	0.33
335.558	0.33
336.02	0.33
336.482	0.33
336.944	0.33
337.406	0.33
337.868	0.33
338.331	0.32
338.793	0.32
339.255	0.32
339.717	0.32
340.178	0.32
340.64	0.32
341.102	0.32
341.564	0.32
342.026	0.32
342.488	0.32
342.949	0.32
343.411	0.32
343.873	0.32
344.335	0.32
344.796	0.31
345.258	0.31
345.719	0.31
346.181	0.31
346.643	0.31
347.104	0.31
347.566	0.31
348.027	0.31
348.488	0.31
348.95	0.31
349.411	0.31
349.873	0.31
350.334	0.3
350.795	0.3
351.256	0.3
351.718	0.3
352.179	0.3
352.64	0.3
353.101	0.3
353.562	0.3
354.023	0.3
354.484	0.3
354.945	0.29
355.406	0.29
355.867	0.29
356.328	0.29
356.789	0.29
357.25	0.29
357.711	0.29
358.172	0.29
358.633	0.29
359.093	0.29
359.554	0.29
360.015	0.29
360.476	0.3
360.936	0.3
361.397	0.3
361.858	0.3
362.318	0.3
362.779	0.3
363.239	0.3
363.7	0.29
364.16	0.29
364.621	0.29
365.081	0.29
365.541	0.29
366.002	0.29
366.462	0.29
366.922	0.29
367.383	0.29
367.843	0.29
368.303	0.29
368.763	0.29
369.223	0.29
369.684	0.29
370.144	0.29
370.604	0.29
371.064	0.29
371.524	0.29
371.984	0.29
372.444	0.29
372.904	0.29
373.363	0.28
373.823	0.28
374.283	0.28
374.743	0.28
375.203	0.28
375.663	0.28
376.122	0.28
376.582	0.28
377.042	0.28
377.501	0.28
377.961	0.28
378.42	0.28
378.88	0.28
379.34	0.28
379.799	0.28
380.259	0.28
380.718	0.28
381.177	0.28
381.637	0.28
382.096	0.28
382.555	0.28
383.015	0.28
383.474	0.28
383.933	0.28
384.393	0.28
384.852	0.28
385.311	0.28
385.77	0.28
386.229	0.28
386.688	0.28
387.147	0.28
387.606	0.28
388.065	0.28
388.524	0.28
388.983	0.28
389.442	0.28
389.901	0.28
390.36	0.28
390.819	0.28
391.277	0.28
391.736	0.28
392.195	0.28
392.654	0.28
393.112	0.28
393.571	0.28
394.03	0.28
394.488	0.28
394.947	0.28
395.405	0.28
395.864	0.28
396.322	0.28
396.781	0.28
397.239	0.28
397.698	0.28
398.156	0.28
398.614	0.27
399.073	0.27
399.531	0.27
399.989	0.27
400.447	0.27
400.905	0.27
401.364	0.27
401.822	0.27
402.28	0.27
402.738	0.27
403.196	0.27
403.654	0.27
404.112	0.27
404.57	0.27
405.028	0.27
405.486	0.27
405.944	0.27
406.402	0.27
406.859	0.27
407.317	0.27
407.775	0.26
408.233	0.26
408.691	0.26
409.148	0.26
409.606	0.26
410.064	0.26
410.521	0.26
410.979	0.26
411.436	0.26
411.894	0.26
412.351	0.26
412.809	0.26
413.266	0.26
413.724	0.26
414.181	0.26
414.638	0.26
415.096	0.26
415.553	0.26
416.01	0.26
416.467	0.26
416.925	0.26
417.382	0.26
417.839	0.26
418.296	0.26
418.753	0.26
419.21	0.26
419.667	0.26
420.124	0.26
420.581	0.26
421.038	0.26
421.495	0.26
421.952	0.26
422.409	0.26
422.866	0.26
423.322	0.26
423.779	0.26
424.236	0.26
424.693	0.26
425.149	0.26
425.606	0.26
426.063	0.26
426.519	0.26
426.976	0.26
427.433	0.26
427.889	0.26
428.346	0.26
428.802	0.26
429.258	0.26
429.715	0.26
430.171	0.26
430.628	0.26
431.084	0.26
431.54	0.26
431.997	0.26
432.453	0.26
432.909	0.25
433.365	0.25
433.821	0.25
434.277	0.25
434.734	0.25
435.19	0.25
435.646	0.25
436.102	0.25
436.558	0.25
437.014	0.25
437.47	0.25
437.925	0.25
438.381	0.25
438.837	0.25
439.293	0.25
439.749	0.25
440.205	0.25
440.66	0.25
441.116	0.25
441.572	0.25
442.027	0.25
442.483	0.25
442.939	0.25
443.394	0.25
443.85	0.25
444.305	0.25
444.761	0.25
445.216	0.25
445.672	0.25
446.127	0.25
446.582	0.25
447.038	0.25
447.493	0.25
447.948	0.25
448.403	0.25
448.859	0.25
449.314	0.25
449.769	0.25
450.224	0.25
450.679	0.25
451.134	0.25
451.589	0.25
452.044	0.25
452.499	0.25
452.954	0.25
453.409	0.25
453.864	0.25
454.319	0.25
454.774	0.24
455.229	0.24
455.684	0.24
456.138	0.24
456.593	0.24
457.048	0.24
457.503	0.24
457.957	0.24
458.412	0.24
458.866	0.24
459.321	0.24
459.776	0.24
460.23	0.24
460.685	0.24
461.139	0.24
461.593	0.24
462.048	0.24
462.502	0.24
462.957	0.24
463.411	0.24
463.865	0.24
464.319	0.24
464.774	0.24
465.228	0.24
465.682	0.24
466.136	0.25
466.59	0.25
467.044	0.25
467.499	0.24
467.953	0.24
468.407	0.24
468.861	0.24
469.315	0.24
469.768	0.24
470.222	0.24
470.676	0.24
471.13	0.24
471.584	0.24
472.038	0.24
472.491	0.24
472.945	0.24
473.399	0.24
473.852	0.24
474.306	0.24
474.76	0.25
475.213	0.25
475.667	0.25
476.12	0.25
476.574	0.25
477.027	0.25
477.481	0.25
477.934	0.25
478.388	0.25
478.841	0.25
479.294	0.25
479.748	0.25
480.201	0.25
480.654	0.25
481.107	0.26
481.561	0.26
482.014	0.26
482.467	0.26
482.92	0.26
483.373	0.27
483.826	0.27
484.279	0.27
484.732	0.28
485.185	0.28
485.638	0.28
486.091	0.28
486.544	0.28
486.997	0.28
487.449	0.28
487.902	0.28
488.355	0.28
488.808	0.28
489.26	0.28
489.713	0.28
490.166	0.28
490.618	0.27
491.071	0.28
491.523	0.28
491.976	0.28
492.429	0.28
492.881	0.28
493.333	0.28
493.786	0.28
494.238	0.28
494.691	0.29
495.143	0.29
495.595	0.29
496.048	0.29
496.5	0.29
496.952	0.29
497.404	0.3
497.856	0.3
498.309	0.3
498.761	0.3
499.213	0.3
499.665	0.3
500.117	0.3
500.569	0.3
501.021	0.31
501.473	0.31
501.925	0.31
502.377	0.31
502.828	0.31
503.28	0.32
503.732	0.32
504.184	0.32
504.636	0.32
505.087	0.32
505.539	0.32
505.991	0.32
506.442	0.32
506.894	0.32
507.345	0.32
507.797	0.32
508.249	0.32
508.7	0.32
509.151	0.33
509.603	0.33
510.054	0.33
510.506	0.33
510.957	0.33
511.408	0.33
511.86	0.33
512.311	0.33
512.762	0.33
513.213	0.33
513.665	0.33
514.116	0.33
514.567	0.33
515.018	0.33
515.469	0.32
515.92	0.32
516.371	0.32
516.822	0.32
517.273	0.32
517.724	0.33
518.175	0.33
518.626	0.33
519.076	0.32
519.527	0.32
519.978	0.32
520.429	0.32
520.88	0.32
521.33	0.31
521.781	0.31
522.232	0.31
522.682	0.3
523.133	0.3
523.583	0.3
524.034	0.3
524.484	0.3
524.935	0.3
525.385	0.31
525.836	0.31
526.286	0.31
526.736	0.32
527.187	0.32
527.637	0.32
528.087	0.32
528.538	0.33
528.988	0.33
529.438	0.33
529.888	0.33
530.338	0.33
530.788	0.33
531.238	0.33
531.688	0.33
532.139	0.33
532.589	0.33
533.038	0.33
533.488	0.33
533.938	0.33
534.388	0.33
534.838	0.33
535.288	0.33
535.738	0.33
536.187	0.33
536.637	0.33
537.087	0.33
537.537	0.33
537.986	0.33
538.436	0.33
538.885	0.32
539.335	0.32
539.785	0.32
540.234	0.32
540.684	0.32
541.133	0.32
541.582	0.32
542.032	0.32
542.481	0.31
542.931	0.31
543.38	0.31
543.829	0.31
544.278	0.31
544.728	0.31
545.177	0.3
545.626	0.3
546.075	0.3
546.524	0.3
546.973	0.3
547.422	0.29
547.871	0.29
548.32	0.29
548.769	0.28
549.218	0.28
549.667	0.28
550.116	0.27
550.565	0.27
551.014	0.27
551.463	0.26
551.911	0.26
552.36	0.26
552.809	0.26
553.258	0.25
553.706	0.25
554.155	0.25
554.603	0.25
555.052	0.24
555.501	0.24
555.949	0.24
556.398	0.23
556.846	0.23
557.294	0.23
557.743	0.22
558.191	0.22
558.64	0.22
559.088	0.22
559.536	0.21
559.985	0.21
560.433	0.21
560.881	0.21
561.329	0.21
561.777	0.21
562.225	0.21
562.674	0.21
563.122	0.2
563.57	0.2
564.018	0.2
564.466	0.19
564.914	0.19
565.362	0.19
565.809	0.19
566.257	0.19
566.705	0.18
567.153	0.18
567.601	0.18
568.048	0.18
568.496	0.18
568.944	0.19
569.392	0.19
569.839	0.19
570.287	0.19
570.734	0.19
571.182	0.19
571.63	0.19
572.077	0.19
572.525	0.19
572.972	0.19
573.419	0.19
573.867	0.19
574.314	0.19
574.761	0.18
575.209	0.18
575.656	0.18
576.103	0.18
576.551	0.18
576.998	0.18
577.445	0.18
577.892	0.18
578.339	0.18
578.786	0.18
579.233	0.18
579.68	0.17
580.127	0.17
580.574	0.17
581.021	0.17
581.468	0.17
581.915	0.17
582.362	0.16
582.809	0.16
583.255	0.16
583.702	0.16
584.149	0.16
584.596	0.16
585.042	0.15
585.489	0.15
585.936	0.15
586.382	0.15
586.829	0.15
587.275	0.15
587.722	0.15
588.168	0.14
588.615	0.14
589.061	0.14
589.508	0.14
589.954	0.14
590.4	0.14
590.847	0.14
591.293	0.14
591.739	0.14
592.185	0.14
592.632	0.14
593.078	0.13
593.524	0.13
593.97	0.13
594.416	0.13
594.862	0.13
595.308	0.13
595.754	0.13
596.2	0.13
596.646	0.13
597.092	0.13
597.538	0.13
597.984	0.13
598.43	0.13
598.876	0.13
599.321	0.13
599.767	0.13
600.213	0.13
600.659	0.13
601.104	0.13
601.55	0.13
601.995	0.13
602.441	0.12
602.887	0.12
603.332	0.12
603.778	0.12
604.223	0.12
604.668	0.13
605.114	0.13
605.559	0.13
606.005	0.13
606.45	0.13
606.895	0.13
607.341	0.13
607.786	0.13
608.231	0.13
608.676	0.13
609.121	0.13
609.566	0.13
610.012	0.13
610.457	0.13
610.902	0.13
611.347	0.13
611.792	0.13
612.237	0.13
612.682	0.13
613.127	0.13
613.571	0.13
614.016	0.13
614.461	0.13
614.906	0.13
615.351	0.13
615.795	0.13
616.24	0.13
616.685	0.13
617.129	0.13
617.574	0.12
618.019	0.12
618.463	0.12
618.908	0.12
619.352	0.12
619.797	0.12
620.241	0.13
620.686	0.13
621.13	0.13
621.574	0.13
622.019	0.13
622.463	0.13
622.907	0.13
623.352	0.13
623.796	0.13
624.24	0.14
624.684	0.14
625.128	0.14
625.572	0.14
626.016	0.14
626.461	0.14
626.905	0.14
627.349	0.14
627.793	0.14
628.236	0.14
628.68	0.14
629.124	0.14
629.568	0.14
630.012	0.14
630.456	0.14
630.9	0.14
631.343	0.14
631.787	0.14
632.231	0.14
632.674	0.14
633.118	0.15
633.562	0.15
634.005	0.15
634.449	0.15
634.892	0.15
635.336	0.15
635.779	0.16
636.223	0.16
636.666	0.16
637.109	0.16
637.553	0.16
637.996	0.17
638.439	0.17
638.883	0.17
639.326	0.17
639.769	0.17
640.212	0.18
640.655	0.18
641.099	0.18
641.542	0.18
641.985	0.19
642.428	0.19
642.871	0.19
643.314	0.2
643.757	0.2
644.2	0.2
644.643	0.2
645.085	0.21
645.528	0.21
645.971	0.21
646.414	0.22
646.857	0.22
647.299	0.23
647.742	0.23
648.185	0.23
648.627	0.24
649.07	0.24
649.513	0.24
649.955	0.25
650.398	0.25
650.84	0.25
651.283	0.25
651.725	0.26
652.168	0.26
652.61	0.26
653.052	0.27
653.495	0.27
653.937	0.21
654.379	0.18
654.821	0.19
655.264	0.19
655.706	0.2
656.148	0.2
656.59	0.2
657.032	0.2
657.474	0.21
657.916	0.2
658.358	0.21
658.8	0.26
659.242	0.32
659.684	0.32
660.126	0.32
660.568	0.32
661.01	0.33
661.452	0.33
661.894	0.33
662.335	0.34
662.777	0.34
663.219	0.35
663.661	0.35
664.102	0.35
664.544	0.36
664.985	0.36
665.427	0.36
665.869	0.37
666.31	0.37
666.752	0.37
667.193	0.38
667.634	0.38
668.076	0.38
668.517	0.38
668.959	0.39
669.4	0.39
669.841	0.4
670.282	0.4
670.724	0.4
671.165	0.41
671.606	0.41
672.047	0.41
672.488	0.41
672.929	0.41
673.37	0.41
673.811	0.42
674.252	0.42
674.693	0.42
675.134	0.42
675.575	0.42
676.016	0.42
676.457	0.42
676.898	0.43
677.339	0.43
677.78	0.43
678.22	0.44
678.661	0.44
679.102	0.44
679.542	0.44
679.983	0.44
680.424	0.45
680.864	0.45
681.305	0.45
681.745	0.45
682.186	0.45
682.626	0.45
683.067	0.45
683.507	0.45
683.948	0.46
684.388	0.46
684.828	0.46
685.269	0.46
685.709	0.46
686.149	0.46
686.589	0.46
687.029	0.46
687.47	0.46
687.91	0.46
688.35	0.46
688.79	0.46
689.23	0.46
689.67	0.46
690.11	0.46
690.55	0.46
690.99	0.46
691.43	0.46
691.87	0.46
692.31	0.46
692.749	0.46
693.189	0.45
693.629	0.45
694.069	0.45
694.508	0.45
694.948	0.45
695.388	0.45
695.827	0.45
696.267	0.45
696.706	0.44
697.146	0.44
697.586	0.44
698.025	0.44
698.464	0.44
698.904	0.43
699.343	0.43
699.783	0.43
700.222	0.43
700.661	0.43
701.101	0.42
701.54	0.42
701.979	0.42
702.418	0.42
702.857	0.42
703.297	0.41
703.736	0.41
704.175	0.41
704.614	0.41
705.053	0.41
705.492	0.4
705.931	0.4
706.37	0.4
706.809	0.4
707.248	0.4
707.687	0.39
708.125	0.39
708.564	0.39
709.003	0.39
709.442	0.38
709.88	0.38
710.319	0.37
710.758	0.37
711.196	0.37
711.635	0.36
712.074	0.36
712.512	0.36
712.951	0.36
713.389	0.35
713.828	0.35
714.266	0.35
714.705	0.34
715.143	0.34
715.581	0.34
716.02	0.33
716.458	0.33
716.896	0.32
717.334	0.32
717.773	0.32
718.211	0.31
718.649	0.31
719.087	0.31
719.525	0.3
719.963	0.3
720.401	0.3
720.839	0.29
721.277	0.29
721.715	0.29
722.153	0.28
722.591	0.28
723.029	0.28
723.467	0.28
723.905	0.27
724.342	0.27
724.78	0.27
725.218	0.27
725.656	0.26
726.093	0.26
726.531	0.26
726.969	0.26
727.406	0.25
727.844	0.25
728.281	0.25
728.719	0.25
729.156	0.25
729.594	0.24
730.031	0.24
730.469	0.24
730.906	0.24
731.343	0.23
731.781	0.23
732.218	0.23
732.655	0.23
733.092	0.22
733.53	0.22
733.967	0.22
734.404	0.21
734.841	0.21
735.278	0.21
735.715	0.2
736.152	0.2
736.589	0.2
737.026	0.19
737.463	0.19
737.9	0.19
738.337	0.19
738.774	0.18
739.211	0.18
739.647	0.18
740.084	0.17
740.521	0.17
740.958	0.17
741.394	0.16
741.831	0.16
742.268	0.15
742.704	0.15
743.141	0.15
743.577	0.14
744.014	0.14
744.45	0.14
744.887	0.14
745.323	0.13
745.76	0.13
746.196	0.13
746.632	0.13
747.069	0.13
747.505	0.13
747.941	0.13
748.378	0.13
748.814	0.13
749.25	0.13
749.686	0.12
750.122	0.12
750.558	0.12
750.994	0.12
751.43	0.12
751.866	0.12
752.302	0.12
752.738	0.12
753.174	0.12
753.61	0.11
754.046	0.11
754.482	0.11
754.918	0.11
755.354	0.11
755.789	0.11
756.225	0.11
756.661	0.11
757.096	0.11
757.532	0.11
757.968	0.11
758.403	0.11
758.839	0.1
759.274	0.1
759.71	0.1
760.145	0.1
760.581	0.09
761.016	0.09
761.452	0.09
761.887	0.09
762.322	0.09
762.758	0.08
763.193	0.08
763.628	0.08
764.063	0.08
764.499	0.07
764.934	0.07
765.369	0.07
765.804	0.07
766.239	0.06
766.674	0.06
767.109	0.06
767.544	0.06
767.979	0.06
768.414	0.05
768.849	0.05
769.284	0.05
769.719	0.05
770.154	0.05
770.588	0.05
771.023	0.04
771.458	0.04
771.893	0.04
772.327	0.04
772.762	0.03
773.197	0.03
773.631	0.03
774.066	0.03
774.5	0.02
774.935	0.02
775.369	0.02
775.804	0.01
776.238	0.01
776.673	0.01
777.107	0
777.541	-0
777.976	-0.01
778.41	-0.01
778.844	-0.02
779.279	-0.02
779.713	-0.02
780.147	-0.02
780.581	-0.02
781.015	-0.02
781.449	-0.02
781.883	-0.02
782.317	-0.02
782.751	-0.02
783.185	-0.02
783.619	-0.02
784.053	-0.02
784.487	-0.03
784.921	-0.03
785.355	-0.03
785.789	-0.03
786.223	-0.03
786.656	-0.03
787.09	-0.02
787.524	-0.02
787.957	-0.02
788.391	-0.03
788.825	-0.03
789.258	-0.03
789.692	-0.03
790.125	-0.03
790.559	-0.03
790.992	-0.03
791.426	-0.03
791.859	-0.03
792.293	-0.02
792.726	-0.02
793.159	-0.02
793.593	-0.02
794.026	-0.02
794.459	-0.02
794.892	-0.03
795.326	-0.03
795.759	-0.03
796.192	-0.03
796.625	-0.04
797.058	-0.04
797.491	-0.05
797.924	-0.05
798.357	-0.05
798.79	-0.05
799.223	-0.05
799.656	-0.05
800.089	-0.05
800.522	-0.06
800.955	-0.06
801.387	-0.06
801.82	-0.06
802.253	-0.06
802.686	-0.06
803.118	-0.06
803.551	-0.06
803.984	-0.05
804.416	-0.05
804.849	-0.05
805.281	-0.05
805.714	-0.05
806.146	-0.04
806.579	-0.04
807.011	-0.04
807.444	-0.05
807.876	-0.05
808.308	-0.05
808.741	-0.05
809.173	-0.05
809.605	-0.06
810.037	-0.06
810.47	-0.06
810.902	-0.06
811.334	-0.06
811.766	-0.06
812.198	-0.06
812.63	-0.05
813.062	-0.05
813.494	-0.05
813.926	-0.05
814.358	-0.05
814.79	-0.05
815.222	-0.04
815.654	-0.04
816.086	-0.04
816.518	-0.04
816.949	-0.05
817.381	-0.05
817.813	-0.04
818.245	-0.04
818.676	-0.04
819.108	-0.04
819.54	-0.04
819.971	-0.04
820.403	-0.04
820.834	-0.04
821.266	-0.04
821.697	-0.04
822.129	-0.04
822.56	-0.04
822.991	-0.04
823.423	-0.04
823.854	-0.04
824.286	-0.04
824.717	-0.04
825.148	-0.03
825.579	-0.03
826.01	-0.02
826.442	-0.02
826.873	-0.01
827.304	-0.01
827.735	-0
828.166	0
828.597	0.01
829.028	0.01
829.459	0.01
829.89	0.02
830.321	0.02
830.752	0.02
831.183	0.02
831.613	0.03
832.044	0.03
832.475	0.03
832.906	0.03
833.336	0.03
833.767	0.03
834.198	0.03
834.628	0.03
835.059	0.04
835.49	0.04
835.92	0.04
836.351	0.04
836.781	0.04
837.212	0.04
837.642	0.04
838.072	0.04
838.503	0.04
838.933	0.04
839.364	0.05
839.794	0.05
840.224	0.05
840.654	0.05
841.085	0.05
841.515	0.05
841.945	0.05
842.375	0.05
842.805	0.05
843.235	0.05
843.665	0.05
844.095	0.05
844.525	0.05
844.955	0.05
845.385	0.05
845.815	0.05
846.245	0.05
846.675	0.05
847.105	0.05
847.534	0.05
847.964	0.05
848.394	0.05
848.824	0.05
849.253	0.05
849.683	0.05
850.112	0.05
850.542	0.05
850.972	0.05
851.401	0.05
851.831	0.05
852.26	0.05
852.69	0.05
853.119	0.05
853.548	0.05
853.978	0.05
854.407	0.05
854.836	0.05
855.266	0.06
855.695	0.06
856.124	0.06
856.553	0.06
856.983	0.06
857.412	0.06
857.841	0.06
858.27	0.06
858.699	0.06
859.128	0.06
859.557	0.06
859.986	0.06
860.415	0.06
860.844	0.06
861.273	0.06
861.702	0.06
862.13	0.06
862.559	0.06
862.988	0.06
863.417	0.06
863.845	0.06
864.274	0.06
864.703	0.07
865.131	0.07
865.56	0.07
865.989	0.07
866.417	0.07
866.846	0.07
867.274	0.07
867.703	0.07
868.131	0.07
868.559	0.07
868.988	0.07
869.416	0.07
869.844	0.07
870.273	0.07
870.701	0.07
871.129	0.07
871.557	0.07
871.986	0.07
872.414	0.07
872.842	0.07
873.27	0.07
873.698	0.07
874.126	0.07
874.554	0.07
874.982	0.07
875.41	0.07
875.838	0.07
876.266	0.07
876.694	0.07
877.122	0.07
877.549	0.07
877.977	0.07
878.405	0.07
878.833	0.07
879.26	0.07
879.688	0.07
880.116	0.07
880.543	0.07
880.971	0.07
881.399	0.07
881.826	0.07
882.254	0.07
882.681	0.07
883.109	0.07
883.536	0.07
883.963	0.07
884.391	0.07
884.818	0.07
885.245	0.07
885.673	0.07
886.1	0.07
886.527	0.07
886.954	0.07
887.381	0.07
887.809	0.07
888.236	0.07
888.663	0.07
889.09	0.07
889.517	0.07
889.944	0.07
890.371	0.07
890.798	0.07
891.225	0.07
891.652	0.07
892.078	0.07
892.505	0.06
892.932	0.06
893.359	0.06
893.786	0.06
894.212	0.06
894.639	0.06
895.066	0.06
895.492	0.06
895.919	0.07
896.346	0.07
896.772	0.07
897.199	0.07
897.625	0.07
898.052	0.07
898.478	0.07
898.904	0.07
899.331	0.07
899.757	0.07
900.183	0.07
900.61	0.07
901.036	0.07
901.462	0.07
901.888	0.07
902.315	0.07
902.741	0.07
903.167	0.07
903.593	0.07
904.019	0.07
904.445	0.07
904.871	0.07
905.297	0.07
905.723	0.07
906.149	0.07
906.575	0.07
907.001	0.07
907.427	0.07
907.852	0.07
908.278	0.07
908.704	0.07
909.13	0.07
909.555	0.07
909.981	0.07
910.407	0.07
910.832	0.07
911.258	0.07
911.684	0.07
912.109	0.07
912.535	0.07
912.96	0.07
913.386	0.07
913.811	0.07
914.236	0.07
914.662	0.07
915.087	0.07
915.512	0.07
915.938	0.07
916.363	0.07
916.788	0.07
917.213	0.07
917.639	0.07
918.064	0.07
918.489	0.07
918.914	0.07
919.339	0.07
919.764	0.07
920.189	0.07
920.614	0.07
921.039	0.08
921.464	0.08
921.889	0.08
922.314	0.08
922.738	0.08
923.163	0.08
923.588	0.08
924.013	0.08
924.437	0.08
924.862	0.08
925.287	0.08
925.711	0.08
926.136	0.08
926.561	0.08
926.985	0.08
927.41	0.08
927.834	0.08
928.259	0.08
928.683	0.08
929.108	0.08
929.532	0.08
929.956	0.08
930.381	0.08
930.805	0.08
931.229	0.08
931.653	0.08
932.078	0.08
932.502	0.08
932.926	0.08
933.35	0.08
933.774	0.08
934.198	0.08
934.622	0.08
935.046	0.08
935.47	0.08
935.894	0.08
936.318	0.08
936.742	0.08
937.166	0.08
937.59	0.08
938.014	0.08
938.437	0.08
938.861	0.08
939.285	0.08
939.709	0.08
940.132	0.08
940.556	0.08
940.98	0.08
941.403	0.08
941.827	0.08
942.25	0.08
942.674	0.08
943.097	0.08
943.521	0.08
943.944	0.08
944.368	0.08
944.791	0.08
945.214	0.08
945.638	0.08
946.061	0.08
946.484	0.08
946.907	0.08
947.331	0.08
947.754	0.08
948.177	0.08
948.6	0.08
949.023	0.08
949.446	0.08
949.869	0.08
950.292	0.08
950.715	0.08
951.138	0.08
951.561	0.08
951.984	0.08
952.407	0.08
952.83	0.08
953.252	0.08
953.675	0.08
954.098	0.08
954.521	0.08
954.943	0.08
955.366	0.08
955.789	0.08
956.211	0.08
956.634	0.08
957.056	0.08
957.479	0.08
957.902	0.08
958.324	0.08
958.746	0.08
959.169	0.08
959.591	0.09
960.014	0.09
960.436	0.09
960.858	0.09
961.281	0.09
961.703	0.09
962.125	0.09
962.547	0.09
962.969	0.09
963.391	0.09
963.814	0.08
964.236	0.08
964.658	0.08
965.08	0.08
965.502	0.08
965.924	0.08
966.346	0.08
966.768	0.08
967.189	0.08
967.611	0.08
968.033	0.08
968.455	0.08
968.877	0.08
969.298	0.08
969.72	0.08
970.142	0.08
970.563	0.08
970.985	0.08
971.407	0.08
971.828	0.08
972.25	0.08
972.671	0.08
973.093	0.08
973.514	0.08
973.936	0.08
974.357	0.08
974.778	0.08
975.2	0.08
975.621	0.08
976.042	0.08
976.464	0.08
976.885	0.08
977.306	0.08
977.727	0.08
978.148	0.08
978.57	0.08
978.991	0.08
979.412	0.08
979.833	0.08
980.254	0.08
980.675	0.08
981.096	0.08
981.517	0.08
981.937	0.08
982.358	0.08
982.779	0.08
983.2	0.08
983.621	0.08
984.042	0.08
984.462	0.08
984.883	0.08
985.304	0.08
985.724	0.08
986.145	0.08
986.565	0.08
986.986	0.08
987.407	0.08
987.827	0.08
988.248	0.08
988.668	0.08
989.088	0.08
989.509	0.08
989.929	0.08
990.35	0.08
990.77	0.08
991.19	0.08
991.61	0.08
992.031	0.08
992.451	0.08
992.871	0.08
993.291	0.08
993.711	0.08
994.131	0.08
994.551	0.08
994.971	0.08
995.391	0.08
995.811	0.08
996.231	0.08
996.651	0.08
997.071	0.08
997.491	0.08
997.911	0.08
998.331	0.08
998.75	0.08
999.17	0.08
999.59	0.08
1000.009	0.08
1000.429	0.08
1000.849	0.08
1001.268	0.08
1001.688	0.08
1002.107	0.08
1002.527	0.08
1002.946	0.08
1003.366	0.08
1003.785	0.08
1004.205	0.08
1004.624	0.08
1005.044	0.08
1005.463	0.08
1005.882	0.08
1006.301	0.08
1006.721	0.08
1007.14	0.08
1007.559	0.08
1007.978	0.08
1008.397	0.08
1008.816	0.08
1009.235	0.08
1009.655	0.08
1010.074	0.08
1010.492	0.08
1010.911	0.08
1011.33	0.08
1011.749	0.08
1012.168	0.08
1012.587	0.08
1013.006	0.08
1013.425	0.08
1013.843	0.08
1014.262	0.08
1014.681	0.08
1015.099	0.08
1015.518	0.08
1015.937	0.08
1016.355	0.08
1016.774	0.08
1017.192	0.08
1017.611	0.08
1018.029	0.08
1018.448	0.08
1018.866	0.08
1019.285	0.08
1019.703	0.08
1020.121	0.08
1020.54	0.08
1020.958	0.08
1021.376	0.08
1021.794	0.08
1022.213	0.08
1022.631	0.08
1023.049	0.08
1023.467	0.08
1023.885	0.08
1024.303	0.08
1024.721	0.08
1025.139	0.08
1025.557	0.08
1025.975	0.08
1026.393	0.08
1026.811	0.08
1027.229	0.08
1027.647	0.08
1028.065	0.08
1028.482	0.08
1028.9	0.08
1029.318	0.08
1029.735	0.08
1030.153	0.08
1030.571	0.08
1030.988	0.08
1031.406	0.08
1031.823	0.08
1032.241	0.08
1032.659	0.09
1033.076	0.09
1033.493	0.09
1033.911	0.09
1034.328	0.09
1034.746	0.09
1035.163	0.09
1035.58	0.09
1035.997	0.09
1036.415	0.09
1036.832	0.09
1037.249	0.09
1037.666	0.09
1038.083	0.09
1038.501	0.09
1038.918	0.09
1039.335	0.09
1039.752	0.09
1040.169	0.1
1040.586	0.1
1041.003	0.1
1041.419	0.1
1041.836	0.1
1042.253	0.1
1042.67	0.1
1043.087	0.1
1043.504	0.1
1043.92	0.1
1044.337	0.1
1044.754	0.1
1045.17	0.1
1045.587	0.1
1046.004	0.1
1046.42	0.1
1046.837	0.1
1047.253	0.1
1047.67	0.1
1048.086	0.1
1048.503	0.1
1048.919	0.1
1049.335	0.1
1049.752	0.1
1050.168	0.1
1050.584	0.1
1051.001	0.1
1051.417	0.1
1051.833	0.1
1052.249	0.1
1052.665	0.1
1053.081	0.11
1053.497	0.11
1053.914	0.11
1054.33	0.11
1054.746	0.11
1055.162	0.11
1055.578	0.11
1055.993	0.11
1056.409	0.11
1056.825	0.11
1057.241	0.11
1057.657	0.11
1058.073	0.11
1058.488	0.11
1058.904	0.12
1059.32	0.12
1059.736	0.12
1060.151	0.12
1060.567	0.12
1060.982	0.12
1061.398	0.12
1061.813	0.12
1062.229	0.12
1062.644	0.12
1063.06	0.13
1063.475	0.13
1063.891	0.13
1064.306	0.13
1064.721	0.13
1065.137	0.13
1065.552	0.13
1065.967	0.13
1066.382	0.13
1066.798	0.14
1067.213	0.14
1067.628	0.14
1068.043	0.14
1068.458	0.14
1068.873	0.14
1069.288	0.14
1069.703	0.14
1070.118	0.15
1070.533	0.15
1070.948	0.15
1071.363	0.15
1071.778	0.15
1072.193	0.15
1072.607	0.16
1073.022	0.16
1073.437	0.16
1073.852	0.16
1074.266	0.17
1074.681	0.17
1075.096	0.17
1075.51	0.17
1075.925	0.18
1076.339	0.18
1076.754	0.18
1077.168	0.18
1077.583	0.19
1077.997	0.19
1078.412	0.19
1078.826	0.2
1079.24	0.2
1079.655	0.2
1080.069	0.2
1080.483	0.2
1080.897	0.21
1081.312	0.21
1081.726	0.21
1082.14	0.21
1082.554	0.21
1082.968	0.22
1083.382	0.22
1083.796	0.22
1084.21	0.23
1084.624	0.23
1085.038	0.23
1085.452	0.24
1085.866	0.24
1086.28	0.25
1086.694	0.25
1087.108	0.26
1087.521	0.26
1087.935	0.27
1088.349	0.28
1088.763	0.29
1089.176	0.29
1089.59	0.3
1090.004	0.31
1090.417	0.32
1090.831	0.33
1091.244	0.35
1091.658	0.36
1092.071	0.37
1092.485	0.39
1092.898	0.4
1093.312	0.42
1093.725	0.44
1094.138	0.46
1094.552	0.48
1094.965	0.5
1095.378	0.53
1095.791	0.56
1096.205	0.59
1096.618	0.63
1097.031	0.68
1097.444	0.73
1097.857	0.8
1098.27	0.87
1098.683	0.97
1099.096	1.11
1099.509	1.33
1099.922	1.84
1100.335	-0
1100.748	-0
1101.161	-0
1101.574	-0
1101.986	-0
1102.399	-0
1102.812	-0
1103.225	-0
1103.637	-0
1104.05	-0
1104.463	-0
1104.875	-0
1105.288	-0
1105.7	-0
1106.113	-0
1106.525	-0
1106.938	-0
1107.35	-0
1107.763	-0
1108.175	-0
1108.588	-0
1109	-0
1109.412	-0
1109.824	-0
1110.237	-0
1110.649	-0
1111.061	-0
