Data from redip-kinet-2-5a_Absorbance__171__00171.txt Node

Date: Fri Apr 12 13:51:11 CEST 2024
User: Laser008
Spectrometer: MAYP115816
Trigger mode: 0
Integration Time (sec): 2.000000E-1
Scans to average: 10
Electric dark correction enabled: true
Nonlinearity correction enabled: true
Boxcar width: 5
XAxis mode: Wavelengths
Number of Pixels in Spectrum: 2068
>>>>>Begin Spectral Data<<<<<
198.914	-0.11
199.384	-0.07
199.855	-0.01
200.325	0.03
200.796	0.06
201.266	0.07
201.737	0.09
202.207	0.09
202.677	0.1
203.147	0.1
203.618	0.11
204.088	0.12
204.558	0.13
205.028	0.14
205.498	0.13
205.968	0.14
206.439	0.13
206.909	0.13
207.379	0.14
207.849	0.14
208.319	0.14
208.789	0.14
209.258	0.14
209.728	0.14
210.198	0.14
210.668	0.14
211.138	0.14
211.608	0.14
212.077	0.14
212.547	0.14
213.017	0.14
213.486	0.14
213.956	0.14
214.426	0.15
214.895	0.15
215.365	0.15
215.834	0.15
216.304	0.15
216.773	0.15
217.243	0.16
217.712	0.16
218.181	0.16
218.651	0.16
219.12	0.16
219.589	0.17
220.058	0.17
220.528	0.17
220.997	0.18
221.466	0.18
221.935	0.18
222.404	0.19
222.873	0.19
223.342	0.2
223.812	0.2
224.281	0.21
224.749	0.21
225.218	0.22
225.687	0.23
226.156	0.24
226.625	0.25
227.094	0.26
227.563	0.27
228.031	0.29
228.5	0.3
228.969	0.32
229.438	0.34
229.906	0.36
230.375	0.38
230.844	0.39
231.312	0.42
231.781	0.44
232.249	0.46
232.718	0.48
233.186	0.5
233.655	0.52
234.123	0.54
234.591	0.56
235.06	0.57
235.528	0.58
235.996	0.6
236.465	0.61
236.933	0.62
237.401	0.63
237.869	0.64
238.337	0.65
238.805	0.65
239.274	0.66
239.742	0.67
240.21	0.67
240.678	0.68
241.146	0.68
241.614	0.69
242.081	0.69
242.549	0.7
243.017	0.7
243.485	0.71
243.953	0.71
244.421	0.72
244.888	0.72
245.356	0.72
245.824	0.73
246.291	0.73
246.759	0.73
247.227	0.74
247.694	0.74
248.162	0.75
248.629	0.75
249.097	0.75
249.564	0.76
250.032	0.76
250.499	0.76
250.967	0.77
251.434	0.77
251.901	0.77
252.369	0.78
252.836	0.78
253.303	0.78
253.77	0.79
254.237	0.79
254.705	0.79
255.172	0.79
255.639	0.79
256.106	0.8
256.573	0.8
257.04	0.8
257.507	0.8
257.974	0.8
258.441	0.8
258.908	0.8
259.375	0.8
259.841	0.8
260.308	0.8
260.775	0.8
261.242	0.8
261.709	0.8
262.175	0.8
262.642	0.8
263.109	0.8
263.575	0.8
264.042	0.8
264.508	0.79
264.975	0.79
265.441	0.79
265.908	0.79
266.374	0.78
266.841	0.78
267.307	0.78
267.773	0.77
268.24	0.77
268.706	0.77
269.172	0.76
269.639	0.76
270.105	0.75
270.571	0.75
271.037	0.74
271.503	0.74
271.969	0.74
272.435	0.73
272.902	0.73
273.368	0.72
273.834	0.72
274.3	0.71
274.765	0.71
275.231	0.7
275.697	0.7
276.163	0.69
276.629	0.69
277.095	0.68
277.56	0.67
278.026	0.67
278.492	0.66
278.958	0.66
279.423	0.65
279.889	0.65
280.354	0.64
280.82	0.64
281.286	0.63
281.751	0.63
282.217	0.62
282.682	0.62
283.147	0.61
283.613	0.61
284.078	0.6
284.544	0.6
285.009	0.59
285.474	0.59
285.939	0.58
286.405	0.58
286.87	0.57
287.335	0.57
287.8	0.57
288.265	0.56
288.73	0.56
289.195	0.55
289.66	0.55
290.125	0.55
290.59	0.54
291.055	0.54
291.52	0.54
291.985	0.53
292.45	0.53
292.915	0.53
293.38	0.52
293.844	0.52
294.309	0.52
294.774	0.51
295.239	0.51
295.703	0.51
296.168	0.51
296.632	0.5
297.097	0.5
297.562	0.5
298.026	0.5
298.491	0.5
298.955	0.49
299.419	0.49
299.884	0.49
300.348	0.49
300.813	0.49
301.277	0.49
301.741	0.48
302.205	0.48
302.67	0.48
303.134	0.48
303.598	0.48
304.062	0.48
304.526	0.47
304.99	0.47
305.454	0.47
305.919	0.47
306.383	0.47
306.847	0.47
307.31	0.47
307.774	0.46
308.238	0.46
308.702	0.46
309.166	0.46
309.63	0.46
310.094	0.46
310.557	0.46
311.021	0.46
311.485	0.45
311.948	0.45
312.412	0.45
312.876	0.45
313.339	0.45
313.803	0.45
314.266	0.45
314.73	0.45
315.193	0.44
315.657	0.44
316.12	0.44
316.584	0.44
317.047	0.44
317.51	0.44
317.973	0.44
318.437	0.44
318.9	0.44
319.363	0.43
319.826	0.43
320.29	0.43
320.753	0.43
321.216	0.43
321.679	0.43
322.142	0.43
322.605	0.43
323.068	0.43
323.531	0.42
323.994	0.42
324.457	0.42
324.92	0.42
325.382	0.42
325.845	0.42
326.308	0.42
326.771	0.42
327.233	0.42
327.696	0.42
328.159	0.42
328.622	0.41
329.084	0.41
329.547	0.41
330.009	0.41
330.472	0.41
330.934	0.41
331.397	0.41
331.859	0.41
332.322	0.41
332.784	0.41
333.246	0.4
333.709	0.4
334.171	0.4
334.633	0.4
335.096	0.4
335.558	0.4
336.02	0.4
336.482	0.4
336.944	0.4
337.406	0.4
337.868	0.4
338.331	0.4
338.793	0.4
339.255	0.4
339.717	0.39
340.178	0.39
340.64	0.39
341.102	0.39
341.564	0.39
342.026	0.39
342.488	0.39
342.949	0.39
343.411	0.39
343.873	0.39
344.335	0.39
344.796	0.39
345.258	0.39
345.719	0.39
346.181	0.39
346.643	0.39
347.104	0.39
347.566	0.39
348.027	0.39
348.488	0.38
348.95	0.38
349.411	0.38
349.873	0.38
350.334	0.38
350.795	0.38
351.256	0.38
351.718	0.38
352.179	0.38
352.64	0.38
353.101	0.38
353.562	0.38
354.023	0.38
354.484	0.38
354.945	0.38
355.406	0.38
355.867	0.38
356.328	0.38
356.789	0.38
357.25	0.38
357.711	0.38
358.172	0.38
358.633	0.38
359.093	0.38
359.554	0.38
360.015	0.38
360.476	0.38
360.936	0.38
361.397	0.38
361.858	0.38
362.318	0.38
362.779	0.38
363.239	0.38
363.7	0.38
364.16	0.38
364.621	0.38
365.081	0.38
365.541	0.38
366.002	0.38
366.462	0.38
366.922	0.37
367.383	0.37
367.843	0.37
368.303	0.37
368.763	0.37
369.223	0.37
369.684	0.37
370.144	0.37
370.604	0.37
371.064	0.37
371.524	0.37
371.984	0.37
372.444	0.37
372.904	0.37
373.363	0.37
373.823	0.37
374.283	0.37
374.743	0.37
375.203	0.37
375.663	0.37
376.122	0.37
376.582	0.37
377.042	0.37
377.501	0.37
377.961	0.37
378.42	0.37
378.88	0.37
379.34	0.37
379.799	0.37
380.259	0.37
380.718	0.37
381.177	0.37
381.637	0.36
382.096	0.36
382.555	0.36
383.015	0.36
383.474	0.36
383.933	0.36
384.393	0.36
384.852	0.36
385.311	0.36
385.77	0.36
386.229	0.36
386.688	0.36
387.147	0.36
387.606	0.36
388.065	0.36
388.524	0.36
388.983	0.36
389.442	0.36
389.901	0.36
390.36	0.36
390.819	0.36
391.277	0.36
391.736	0.36
392.195	0.36
392.654	0.36
393.112	0.36
393.571	0.36
394.03	0.36
394.488	0.35
394.947	0.35
395.405	0.35
395.864	0.35
396.322	0.35
396.781	0.35
397.239	0.35
397.698	0.35
398.156	0.35
398.614	0.35
399.073	0.35
399.531	0.35
399.989	0.35
400.447	0.35
400.905	0.35
401.364	0.35
401.822	0.35
402.28	0.35
402.738	0.35
403.196	0.35
403.654	0.35
404.112	0.35
404.57	0.35
405.028	0.35
405.486	0.35
405.944	0.35
406.402	0.35
406.859	0.35
407.317	0.34
407.775	0.34
408.233	0.34
408.691	0.34
409.148	0.34
409.606	0.34
410.064	0.34
410.521	0.34
410.979	0.34
411.436	0.34
411.894	0.34
412.351	0.34
412.809	0.34
413.266	0.34
413.724	0.34
414.181	0.34
414.638	0.34
415.096	0.34
415.553	0.34
416.01	0.34
416.467	0.34
416.925	0.34
417.382	0.34
417.839	0.34
418.296	0.34
418.753	0.34
419.21	0.34
419.667	0.34
420.124	0.34
420.581	0.34
421.038	0.34
421.495	0.34
421.952	0.34
422.409	0.34
422.866	0.34
423.322	0.34
423.779	0.34
424.236	0.34
424.693	0.34
425.149	0.34
425.606	0.34
426.063	0.34
426.519	0.34
426.976	0.34
427.433	0.34
427.889	0.34
428.346	0.34
428.802	0.34
429.258	0.33
429.715	0.33
430.171	0.33
430.628	0.33
431.084	0.33
431.54	0.33
431.997	0.33
432.453	0.33
432.909	0.34
433.365	0.34
433.821	0.34
434.277	0.34
434.734	0.34
435.19	0.34
435.646	0.34
436.102	0.34
436.558	0.34
437.014	0.34
437.47	0.34
437.925	0.33
438.381	0.33
438.837	0.33
439.293	0.33
439.749	0.33
440.205	0.33
440.66	0.33
441.116	0.33
441.572	0.33
442.027	0.33
442.483	0.33
442.939	0.33
443.394	0.33
443.85	0.33
444.305	0.33
444.761	0.33
445.216	0.33
445.672	0.33
446.127	0.33
446.582	0.33
447.038	0.33
447.493	0.33
447.948	0.33
448.403	0.33
448.859	0.33
449.314	0.33
449.769	0.33
450.224	0.33
450.679	0.33
451.134	0.33
451.589	0.33
452.044	0.33
452.499	0.33
452.954	0.33
453.409	0.33
453.864	0.33
454.319	0.33
454.774	0.33
455.229	0.33
455.684	0.33
456.138	0.33
456.593	0.33
457.048	0.33
457.503	0.33
457.957	0.33
458.412	0.33
458.866	0.34
459.321	0.33
459.776	0.34
460.23	0.34
460.685	0.34
461.139	0.34
461.593	0.34
462.048	0.34
462.502	0.34
462.957	0.34
463.411	0.34
463.865	0.34
464.319	0.34
464.774	0.34
465.228	0.34
465.682	0.34
466.136	0.34
466.59	0.34
467.044	0.34
467.499	0.34
467.953	0.34
468.407	0.34
468.861	0.34
469.315	0.34
469.768	0.35
470.222	0.35
470.676	0.35
471.13	0.35
471.584	0.35
472.038	0.35
472.491	0.35
472.945	0.35
473.399	0.35
473.852	0.35
474.306	0.35
474.76	0.35
475.213	0.35
475.667	0.35
476.12	0.36
476.574	0.36
477.027	0.36
477.481	0.36
477.934	0.36
478.388	0.36
478.841	0.36
479.294	0.36
479.748	0.36
480.201	0.37
480.654	0.37
481.107	0.37
481.561	0.37
482.014	0.37
482.467	0.37
482.92	0.37
483.373	0.38
483.826	0.38
484.279	0.38
484.732	0.38
485.185	0.38
485.638	0.38
486.091	0.38
486.544	0.39
486.997	0.39
487.449	0.39
487.902	0.39
488.355	0.39
488.808	0.39
489.26	0.4
489.713	0.4
490.166	0.4
490.618	0.4
491.071	0.41
491.523	0.41
491.976	0.41
492.429	0.41
492.881	0.41
493.333	0.42
493.786	0.42
494.238	0.42
494.691	0.42
495.143	0.43
495.595	0.43
496.048	0.43
496.5	0.43
496.952	0.44
497.404	0.44
497.856	0.44
498.309	0.44
498.761	0.45
499.213	0.45
499.665	0.45
500.117	0.45
500.569	0.46
501.021	0.46
501.473	0.46
501.925	0.46
502.377	0.47
502.828	0.47
503.28	0.47
503.732	0.47
504.184	0.48
504.636	0.48
505.087	0.48
505.539	0.48
505.991	0.49
506.442	0.49
506.894	0.49
507.345	0.5
507.797	0.5
508.249	0.5
508.7	0.5
509.151	0.51
509.603	0.51
510.054	0.51
510.506	0.51
510.957	0.52
511.408	0.52
511.86	0.52
512.311	0.52
512.762	0.52
513.213	0.53
513.665	0.53
514.116	0.53
514.567	0.53
515.018	0.53
515.469	0.53
515.92	0.54
516.371	0.54
516.822	0.54
517.273	0.54
517.724	0.54
518.175	0.54
518.626	0.54
519.076	0.54
519.527	0.55
519.978	0.55
520.429	0.55
520.88	0.55
521.33	0.55
521.781	0.55
522.232	0.55
522.682	0.55
523.133	0.55
523.583	0.55
524.034	0.55
524.484	0.55
524.935	0.55
525.385	0.55
525.836	0.55
526.286	0.55
526.736	0.55
527.187	0.55
527.637	0.54
528.087	0.54
528.538	0.54
528.988	0.54
529.438	0.54
529.888	0.54
530.338	0.54
530.788	0.54
531.238	0.54
531.688	0.53
532.139	0.53
532.589	0.53
533.038	0.53
533.488	0.53
533.938	0.53
534.388	0.52
534.838	0.52
535.288	0.52
535.738	0.52
536.187	0.51
536.637	0.51
537.087	0.51
537.537	0.51
537.986	0.51
538.436	0.5
538.885	0.5
539.335	0.5
539.785	0.5
540.234	0.5
540.684	0.49
541.133	0.49
541.582	0.49
542.032	0.49
542.481	0.48
542.931	0.48
543.38	0.48
543.829	0.47
544.278	0.47
544.728	0.47
545.177	0.46
545.626	0.46
546.075	0.45
546.524	0.45
546.973	0.45
547.422	0.44
547.871	0.44
548.32	0.43
548.769	0.43
549.218	0.42
549.667	0.42
550.116	0.41
550.565	0.41
551.014	0.4
551.463	0.4
551.911	0.39
552.36	0.39
552.809	0.39
553.258	0.38
553.706	0.38
554.155	0.37
554.603	0.37
555.052	0.36
555.501	0.36
555.949	0.36
556.398	0.35
556.846	0.35
557.294	0.34
557.743	0.34
558.191	0.34
558.64	0.33
559.088	0.33
559.536	0.33
559.985	0.32
560.433	0.32
560.881	0.32
561.329	0.31
561.777	0.31
562.225	0.31
562.674	0.3
563.122	0.3
563.57	0.3
564.018	0.29
564.466	0.29
564.914	0.29
565.362	0.28
565.809	0.28
566.257	0.28
566.705	0.27
567.153	0.27
567.601	0.27
568.048	0.26
568.496	0.26
568.944	0.26
569.392	0.25
569.839	0.25
570.287	0.25
570.734	0.25
571.182	0.24
571.63	0.24
572.077	0.24
572.525	0.24
572.972	0.23
573.419	0.23
573.867	0.23
574.314	0.23
574.761	0.23
575.209	0.22
575.656	0.22
576.103	0.22
576.551	0.22
576.998	0.22
577.445	0.21
577.892	0.21
578.339	0.21
578.786	0.21
579.233	0.21
579.68	0.2
580.127	0.2
580.574	0.2
581.021	0.2
581.468	0.2
581.915	0.2
582.362	0.19
582.809	0.19
583.255	0.19
583.702	0.19
584.149	0.19
584.596	0.19
585.042	0.19
585.489	0.18
585.936	0.18
586.382	0.18
586.829	0.18
587.275	0.18
587.722	0.18
588.168	0.18
588.615	0.18
589.061	0.17
589.508	0.17
589.954	0.17
590.4	0.17
590.847	0.17
591.293	0.17
591.739	0.17
592.185	0.17
592.632	0.17
593.078	0.17
593.524	0.17
593.97	0.17
594.416	0.16
594.862	0.16
595.308	0.16
595.754	0.16
596.2	0.16
596.646	0.16
597.092	0.16
597.538	0.16
597.984	0.16
598.43	0.16
598.876	0.16
599.321	0.16
599.767	0.16
600.213	0.16
600.659	0.16
601.104	0.16
601.55	0.15
601.995	0.15
602.441	0.15
602.887	0.15
603.332	0.16
603.778	0.16
604.223	0.16
604.668	0.16
605.114	0.16
605.559	0.16
606.005	0.16
606.45	0.16
606.895	0.16
607.341	0.16
607.786	0.16
608.231	0.16
608.676	0.16
609.121	0.16
609.566	0.16
610.012	0.16
610.457	0.16
610.902	0.16
611.347	0.16
611.792	0.17
612.237	0.17
612.682	0.17
613.127	0.17
613.571	0.16
614.016	0.16
614.461	0.16
614.906	0.16
615.351	0.16
615.795	0.16
616.24	0.16
616.685	0.16
617.129	0.16
617.574	0.16
618.019	0.16
618.463	0.16
618.908	0.17
619.352	0.17
619.797	0.17
620.241	0.17
620.686	0.17
621.13	0.17
621.574	0.17
622.019	0.17
622.463	0.17
622.907	0.18
623.352	0.18
623.796	0.18
624.24	0.18
624.684	0.18
625.128	0.18
625.572	0.18
626.016	0.18
626.461	0.18
626.905	0.19
627.349	0.19
627.793	0.19
628.236	0.19
628.68	0.19
629.124	0.19
629.568	0.19
630.012	0.2
630.456	0.2
630.9	0.2
631.343	0.2
631.787	0.2
632.231	0.2
632.674	0.2
633.118	0.21
633.562	0.21
634.005	0.21
634.449	0.21
634.892	0.21
635.336	0.21
635.779	0.22
636.223	0.22
636.666	0.22
637.109	0.22
637.553	0.23
637.996	0.23
638.439	0.23
638.883	0.23
639.326	0.24
639.769	0.24
640.212	0.24
640.655	0.25
641.099	0.25
641.542	0.25
641.985	0.26
642.428	0.26
642.871	0.26
643.314	0.27
643.757	0.27
644.2	0.27
644.643	0.28
645.085	0.28
645.528	0.29
645.971	0.29
646.414	0.29
646.857	0.3
647.299	0.3
647.742	0.3
648.185	0.31
648.627	0.31
649.07	0.31
649.513	0.32
649.955	0.32
650.398	0.32
650.84	0.32
651.283	0.33
651.725	0.33
652.168	0.34
652.61	0.34
653.052	0.35
653.495	0.33
653.937	0.26
654.379	0.21
654.821	0.22
655.264	0.23
655.706	0.23
656.148	0.23
656.59	0.23
657.032	0.24
657.474	0.24
657.916	0.24
658.358	0.25
658.8	0.32
659.242	0.4
659.684	0.41
660.126	0.41
660.568	0.42
661.01	0.42
661.452	0.43
661.894	0.43
662.335	0.44
662.777	0.44
663.219	0.45
663.661	0.45
664.102	0.45
664.544	0.46
664.985	0.46
665.427	0.47
665.869	0.47
666.31	0.47
666.752	0.48
667.193	0.48
667.634	0.49
668.076	0.49
668.517	0.49
668.959	0.5
669.4	0.5
669.841	0.5
670.282	0.51
670.724	0.51
671.165	0.51
671.606	0.52
672.047	0.52
672.488	0.52
672.929	0.53
673.37	0.53
673.811	0.53
674.252	0.53
674.693	0.54
675.134	0.54
675.575	0.54
676.016	0.55
676.457	0.55
676.898	0.55
677.339	0.55
677.78	0.56
678.22	0.56
678.661	0.56
679.102	0.56
679.542	0.56
679.983	0.56
680.424	0.56
680.864	0.57
681.305	0.57
681.745	0.57
682.186	0.57
682.626	0.57
683.067	0.57
683.507	0.57
683.948	0.57
684.388	0.57
684.828	0.57
685.269	0.57
685.709	0.57
686.149	0.57
686.589	0.57
687.029	0.57
687.47	0.57
687.91	0.57
688.35	0.57
688.79	0.57
689.23	0.57
689.67	0.57
690.11	0.57
690.55	0.56
690.99	0.56
691.43	0.56
691.87	0.56
692.31	0.56
692.749	0.56
693.189	0.56
693.629	0.55
694.069	0.55
694.508	0.55
694.948	0.55
695.388	0.54
695.827	0.54
696.267	0.54
696.706	0.54
697.146	0.53
697.586	0.53
698.025	0.53
698.464	0.53
698.904	0.52
699.343	0.52
699.783	0.52
700.222	0.52
700.661	0.51
701.101	0.51
701.54	0.51
701.979	0.5
702.418	0.5
702.857	0.5
703.297	0.5
703.736	0.49
704.175	0.49
704.614	0.49
705.053	0.48
705.492	0.48
705.931	0.47
706.37	0.47
706.809	0.47
707.248	0.47
707.687	0.46
708.125	0.46
708.564	0.46
709.003	0.45
709.442	0.45
709.88	0.45
710.319	0.44
710.758	0.44
711.196	0.43
711.635	0.43
712.074	0.43
712.512	0.42
712.951	0.42
713.389	0.41
713.828	0.41
714.266	0.41
714.705	0.4
715.143	0.4
715.581	0.4
716.02	0.39
716.458	0.39
716.896	0.38
717.334	0.38
717.773	0.37
718.211	0.37
718.649	0.37
719.087	0.36
719.525	0.36
719.963	0.36
720.401	0.35
720.839	0.35
721.277	0.35
721.715	0.34
722.153	0.34
722.591	0.34
723.029	0.33
723.467	0.33
723.905	0.33
724.342	0.32
724.78	0.32
725.218	0.32
725.656	0.31
726.093	0.31
726.531	0.31
726.969	0.31
727.406	0.3
727.844	0.3
728.281	0.3
728.719	0.29
729.156	0.29
729.594	0.29
730.031	0.29
730.469	0.28
730.906	0.28
731.343	0.28
731.781	0.28
732.218	0.27
732.655	0.27
733.092	0.27
733.53	0.26
733.967	0.26
734.404	0.26
734.841	0.26
735.278	0.25
735.715	0.25
736.152	0.25
736.589	0.24
737.026	0.24
737.463	0.24
737.9	0.24
738.337	0.23
738.774	0.23
739.211	0.23
739.647	0.23
740.084	0.22
740.521	0.22
740.958	0.22
741.394	0.22
741.831	0.21
742.268	0.21
742.704	0.21
743.141	0.21
743.577	0.21
744.014	0.2
744.45	0.2
744.887	0.2
745.323	0.2
745.76	0.2
746.196	0.19
746.632	0.19
747.069	0.19
747.505	0.19
747.941	0.19
748.378	0.18
748.814	0.18
749.25	0.18
749.686	0.18
750.122	0.18
750.558	0.17
750.994	0.17
751.43	0.17
751.866	0.17
752.302	0.17
752.738	0.16
753.174	0.16
753.61	0.16
754.046	0.16
754.482	0.16
754.918	0.16
755.354	0.16
755.789	0.16
756.225	0.15
756.661	0.15
757.096	0.15
757.532	0.15
757.968	0.15
758.403	0.15
758.839	0.15
759.274	0.15
759.71	0.15
760.145	0.15
760.581	0.15
761.016	0.15
761.452	0.14
761.887	0.14
762.322	0.14
762.758	0.14
763.193	0.14
763.628	0.14
764.063	0.14
764.499	0.13
764.934	0.13
765.369	0.13
765.804	0.13
766.239	0.13
766.674	0.13
767.109	0.13
767.544	0.12
767.979	0.12
768.414	0.12
768.849	0.12
769.284	0.12
769.719	0.12
770.154	0.12
770.588	0.11
771.023	0.11
771.458	0.11
771.893	0.11
772.327	0.11
772.762	0.11
773.197	0.11
773.631	0.11
774.066	0.11
774.5	0.11
774.935	0.11
775.369	0.11
775.804	0.11
776.238	0.11
776.673	0.11
777.107	0.11
777.541	0.11
777.976	0.11
778.41	0.11
778.844	0.1
779.279	0.1
779.713	0.1
780.147	0.1
780.581	0.1
781.015	0.1
781.449	0.1
781.883	0.09
782.317	0.09
782.751	0.09
783.185	0.09
783.619	0.09
784.053	0.09
784.487	0.09
784.921	0.09
785.355	0.09
785.789	0.09
786.223	0.09
786.656	0.09
787.09	0.09
787.524	0.09
787.957	0.09
788.391	0.09
788.825	0.09
789.258	0.09
789.692	0.08
790.125	0.08
790.559	0.08
790.992	0.08
791.426	0.08
791.859	0.08
792.293	0.08
792.726	0.08
793.159	0.08
793.593	0.08
794.026	0.08
794.459	0.08
794.892	0.08
795.326	0.08
795.759	0.08
796.192	0.08
796.625	0.08
797.058	0.08
797.491	0.08
797.924	0.08
798.357	0.08
798.79	0.08
799.223	0.08
799.656	0.08
800.089	0.08
800.522	0.08
800.955	0.08
801.387	0.08
801.82	0.08
802.253	0.08
802.686	0.07
803.118	0.07
803.551	0.07
803.984	0.07
804.416	0.07
804.849	0.07
805.281	0.07
805.714	0.07
806.146	0.07
806.579	0.07
807.011	0.07
807.444	0.07
807.876	0.07
808.308	0.06
808.741	0.06
809.173	0.06
809.605	0.07
810.037	0.06
810.47	0.06
810.902	0.06
811.334	0.06
811.766	0.06
812.198	0.06
812.63	0.06
813.062	0.06
813.494	0.06
813.926	0.06
814.358	0.06
814.79	0.06
815.222	0.06
815.654	0.06
816.086	0.06
816.518	0.06
816.949	0.06
817.381	0.06
817.813	0.06
818.245	0.06
818.676	0.06
819.108	0.06
819.54	0.06
819.971	0.06
820.403	0.06
820.834	0.06
821.266	0.06
821.697	0.06
822.129	0.06
822.56	0.06
822.991	0.06
823.423	0.06
823.854	0.06
824.286	0.06
824.717	0.06
825.148	0.06
825.579	0.06
826.01	0.06
826.442	0.06
826.873	0.06
827.304	0.06
827.735	0.06
828.166	0.06
828.597	0.06
829.028	0.06
829.459	0.06
829.89	0.06
830.321	0.06
830.752	0.06
831.183	0.06
831.613	0.06
832.044	0.06
832.475	0.06
832.906	0.06
833.336	0.06
833.767	0.06
834.198	0.06
834.628	0.06
835.059	0.06
835.49	0.06
835.92	0.06
836.351	0.06
836.781	0.06
837.212	0.06
837.642	0.06
838.072	0.06
838.503	0.06
838.933	0.06
839.364	0.06
839.794	0.06
840.224	0.06
840.654	0.06
841.085	0.06
841.515	0.06
841.945	0.06
842.375	0.06
842.805	0.05
843.235	0.05
843.665	0.05
844.095	0.05
844.525	0.05
844.955	0.05
845.385	0.05
845.815	0.05
846.245	0.05
846.675	0.05
847.105	0.05
847.534	0.05
847.964	0.05
848.394	0.05
848.824	0.05
849.253	0.05
849.683	0.05
850.112	0.05
850.542	0.05
850.972	0.05
851.401	0.05
851.831	0.05
852.26	0.05
852.69	0.04
853.119	0.04
853.548	0.04
853.978	0.04
854.407	0.04
854.836	0.04
855.266	0.04
855.695	0.04
856.124	0.05
856.553	0.05
856.983	0.05
857.412	0.05
857.841	0.05
858.27	0.05
858.699	0.05
859.128	0.05
859.557	0.04
859.986	0.04
860.415	0.04
860.844	0.04
861.273	0.04
861.702	0.04
862.13	0.04
862.559	0.04
862.988	0.04
863.417	0.04
863.845	0.04
864.274	0.04
864.703	0.04
865.131	0.04
865.56	0.04
865.989	0.04
866.417	0.04
866.846	0.04
867.274	0.04
867.703	0.04
868.131	0.04
868.559	0.05
868.988	0.05
869.416	0.05
869.844	0.05
870.273	0.05
870.701	0.05
871.129	0.05
871.557	0.05
871.986	0.05
872.414	0.05
872.842	0.05
873.27	0.05
873.698	0.05
874.126	0.05
874.554	0.05
874.982	0.05
875.41	0.05
875.838	0.05
876.266	0.05
876.694	0.05
877.122	0.05
877.549	0.05
877.977	0.05
878.405	0.05
878.833	0.05
879.26	0.05
879.688	0.05
880.116	0.05
880.543	0.05
880.971	0.05
881.399	0.05
881.826	0.05
882.254	0.04
882.681	0.04
883.109	0.04
883.536	0.04
883.963	0.04
884.391	0.04
884.818	0.04
885.245	0.04
885.673	0.04
886.1	0.04
886.527	0.04
886.954	0.04
887.381	0.04
887.809	0.04
888.236	0.05
888.663	0.05
889.09	0.04
889.517	0.04
889.944	0.04
890.371	0.04
890.798	0.04
891.225	0.04
891.652	0.04
892.078	0.04
892.505	0.04
892.932	0.04
893.359	0.04
893.786	0.04
894.212	0.04
894.639	0.04
895.066	0.04
895.492	0.04
895.919	0.04
896.346	0.04
896.772	0.04
897.199	0.04
897.625	0.04
898.052	0.04
898.478	0.04
898.904	0.04
899.331	0.04
899.757	0.04
900.183	0.04
900.61	0.04
901.036	0.04
901.462	0.04
901.888	0.04
902.315	0.04
902.741	0.04
903.167	0.04
903.593	0.04
904.019	0.04
904.445	0.04
904.871	0.04
905.297	0.04
905.723	0.04
906.149	0.04
906.575	0.04
907.001	0.04
907.427	0.04
907.852	0.04
908.278	0.04
908.704	0.04
909.13	0.04
909.555	0.04
909.981	0.04
910.407	0.04
910.832	0.04
911.258	0.04
911.684	0.04
912.109	0.04
912.535	0.04
912.96	0.04
913.386	0.04
913.811	0.04
914.236	0.04
914.662	0.04
915.087	0.04
915.512	0.04
915.938	0.04
916.363	0.04
916.788	0.04
917.213	0.04
917.639	0.04
918.064	0.04
918.489	0.04
918.914	0.04
919.339	0.04
919.764	0.04
920.189	0.04
920.614	0.04
921.039	0.04
921.464	0.04
921.889	0.04
922.314	0.04
922.738	0.04
923.163	0.04
923.588	0.04
924.013	0.04
924.437	0.04
924.862	0.04
925.287	0.04
925.711	0.04
926.136	0.04
926.561	0.04
926.985	0.04
927.41	0.04
927.834	0.04
928.259	0.04
928.683	0.04
929.108	0.04
929.532	0.04
929.956	0.04
930.381	0.04
930.805	0.05
931.229	0.05
931.653	0.05
932.078	0.05
932.502	0.05
932.926	0.05
933.35	0.05
933.774	0.05
934.198	0.05
934.622	0.05
935.046	0.05
935.47	0.04
935.894	0.04
936.318	0.04
936.742	0.04
937.166	0.04
937.59	0.04
938.014	0.04
938.437	0.04
938.861	0.04
939.285	0.04
939.709	0.04
940.132	0.04
940.556	0.04
940.98	0.04
941.403	0.04
941.827	0.04
942.25	0.04
942.674	0.04
943.097	0.04
943.521	0.04
943.944	0.04
944.368	0.04
944.791	0.04
945.214	0.04
945.638	0.04
946.061	0.04
946.484	0.04
946.907	0.04
947.331	0.04
947.754	0.04
948.177	0.04
948.6	0.04
949.023	0.04
949.446	0.04
949.869	0.04
950.292	0.04
950.715	0.04
951.138	0.04
951.561	0.04
951.984	0.04
952.407	0.04
952.83	0.04
953.252	0.04
953.675	0.04
954.098	0.04
954.521	0.04
954.943	0.04
955.366	0.04
955.789	0.04
956.211	0.04
956.634	0.04
957.056	0.04
957.479	0.05
957.902	0.05
958.324	0.05
958.746	0.05
959.169	0.05
959.591	0.05
960.014	0.05
960.436	0.05
960.858	0.05
961.281	0.05
961.703	0.05
962.125	0.05
962.547	0.05
962.969	0.05
963.391	0.05
963.814	0.05
964.236	0.05
964.658	0.04
965.08	0.04
965.502	0.04
965.924	0.04
966.346	0.04
966.768	0.04
967.189	0.04
967.611	0.04
968.033	0.04
968.455	0.04
968.877	0.04
969.298	0.04
969.72	0.05
970.142	0.05
970.563	0.05
970.985	0.05
971.407	0.05
971.828	0.05
972.25	0.05
972.671	0.05
973.093	0.05
973.514	0.05
973.936	0.05
974.357	0.05
974.778	0.05
975.2	0.05
975.621	0.05
976.042	0.05
976.464	0.05
976.885	0.04
977.306	0.04
977.727	0.04
978.148	0.04
978.57	0.04
978.991	0.04
979.412	0.04
979.833	0.04
980.254	0.04
980.675	0.04
981.096	0.04
981.517	0.04
981.937	0.04
982.358	0.04
982.779	0.04
983.2	0.04
983.621	0.04
984.042	0.04
984.462	0.04
984.883	0.04
985.304	0.04
985.724	0.04
986.145	0.04
986.565	0.04
986.986	0.04
987.407	0.04
987.827	0.04
988.248	0.04
988.668	0.04
989.088	0.04
989.509	0.04
989.929	0.04
990.35	0.04
990.77	0.04
991.19	0.04
991.61	0.04
992.031	0.04
992.451	0.04
992.871	0.04
993.291	0.04
993.711	0.04
994.131	0.04
994.551	0.04
994.971	0.04
995.391	0.04
995.811	0.04
996.231	0.04
996.651	0.04
997.071	0.04
997.491	0.04
997.911	0.04
998.331	0.04
998.75	0.04
999.17	0.04
999.59	0.04
1000.009	0.04
1000.429	0.04
1000.849	0.04
1001.268	0.04
1001.688	0.04
1002.107	0.04
1002.527	0.04
1002.946	0.04
1003.366	0.04
1003.785	0.04
1004.205	0.04
1004.624	0.04
1005.044	0.04
1005.463	0.04
1005.882	0.04
1006.301	0.04
1006.721	0.04
1007.14	0.04
1007.559	0.04
1007.978	0.04
1008.397	0.04
1008.816	0.04
1009.235	0.04
1009.655	0.04
1010.074	0.04
1010.492	0.04
1010.911	0.04
1011.33	0.04
1011.749	0.04
1012.168	0.04
1012.587	0.04
1013.006	0.04
1013.425	0.04
1013.843	0.04
1014.262	0.04
1014.681	0.04
1015.099	0.03
1015.518	0.03
1015.937	0.03
1016.355	0.03
1016.774	0.03
1017.192	0.03
1017.611	0.03
1018.029	0.03
1018.448	0.03
1018.866	0.03
1019.285	0.03
1019.703	0.03
1020.121	0.03
1020.54	0.03
1020.958	0.03
1021.376	0.03
1021.794	0.03
1022.213	0.03
1022.631	0.03
1023.049	0.03
1023.467	0.03
1023.885	0.03
1024.303	0.03
1024.721	0.03
1025.139	0.03
1025.557	0.03
1025.975	0.03
1026.393	0.03
1026.811	0.03
1027.229	0.03
1027.647	0.03
1028.065	0.03
1028.482	0.03
1028.9	0.03
1029.318	0.03
1029.735	0.03
1030.153	0.03
1030.571	0.03
1030.988	0.03
1031.406	0.03
1031.823	0.03
1032.241	0.03
1032.659	0.03
1033.076	0.03
1033.493	0.03
1033.911	0.03
1034.328	0.03
1034.746	0.03
1035.163	0.03
1035.58	0.03
1035.997	0.03
1036.415	0.03
1036.832	0.03
1037.249	0.03
1037.666	0.03
1038.083	0.03
1038.501	0.03
1038.918	0.03
1039.335	0.03
1039.752	0.03
1040.169	0.03
1040.586	0.03
1041.003	0.03
1041.419	0.03
1041.836	0.03
1042.253	0.03
1042.67	0.03
1043.087	0.03
1043.504	0.03
1043.92	0.03
1044.337	0.03
1044.754	0.03
1045.17	0.03
1045.587	0.03
1046.004	0.03
1046.42	0.03
1046.837	0.03
1047.253	0.03
1047.67	0.03
1048.086	0.03
1048.503	0.03
1048.919	0.03
1049.335	0.03
1049.752	0.03
1050.168	0.03
1050.584	0.03
1051.001	0.03
1051.417	0.03
1051.833	0.02
1052.249	0.02
1052.665	0.02
1053.081	0.02
1053.497	0.02
1053.914	0.02
1054.33	0.02
1054.746	0.02
1055.162	0.02
1055.578	0.02
1055.993	0.02
1056.409	0.02
1056.825	0.02
1057.241	0.02
1057.657	0.02
1058.073	0.02
1058.488	0.02
1058.904	0.02
1059.32	0.02
1059.736	0.02
1060.151	0.02
1060.567	0.02
1060.982	0.02
1061.398	0.03
1061.813	0.03
1062.229	0.03
1062.644	0.02
1063.06	0.02
1063.475	0.02
1063.891	0.02
1064.306	0.03
1064.721	0.03
1065.137	0.03
1065.552	0.03
1065.967	0.03
1066.382	0.03
1066.798	0.03
1067.213	0.03
1067.628	0.03
1068.043	0.03
1068.458	0.03
1068.873	0.03
1069.288	0.02
1069.703	0.02
1070.118	0.02
1070.533	0.02
1070.948	0.02
1071.363	0.02
1071.778	0.02
1072.193	0.02
1072.607	0.02
1073.022	0.02
1073.437	0.03
1073.852	0.03
1074.266	0.03
1074.681	0.03
1075.096	0.03
1075.51	0.03
1075.925	0.03
1076.339	0.03
1076.754	0.03
1077.168	0.03
1077.583	0.03
1077.997	0.03
1078.412	0.03
1078.826	0.03
1079.24	0.03
1079.655	0.03
1080.069	0.03
1080.483	0.03
1080.897	0.03
1081.312	0.03
1081.726	0.03
1082.14	0.03
1082.554	0.03
1082.968	0.03
1083.382	0.02
1083.796	0.02
1084.21	0.02
1084.624	0.02
1085.038	0.02
1085.452	0.02
1085.866	0.02
1086.28	0.02
1086.694	0.02
1087.108	0.02
1087.521	0.03
1087.935	0.03
1088.349	0.03
1088.763	0.03
1089.176	0.03
1089.59	0.03
1090.004	0.03
1090.417	0.03
1090.831	0.03
1091.244	0.03
1091.658	0.03
1092.071	0.03
1092.485	0.03
1092.898	0.03
1093.312	0.03
1093.725	0.03
1094.138	0.03
1094.552	0.03
1094.965	0.03
1095.378	0.03
1095.791	0.03
1096.205	0.03
1096.618	0.03
1097.031	0.03
1097.444	0.03
1097.857	0.03
1098.27	0.03
1098.683	0.03
1099.096	0.03
1099.509	0.03
1099.922	0.03
1100.335	0.03
1100.748	0.03
1101.161	0.03
1101.574	0.03
1101.986	0.03
1102.399	0.03
1102.812	0.03
1103.225	0.03
1103.637	0.03
1104.05	0.03
1104.463	0.02
1104.875	0.03
1105.288	0.02
1105.7	0.02
1106.113	0.02
1106.525	0.02
1106.938	0.02
1107.35	0.02
1107.763	0.02
1108.175	0.02
1108.588	0.02
1109	0.02
1109.412	0.02
1109.824	0.02
1110.237	0.02
1110.649	0.02
1111.061	0.02
