Data from redip-kinet-2-5a_Absorbance__100__00100.txt Node

Date: Fri Apr 12 13:48:50 CEST 2024
User: Laser008
Spectrometer: MAYP115816
Trigger mode: 0
Integration Time (sec): 2.000000E-1
Scans to average: 10
Electric dark correction enabled: true
Nonlinearity correction enabled: true
Boxcar width: 5
XAxis mode: Wavelengths
Number of Pixels in Spectrum: 2068
>>>>>Begin Spectral Data<<<<<
198.914	-2.24
199.384	-2.08
199.855	-1.94
200.325	-1.83
200.796	-1.75
201.266	-1.7
201.737	-1.62
202.207	-1.56
202.677	-1.5
203.147	-1.45
203.618	-1.43
204.088	-1.4
204.558	-1.38
205.028	-1.37
205.498	-1.36
205.968	-1.36
206.439	-1.36
206.909	-1.35
207.379	-1.35
207.849	-1.35
208.319	-1.34
208.789	-1.34
209.258	-1.34
209.728	-1.34
210.198	-1.33
210.668	-1.33
211.138	-1.33
211.608	-1.33
212.077	-1.33
212.547	-1.33
213.017	-1.33
213.486	-1.33
213.956	-1.33
214.426	-1.32
214.895	-1.32
215.365	-1.32
215.834	-1.32
216.304	-1.32
216.773	-1.32
217.243	-1.31
217.712	-1.31
218.181	-1.31
218.651	-1.31
219.12	-1.3
219.589	-1.3
220.058	-1.3
220.528	-1.29
220.997	-1.29
221.466	-1.29
221.935	-1.28
222.404	-1.28
222.873	-1.27
223.342	-1.26
223.812	-1.26
224.281	-1.25
224.749	-1.24
225.218	-1.23
225.687	-1.22
226.156	-1.21
226.625	-1.2
227.094	-1.18
227.563	-1.17
228.031	-1.15
228.5	-1.13
228.969	-1.1
229.438	-1.07
229.906	-1.04
230.375	-1
230.844	-0.97
231.312	-0.92
231.781	-0.88
232.249	-0.83
232.718	-0.79
233.186	-0.74
233.655	-0.69
234.123	-0.64
234.591	-0.59
235.06	-0.53
235.528	-0.48
235.996	-0.43
236.465	-0.39
236.933	-0.34
237.401	-0.29
237.869	-0.25
238.337	-0.21
238.805	-0.17
239.274	-0.13
239.742	-0.09
240.21	-0.06
240.678	-0.03
241.146	0.01
241.614	0.03
242.081	0.06
242.549	0.09
243.017	0.11
243.485	0.13
243.953	0.15
244.421	0.17
244.888	0.19
245.356	0.21
245.824	0.23
246.291	0.24
246.759	0.25
247.227	0.27
247.694	0.28
248.162	0.29
248.629	0.3
249.097	0.31
249.564	0.32
250.032	0.33
250.499	0.34
250.967	0.35
251.434	0.36
251.901	0.37
252.369	0.37
252.836	0.38
253.303	0.39
253.77	0.39
254.237	0.4
254.705	0.4
255.172	0.41
255.639	0.41
256.106	0.42
256.573	0.42
257.04	0.43
257.507	0.43
257.974	0.43
258.441	0.44
258.908	0.44
259.375	0.44
259.841	0.44
260.308	0.45
260.775	0.45
261.242	0.45
261.709	0.45
262.175	0.45
262.642	0.45
263.109	0.45
263.575	0.46
264.042	0.46
264.508	0.46
264.975	0.46
265.441	0.46
265.908	0.46
266.374	0.46
266.841	0.46
267.307	0.46
267.773	0.46
268.24	0.46
268.706	0.46
269.172	0.46
269.639	0.46
270.105	0.46
270.571	0.46
271.037	0.45
271.503	0.45
271.969	0.45
272.435	0.45
272.902	0.45
273.368	0.45
273.834	0.45
274.3	0.45
274.765	0.45
275.231	0.44
275.697	0.44
276.163	0.44
276.629	0.44
277.095	0.44
277.56	0.43
278.026	0.43
278.492	0.43
278.958	0.43
279.423	0.43
279.889	0.42
280.354	0.42
280.82	0.42
281.286	0.42
281.751	0.42
282.217	0.42
282.682	0.42
283.147	0.42
283.613	0.42
284.078	0.42
284.544	0.42
285.009	0.42
285.474	0.41
285.939	0.41
286.405	0.41
286.87	0.41
287.335	0.41
287.8	0.41
288.265	0.41
288.73	0.4
289.195	0.4
289.66	0.4
290.125	0.4
290.59	0.4
291.055	0.4
291.52	0.4
291.985	0.4
292.45	0.39
292.915	0.39
293.38	0.39
293.844	0.39
294.309	0.39
294.774	0.39
295.239	0.39
295.703	0.39
296.168	0.38
296.632	0.38
297.097	0.38
297.562	0.38
298.026	0.38
298.491	0.38
298.955	0.38
299.419	0.38
299.884	0.38
300.348	0.38
300.813	0.38
301.277	0.38
301.741	0.37
302.205	0.37
302.67	0.37
303.134	0.37
303.598	0.37
304.062	0.37
304.526	0.37
304.99	0.37
305.454	0.37
305.919	0.37
306.383	0.37
306.847	0.36
307.31	0.36
307.774	0.36
308.238	0.36
308.702	0.36
309.166	0.36
309.63	0.36
310.094	0.36
310.557	0.36
311.021	0.36
311.485	0.35
311.948	0.35
312.412	0.35
312.876	0.35
313.339	0.35
313.803	0.35
314.266	0.35
314.73	0.35
315.193	0.35
315.657	0.35
316.12	0.34
316.584	0.34
317.047	0.34
317.51	0.34
317.973	0.34
318.437	0.34
318.9	0.34
319.363	0.34
319.826	0.34
320.29	0.33
320.753	0.33
321.216	0.33
321.679	0.33
322.142	0.33
322.605	0.33
323.068	0.33
323.531	0.33
323.994	0.33
324.457	0.32
324.92	0.32
325.382	0.32
325.845	0.32
326.308	0.32
326.771	0.32
327.233	0.32
327.696	0.32
328.159	0.32
328.622	0.32
329.084	0.32
329.547	0.31
330.009	0.31
330.472	0.31
330.934	0.31
331.397	0.31
331.859	0.31
332.322	0.31
332.784	0.31
333.246	0.31
333.709	0.31
334.171	0.3
334.633	0.3
335.096	0.3
335.558	0.3
336.02	0.3
336.482	0.3
336.944	0.3
337.406	0.3
337.868	0.3
338.331	0.3
338.793	0.3
339.255	0.3
339.717	0.29
340.178	0.29
340.64	0.29
341.102	0.29
341.564	0.29
342.026	0.29
342.488	0.29
342.949	0.29
343.411	0.29
343.873	0.29
344.335	0.29
344.796	0.29
345.258	0.29
345.719	0.28
346.181	0.28
346.643	0.28
347.104	0.28
347.566	0.28
348.027	0.28
348.488	0.28
348.95	0.28
349.411	0.28
349.873	0.28
350.334	0.28
350.795	0.27
351.256	0.27
351.718	0.27
352.179	0.27
352.64	0.27
353.101	0.27
353.562	0.27
354.023	0.27
354.484	0.26
354.945	0.26
355.406	0.26
355.867	0.26
356.328	0.26
356.789	0.26
357.25	0.26
357.711	0.26
358.172	0.26
358.633	0.26
359.093	0.26
359.554	0.26
360.015	0.26
360.476	0.26
360.936	0.26
361.397	0.27
361.858	0.27
362.318	0.27
362.779	0.27
363.239	0.27
363.7	0.27
364.16	0.26
364.621	0.26
365.081	0.26
365.541	0.26
366.002	0.26
366.462	0.26
366.922	0.26
367.383	0.26
367.843	0.26
368.303	0.26
368.763	0.26
369.223	0.26
369.684	0.26
370.144	0.26
370.604	0.26
371.064	0.26
371.524	0.26
371.984	0.25
372.444	0.25
372.904	0.25
373.363	0.25
373.823	0.25
374.283	0.25
374.743	0.25
375.203	0.25
375.663	0.25
376.122	0.25
376.582	0.25
377.042	0.25
377.501	0.25
377.961	0.25
378.42	0.26
378.88	0.26
379.34	0.26
379.799	0.26
380.259	0.26
380.718	0.26
381.177	0.25
381.637	0.25
382.096	0.25
382.555	0.25
383.015	0.25
383.474	0.25
383.933	0.25
384.393	0.25
384.852	0.25
385.311	0.25
385.77	0.25
386.229	0.25
386.688	0.25
387.147	0.25
387.606	0.25
388.065	0.25
388.524	0.25
388.983	0.25
389.442	0.25
389.901	0.25
390.36	0.25
390.819	0.25
391.277	0.25
391.736	0.25
392.195	0.25
392.654	0.25
393.112	0.25
393.571	0.25
394.03	0.25
394.488	0.25
394.947	0.25
395.405	0.25
395.864	0.25
396.322	0.25
396.781	0.25
397.239	0.25
397.698	0.25
398.156	0.25
398.614	0.25
399.073	0.25
399.531	0.25
399.989	0.25
400.447	0.25
400.905	0.25
401.364	0.24
401.822	0.24
402.28	0.24
402.738	0.24
403.196	0.24
403.654	0.24
404.112	0.24
404.57	0.24
405.028	0.24
405.486	0.24
405.944	0.24
406.402	0.24
406.859	0.24
407.317	0.24
407.775	0.24
408.233	0.24
408.691	0.23
409.148	0.23
409.606	0.23
410.064	0.23
410.521	0.23
410.979	0.23
411.436	0.23
411.894	0.23
412.351	0.23
412.809	0.23
413.266	0.23
413.724	0.23
414.181	0.23
414.638	0.23
415.096	0.23
415.553	0.23
416.01	0.23
416.467	0.23
416.925	0.23
417.382	0.23
417.839	0.23
418.296	0.23
418.753	0.23
419.21	0.23
419.667	0.23
420.124	0.23
420.581	0.23
421.038	0.23
421.495	0.23
421.952	0.23
422.409	0.23
422.866	0.23
423.322	0.23
423.779	0.23
424.236	0.23
424.693	0.23
425.149	0.23
425.606	0.23
426.063	0.23
426.519	0.23
426.976	0.23
427.433	0.23
427.889	0.23
428.346	0.23
428.802	0.23
429.258	0.23
429.715	0.23
430.171	0.23
430.628	0.23
431.084	0.23
431.54	0.23
431.997	0.23
432.453	0.23
432.909	0.23
433.365	0.23
433.821	0.23
434.277	0.22
434.734	0.22
435.19	0.22
435.646	0.22
436.102	0.22
436.558	0.23
437.014	0.23
437.47	0.22
437.925	0.22
438.381	0.22
438.837	0.22
439.293	0.22
439.749	0.22
440.205	0.22
440.66	0.22
441.116	0.22
441.572	0.22
442.027	0.22
442.483	0.22
442.939	0.22
443.394	0.22
443.85	0.22
444.305	0.22
444.761	0.22
445.216	0.22
445.672	0.22
446.127	0.22
446.582	0.22
447.038	0.22
447.493	0.22
447.948	0.22
448.403	0.22
448.859	0.22
449.314	0.22
449.769	0.22
450.224	0.22
450.679	0.22
451.134	0.22
451.589	0.22
452.044	0.22
452.499	0.22
452.954	0.22
453.409	0.22
453.864	0.22
454.319	0.22
454.774	0.21
455.229	0.21
455.684	0.21
456.138	0.21
456.593	0.21
457.048	0.21
457.503	0.21
457.957	0.21
458.412	0.21
458.866	0.21
459.321	0.21
459.776	0.21
460.23	0.21
460.685	0.21
461.139	0.21
461.593	0.21
462.048	0.21
462.502	0.21
462.957	0.21
463.411	0.21
463.865	0.21
464.319	0.21
464.774	0.21
465.228	0.21
465.682	0.21
466.136	0.21
466.59	0.21
467.044	0.21
467.499	0.21
467.953	0.21
468.407	0.21
468.861	0.2
469.315	0.2
469.768	0.2
470.222	0.2
470.676	0.2
471.13	0.2
471.584	0.2
472.038	0.2
472.491	0.2
472.945	0.2
473.399	0.2
473.852	0.21
474.306	0.21
474.76	0.21
475.213	0.21
475.667	0.21
476.12	0.21
476.574	0.21
477.027	0.21
477.481	0.21
477.934	0.21
478.388	0.21
478.841	0.21
479.294	0.21
479.748	0.21
480.201	0.22
480.654	0.22
481.107	0.22
481.561	0.22
482.014	0.22
482.467	0.22
482.92	0.23
483.373	0.23
483.826	0.23
484.279	0.24
484.732	0.24
485.185	0.24
485.638	0.25
486.091	0.25
486.544	0.25
486.997	0.25
487.449	0.25
487.902	0.25
488.355	0.24
488.808	0.24
489.26	0.24
489.713	0.24
490.166	0.23
490.618	0.23
491.071	0.23
491.523	0.23
491.976	0.23
492.429	0.24
492.881	0.24
493.333	0.24
493.786	0.24
494.238	0.24
494.691	0.24
495.143	0.25
495.595	0.25
496.048	0.25
496.5	0.25
496.952	0.25
497.404	0.25
497.856	0.25
498.309	0.25
498.761	0.25
499.213	0.25
499.665	0.25
500.117	0.25
500.569	0.26
501.021	0.26
501.473	0.26
501.925	0.26
502.377	0.26
502.828	0.27
503.28	0.27
503.732	0.27
504.184	0.27
504.636	0.27
505.087	0.27
505.539	0.27
505.991	0.27
506.442	0.27
506.894	0.27
507.345	0.27
507.797	0.27
508.249	0.27
508.7	0.27
509.151	0.27
509.603	0.27
510.054	0.27
510.506	0.27
510.957	0.27
511.408	0.27
511.86	0.27
512.311	0.27
512.762	0.27
513.213	0.27
513.665	0.27
514.116	0.27
514.567	0.27
515.018	0.27
515.469	0.26
515.92	0.26
516.371	0.26
516.822	0.26
517.273	0.26
517.724	0.26
518.175	0.26
518.626	0.26
519.076	0.26
519.527	0.26
519.978	0.26
520.429	0.26
520.88	0.25
521.33	0.25
521.781	0.25
522.232	0.24
522.682	0.24
523.133	0.24
523.583	0.23
524.034	0.23
524.484	0.23
524.935	0.23
525.385	0.24
525.836	0.24
526.286	0.24
526.736	0.25
527.187	0.25
527.637	0.26
528.087	0.26
528.538	0.26
528.988	0.27
529.438	0.27
529.888	0.27
530.338	0.27
530.788	0.27
531.238	0.27
531.688	0.27
532.139	0.27
532.589	0.27
533.038	0.28
533.488	0.28
533.938	0.28
534.388	0.28
534.838	0.28
535.288	0.27
535.738	0.28
536.187	0.27
536.637	0.28
537.087	0.28
537.537	0.27
537.986	0.27
538.436	0.27
538.885	0.27
539.335	0.27
539.785	0.27
540.234	0.27
540.684	0.27
541.133	0.27
541.582	0.27
542.032	0.27
542.481	0.26
542.931	0.26
543.38	0.26
543.829	0.26
544.278	0.26
544.728	0.26
545.177	0.26
545.626	0.26
546.075	0.26
546.524	0.26
546.973	0.25
547.422	0.25
547.871	0.25
548.32	0.24
548.769	0.24
549.218	0.24
549.667	0.23
550.116	0.23
550.565	0.23
551.014	0.22
551.463	0.22
551.911	0.22
552.36	0.22
552.809	0.22
553.258	0.21
553.706	0.21
554.155	0.21
554.603	0.21
555.052	0.21
555.501	0.2
555.949	0.2
556.398	0.2
556.846	0.19
557.294	0.19
557.743	0.19
558.191	0.18
558.64	0.18
559.088	0.18
559.536	0.18
559.985	0.18
560.433	0.18
560.881	0.18
561.329	0.18
561.777	0.18
562.225	0.18
562.674	0.17
563.122	0.17
563.57	0.17
564.018	0.17
564.466	0.16
564.914	0.16
565.362	0.16
565.809	0.16
566.257	0.16
566.705	0.15
567.153	0.16
567.601	0.16
568.048	0.16
568.496	0.16
568.944	0.16
569.392	0.17
569.839	0.17
570.287	0.17
570.734	0.17
571.182	0.17
571.63	0.17
572.077	0.17
572.525	0.17
572.972	0.17
573.419	0.17
573.867	0.17
574.314	0.17
574.761	0.17
575.209	0.17
575.656	0.17
576.103	0.17
576.551	0.17
576.998	0.17
577.445	0.17
577.892	0.17
578.339	0.16
578.786	0.16
579.233	0.16
579.68	0.16
580.127	0.16
580.574	0.16
581.021	0.16
581.468	0.16
581.915	0.15
582.362	0.15
582.809	0.15
583.255	0.15
583.702	0.15
584.149	0.15
584.596	0.15
585.042	0.14
585.489	0.14
585.936	0.14
586.382	0.14
586.829	0.14
587.275	0.14
587.722	0.14
588.168	0.13
588.615	0.13
589.061	0.13
589.508	0.13
589.954	0.12
590.4	0.12
590.847	0.12
591.293	0.12
591.739	0.12
592.185	0.12
592.632	0.12
593.078	0.12
593.524	0.12
593.97	0.12
594.416	0.12
594.862	0.12
595.308	0.12
595.754	0.12
596.2	0.11
596.646	0.11
597.092	0.11
597.538	0.12
597.984	0.12
598.43	0.12
598.876	0.12
599.321	0.12
599.767	0.12
600.213	0.12
600.659	0.12
601.104	0.12
601.55	0.11
601.995	0.11
602.441	0.11
602.887	0.11
603.332	0.11
603.778	0.11
604.223	0.11
604.668	0.11
605.114	0.11
605.559	0.11
606.005	0.12
606.45	0.12
606.895	0.11
607.341	0.11
607.786	0.11
608.231	0.11
608.676	0.11
609.121	0.11
609.566	0.11
610.012	0.11
610.457	0.11
610.902	0.11
611.347	0.11
611.792	0.11
612.237	0.12
612.682	0.12
613.127	0.12
613.571	0.12
614.016	0.12
614.461	0.11
614.906	0.11
615.351	0.11
615.795	0.11
616.24	0.11
616.685	0.11
617.129	0.11
617.574	0.11
618.019	0.11
618.463	0.11
618.908	0.1
619.352	0.1
619.797	0.11
620.241	0.11
620.686	0.11
621.13	0.11
621.574	0.11
622.019	0.11
622.463	0.11
622.907	0.11
623.352	0.11
623.796	0.12
624.24	0.12
624.684	0.12
625.128	0.12
625.572	0.12
626.016	0.12
626.461	0.12
626.905	0.12
627.349	0.12
627.793	0.12
628.236	0.12
628.68	0.12
629.124	0.12
629.568	0.12
630.012	0.12
630.456	0.12
630.9	0.12
631.343	0.12
631.787	0.12
632.231	0.12
632.674	0.12
633.118	0.12
633.562	0.12
634.005	0.12
634.449	0.13
634.892	0.13
635.336	0.13
635.779	0.13
636.223	0.13
636.666	0.13
637.109	0.14
637.553	0.14
637.996	0.14
638.439	0.14
638.883	0.14
639.326	0.14
639.769	0.15
640.212	0.15
640.655	0.15
641.099	0.15
641.542	0.15
641.985	0.16
642.428	0.16
642.871	0.16
643.314	0.17
643.757	0.17
644.2	0.17
644.643	0.17
645.085	0.18
645.528	0.18
645.971	0.18
646.414	0.19
646.857	0.19
647.299	0.2
647.742	0.2
648.185	0.2
648.627	0.21
649.07	0.21
649.513	0.21
649.955	0.22
650.398	0.22
650.84	0.22
651.283	0.22
651.725	0.23
652.168	0.23
652.61	0.23
653.052	0.24
653.495	0.24
653.937	0.19
654.379	0.17
654.821	0.18
655.264	0.18
655.706	0.18
656.148	0.18
656.59	0.19
657.032	0.19
657.474	0.19
657.916	0.19
658.358	0.19
658.8	0.24
659.242	0.29
659.684	0.29
660.126	0.29
660.568	0.29
661.01	0.29
661.452	0.29
661.894	0.3
662.335	0.3
662.777	0.3
663.219	0.31
663.661	0.31
664.102	0.31
664.544	0.32
664.985	0.32
665.427	0.32
665.869	0.33
666.31	0.33
666.752	0.33
667.193	0.34
667.634	0.34
668.076	0.34
668.517	0.35
668.959	0.35
669.4	0.35
669.841	0.36
670.282	0.36
670.724	0.37
671.165	0.37
671.606	0.37
672.047	0.37
672.488	0.37
672.929	0.37
673.37	0.38
673.811	0.38
674.252	0.38
674.693	0.38
675.134	0.38
675.575	0.38
676.016	0.38
676.457	0.38
676.898	0.39
677.339	0.39
677.78	0.39
678.22	0.4
678.661	0.4
679.102	0.4
679.542	0.4
679.983	0.41
680.424	0.41
680.864	0.41
681.305	0.41
681.745	0.41
682.186	0.41
682.626	0.41
683.067	0.41
683.507	0.42
683.948	0.42
684.388	0.42
684.828	0.42
685.269	0.42
685.709	0.42
686.149	0.43
686.589	0.42
687.029	0.42
687.47	0.42
687.91	0.42
688.35	0.42
688.79	0.42
689.23	0.42
689.67	0.42
690.11	0.42
690.55	0.42
690.99	0.42
691.43	0.42
691.87	0.42
692.31	0.42
692.749	0.42
693.189	0.42
693.629	0.42
694.069	0.42
694.508	0.42
694.948	0.42
695.388	0.42
695.827	0.42
696.267	0.42
696.706	0.42
697.146	0.41
697.586	0.41
698.025	0.41
698.464	0.41
698.904	0.41
699.343	0.41
699.783	0.4
700.222	0.4
700.661	0.4
701.101	0.4
701.54	0.4
701.979	0.39
702.418	0.39
702.857	0.39
703.297	0.39
703.736	0.39
704.175	0.38
704.614	0.38
705.053	0.38
705.492	0.38
705.931	0.38
706.37	0.38
706.809	0.38
707.248	0.37
707.687	0.37
708.125	0.37
708.564	0.37
709.003	0.37
709.442	0.36
709.88	0.36
710.319	0.35
710.758	0.35
711.196	0.35
711.635	0.34
712.074	0.34
712.512	0.34
712.951	0.34
713.389	0.33
713.828	0.33
714.266	0.33
714.705	0.32
715.143	0.32
715.581	0.32
716.02	0.31
716.458	0.31
716.896	0.31
717.334	0.3
717.773	0.3
718.211	0.29
718.649	0.29
719.087	0.29
719.525	0.28
719.963	0.28
720.401	0.28
720.839	0.28
721.277	0.27
721.715	0.27
722.153	0.27
722.591	0.26
723.029	0.26
723.467	0.26
723.905	0.26
724.342	0.25
724.78	0.25
725.218	0.25
725.656	0.24
726.093	0.24
726.531	0.24
726.969	0.24
727.406	0.24
727.844	0.23
728.281	0.23
728.719	0.23
729.156	0.23
729.594	0.23
730.031	0.23
730.469	0.22
730.906	0.22
731.343	0.22
731.781	0.22
732.218	0.21
732.655	0.21
733.092	0.21
733.53	0.2
733.967	0.2
734.404	0.2
734.841	0.19
735.278	0.19
735.715	0.19
736.152	0.18
736.589	0.18
737.026	0.18
737.463	0.18
737.9	0.17
738.337	0.17
738.774	0.17
739.211	0.16
739.647	0.16
740.084	0.16
740.521	0.15
740.958	0.15
741.394	0.14
741.831	0.14
742.268	0.13
742.704	0.13
743.141	0.12
743.577	0.12
744.014	0.12
744.45	0.12
744.887	0.11
745.323	0.11
745.76	0.11
746.196	0.11
746.632	0.11
747.069	0.11
747.505	0.11
747.941	0.1
748.378	0.1
748.814	0.1
749.25	0.1
749.686	0.1
750.122	0.1
750.558	0.1
750.994	0.1
751.43	0.1
751.866	0.1
752.302	0.1
752.738	0.1
753.174	0.09
753.61	0.09
754.046	0.09
754.482	0.09
754.918	0.09
755.354	0.09
755.789	0.09
756.225	0.09
756.661	0.09
757.096	0.09
757.532	0.09
757.968	0.09
758.403	0.09
758.839	0.09
759.274	0.08
759.71	0.08
760.145	0.08
760.581	0.07
761.016	0.07
761.452	0.07
761.887	0.07
762.322	0.06
762.758	0.06
763.193	0.06
763.628	0.06
764.063	0.05
764.499	0.05
764.934	0.05
765.369	0.04
765.804	0.04
766.239	0.04
766.674	0.04
767.109	0.04
767.544	0.03
767.979	0.03
768.414	0.03
768.849	0.03
769.284	0.03
769.719	0.02
770.154	0.02
770.588	0.02
771.023	0.02
771.458	0.01
771.893	0.01
772.327	0.01
772.762	0
773.197	0
773.631	-0
774.066	-0.01
774.5	-0.01
774.935	-0.01
775.369	-0.02
775.804	-0.02
776.238	-0.03
776.673	-0.03
777.107	-0.04
777.541	-0.04
777.976	-0.05
778.41	-0.06
778.844	-0.06
779.279	-0.06
779.713	-0.06
780.147	-0.06
780.581	-0.07
781.015	-0.07
781.449	-0.07
781.883	-0.07
782.317	-0.07
782.751	-0.07
783.185	-0.06
783.619	-0.06
784.053	-0.07
784.487	-0.07
784.921	-0.07
785.355	-0.07
785.789	-0.07
786.223	-0.07
786.656	-0.07
787.09	-0.06
787.524	-0.06
787.957	-0.06
788.391	-0.06
788.825	-0.06
789.258	-0.06
789.692	-0.06
790.125	-0.06
790.559	-0.06
790.992	-0.06
791.426	-0.06
791.859	-0.06
792.293	-0.05
792.726	-0.05
793.159	-0.04
793.593	-0.04
794.026	-0.04
794.459	-0.05
794.892	-0.05
795.326	-0.05
795.759	-0.05
796.192	-0.05
796.625	-0.06
797.058	-0.07
797.491	-0.08
797.924	-0.08
798.357	-0.08
798.79	-0.08
799.223	-0.08
799.656	-0.08
800.089	-0.08
800.522	-0.08
800.955	-0.08
801.387	-0.08
801.82	-0.08
802.253	-0.09
802.686	-0.09
803.118	-0.09
803.551	-0.09
803.984	-0.08
804.416	-0.08
804.849	-0.07
805.281	-0.07
805.714	-0.07
806.146	-0.07
806.579	-0.07
807.011	-0.07
807.444	-0.07
807.876	-0.07
808.308	-0.07
808.741	-0.08
809.173	-0.08
809.605	-0.08
810.037	-0.09
810.47	-0.09
810.902	-0.09
811.334	-0.09
811.766	-0.09
812.198	-0.08
812.63	-0.08
813.062	-0.08
813.494	-0.08
813.926	-0.08
814.358	-0.08
814.79	-0.08
815.222	-0.08
815.654	-0.07
816.086	-0.07
816.518	-0.08
816.949	-0.08
817.381	-0.08
817.813	-0.08
818.245	-0.08
818.676	-0.07
819.108	-0.07
819.54	-0.07
819.971	-0.07
820.403	-0.08
820.834	-0.08
821.266	-0.08
821.697	-0.08
822.129	-0.08
822.56	-0.08
822.991	-0.08
823.423	-0.08
823.854	-0.08
824.286	-0.08
824.717	-0.07
825.148	-0.07
825.579	-0.06
826.01	-0.05
826.442	-0.05
826.873	-0.04
827.304	-0.03
827.735	-0.03
828.166	-0.02
828.597	-0.01
829.028	-0.01
829.459	-0.01
829.89	-0
830.321	-0
830.752	0
831.183	0.01
831.613	0.01
832.044	0.01
832.475	0.01
832.906	0.01
833.336	0.02
833.767	0.02
834.198	0.02
834.628	0.02
835.059	0.02
835.49	0.02
835.92	0.02
836.351	0.03
836.781	0.03
837.212	0.03
837.642	0.03
838.072	0.03
838.503	0.03
838.933	0.03
839.364	0.03
839.794	0.03
840.224	0.03
840.654	0.03
841.085	0.03
841.515	0.03
841.945	0.04
842.375	0.04
842.805	0.04
843.235	0.04
843.665	0.04
844.095	0.04
844.525	0.04
844.955	0.04
845.385	0.04
845.815	0.04
846.245	0.04
846.675	0.04
847.105	0.04
847.534	0.04
847.964	0.04
848.394	0.05
848.824	0.05
849.253	0.05
849.683	0.05
850.112	0.05
850.542	0.05
850.972	0.05
851.401	0.05
851.831	0.05
852.26	0.05
852.69	0.05
853.119	0.05
853.548	0.05
853.978	0.05
854.407	0.05
854.836	0.05
855.266	0.05
855.695	0.05
856.124	0.06
856.553	0.06
856.983	0.06
857.412	0.06
857.841	0.06
858.27	0.06
858.699	0.06
859.128	0.06
859.557	0.06
859.986	0.06
860.415	0.06
860.844	0.06
861.273	0.06
861.702	0.06
862.13	0.06
862.559	0.06
862.988	0.06
863.417	0.06
863.845	0.06
864.274	0.06
864.703	0.06
865.131	0.06
865.56	0.06
865.989	0.07
866.417	0.07
866.846	0.07
867.274	0.07
867.703	0.07
868.131	0.07
868.559	0.07
868.988	0.07
869.416	0.07
869.844	0.07
870.273	0.07
870.701	0.07
871.129	0.07
871.557	0.07
871.986	0.07
872.414	0.07
872.842	0.07
873.27	0.07
873.698	0.07
874.126	0.07
874.554	0.07
874.982	0.07
875.41	0.07
875.838	0.07
876.266	0.07
876.694	0.07
877.122	0.07
877.549	0.07
877.977	0.07
878.405	0.07
878.833	0.08
879.26	0.08
879.688	0.08
880.116	0.08
880.543	0.07
880.971	0.07
881.399	0.07
881.826	0.07
882.254	0.07
882.681	0.07
883.109	0.07
883.536	0.07
883.963	0.07
884.391	0.07
884.818	0.07
885.245	0.07
885.673	0.07
886.1	0.07
886.527	0.07
886.954	0.07
887.381	0.07
887.809	0.07
888.236	0.07
888.663	0.07
889.09	0.07
889.517	0.07
889.944	0.07
890.371	0.07
890.798	0.07
891.225	0.07
891.652	0.07
892.078	0.07
892.505	0.07
892.932	0.07
893.359	0.07
893.786	0.07
894.212	0.07
894.639	0.07
895.066	0.07
895.492	0.07
895.919	0.07
896.346	0.07
896.772	0.07
897.199	0.07
897.625	0.07
898.052	0.07
898.478	0.07
898.904	0.07
899.331	0.07
899.757	0.07
900.183	0.07
900.61	0.07
901.036	0.07
901.462	0.07
901.888	0.07
902.315	0.07
902.741	0.07
903.167	0.07
903.593	0.07
904.019	0.07
904.445	0.07
904.871	0.07
905.297	0.07
905.723	0.07
906.149	0.07
906.575	0.07
907.001	0.07
907.427	0.07
907.852	0.07
908.278	0.07
908.704	0.07
909.13	0.07
909.555	0.08
909.981	0.08
910.407	0.08
910.832	0.08
911.258	0.08
911.684	0.08
912.109	0.08
912.535	0.08
912.96	0.08
913.386	0.08
913.811	0.08
914.236	0.08
914.662	0.08
915.087	0.07
915.512	0.07
915.938	0.07
916.363	0.07
916.788	0.07
917.213	0.07
917.639	0.08
918.064	0.08
918.489	0.08
918.914	0.08
919.339	0.08
919.764	0.08
920.189	0.08
920.614	0.08
921.039	0.08
921.464	0.08
921.889	0.08
922.314	0.08
922.738	0.08
923.163	0.08
923.588	0.08
924.013	0.08
924.437	0.08
924.862	0.08
925.287	0.08
925.711	0.08
926.136	0.08
926.561	0.08
926.985	0.08
927.41	0.08
927.834	0.08
928.259	0.08
928.683	0.08
929.108	0.08
929.532	0.08
929.956	0.08
930.381	0.08
930.805	0.08
931.229	0.08
931.653	0.08
932.078	0.08
932.502	0.08
932.926	0.09
933.35	0.09
933.774	0.09
934.198	0.09
934.622	0.09
935.046	0.09
935.47	0.09
935.894	0.09
936.318	0.09
936.742	0.09
937.166	0.09
937.59	0.09
938.014	0.09
938.437	0.09
938.861	0.09
939.285	0.09
939.709	0.09
940.132	0.09
940.556	0.09
940.98	0.09
941.403	0.09
941.827	0.09
942.25	0.09
942.674	0.09
943.097	0.09
943.521	0.09
943.944	0.09
944.368	0.09
944.791	0.09
945.214	0.09
945.638	0.09
946.061	0.09
946.484	0.09
946.907	0.09
947.331	0.09
947.754	0.09
948.177	0.09
948.6	0.09
949.023	0.09
949.446	0.09
949.869	0.09
950.292	0.09
950.715	0.09
951.138	0.09
951.561	0.09
951.984	0.09
952.407	0.09
952.83	0.09
953.252	0.09
953.675	0.09
954.098	0.09
954.521	0.09
954.943	0.09
955.366	0.09
955.789	0.09
956.211	0.09
956.634	0.09
957.056	0.09
957.479	0.09
957.902	0.09
958.324	0.09
958.746	0.09
959.169	0.09
959.591	0.09
960.014	0.09
960.436	0.09
960.858	0.09
961.281	0.09
961.703	0.09
962.125	0.09
962.547	0.09
962.969	0.09
963.391	0.09
963.814	0.09
964.236	0.09
964.658	0.09
965.08	0.09
965.502	0.09
965.924	0.09
966.346	0.09
966.768	0.09
967.189	0.09
967.611	0.09
968.033	0.09
968.455	0.09
968.877	0.09
969.298	0.09
969.72	0.09
970.142	0.09
970.563	0.09
970.985	0.09
971.407	0.09
971.828	0.09
972.25	0.09
972.671	0.09
973.093	0.09
973.514	0.09
973.936	0.09
974.357	0.09
974.778	0.09
975.2	0.09
975.621	0.09
976.042	0.09
976.464	0.09
976.885	0.09
977.306	0.09
977.727	0.09
978.148	0.09
978.57	0.09
978.991	0.09
979.412	0.09
979.833	0.09
980.254	0.09
980.675	0.09
981.096	0.09
981.517	0.09
981.937	0.09
982.358	0.09
982.779	0.09
983.2	0.09
983.621	0.09
984.042	0.09
984.462	0.09
984.883	0.09
985.304	0.09
985.724	0.09
986.145	0.09
986.565	0.09
986.986	0.09
987.407	0.09
987.827	0.09
988.248	0.09
988.668	0.09
989.088	0.09
989.509	0.09
989.929	0.09
990.35	0.09
990.77	0.09
991.19	0.09
991.61	0.09
992.031	0.09
992.451	0.09
992.871	0.09
993.291	0.09
993.711	0.09
994.131	0.09
994.551	0.09
994.971	0.09
995.391	0.09
995.811	0.09
996.231	0.09
996.651	0.09
997.071	0.09
997.491	0.09
997.911	0.09
998.331	0.09
998.75	0.09
999.17	0.09
999.59	0.09
1000.009	0.09
1000.429	0.09
1000.849	0.09
1001.268	0.09
1001.688	0.09
1002.107	0.09
1002.527	0.09
1002.946	0.09
1003.366	0.09
1003.785	0.09
1004.205	0.09
1004.624	0.09
1005.044	0.09
1005.463	0.09
1005.882	0.09
1006.301	0.09
1006.721	0.09
1007.14	0.09
1007.559	0.09
1007.978	0.09
1008.397	0.09
1008.816	0.09
1009.235	0.09
1009.655	0.09
1010.074	0.09
1010.492	0.09
1010.911	0.09
1011.33	0.09
1011.749	0.09
1012.168	0.09
1012.587	0.09
1013.006	0.09
1013.425	0.09
1013.843	0.09
1014.262	0.09
1014.681	0.09
1015.099	0.09
1015.518	0.09
1015.937	0.09
1016.355	0.09
1016.774	0.09
1017.192	0.09
1017.611	0.09
1018.029	0.09
1018.448	0.09
1018.866	0.09
1019.285	0.09
1019.703	0.09
1020.121	0.09
1020.54	0.09
1020.958	0.1
1021.376	0.1
1021.794	0.1
1022.213	0.1
1022.631	0.1
1023.049	0.1
1023.467	0.1
1023.885	0.1
1024.303	0.1
1024.721	0.1
1025.139	0.1
1025.557	0.1
1025.975	0.1
1026.393	0.1
1026.811	0.1
1027.229	0.1
1027.647	0.1
1028.065	0.1
1028.482	0.1
1028.9	0.1
1029.318	0.1
1029.735	0.1
1030.153	0.1
1030.571	0.1
1030.988	0.1
1031.406	0.1
1031.823	0.1
1032.241	0.1
1032.659	0.1
1033.076	0.1
1033.493	0.1
1033.911	0.1
1034.328	0.1
1034.746	0.11
1035.163	0.11
1035.58	0.11
1035.997	0.11
1036.415	0.11
1036.832	0.11
1037.249	0.11
1037.666	0.11
1038.083	0.11
1038.501	0.11
1038.918	0.12
1039.335	0.12
1039.752	0.12
1040.169	0.12
1040.586	0.12
1041.003	0.12
1041.419	0.12
1041.836	0.12
1042.253	0.12
1042.67	0.12
1043.087	0.12
1043.504	0.12
1043.92	0.12
1044.337	0.12
1044.754	0.12
1045.17	0.12
1045.587	0.12
1046.004	0.13
1046.42	0.13
1046.837	0.13
1047.253	0.13
1047.67	0.13
1048.086	0.13
1048.503	0.13
1048.919	0.13
1049.335	0.13
1049.752	0.13
1050.168	0.13
1050.584	0.13
1051.001	0.13
1051.417	0.13
1051.833	0.13
1052.249	0.13
1052.665	0.13
1053.081	0.14
1053.497	0.14
1053.914	0.14
1054.33	0.14
1054.746	0.14
1055.162	0.14
1055.578	0.14
1055.993	0.14
1056.409	0.14
1056.825	0.14
1057.241	0.14
1057.657	0.15
1058.073	0.15
1058.488	0.15
1058.904	0.15
1059.32	0.15
1059.736	0.16
1060.151	0.16
1060.567	0.16
1060.982	0.16
1061.398	0.16
1061.813	0.16
1062.229	0.16
1062.644	0.17
1063.06	0.17
1063.475	0.17
1063.891	0.17
1064.306	0.17
1064.721	0.17
1065.137	0.17
1065.552	0.18
1065.967	0.18
1066.382	0.18
1066.798	0.18
1067.213	0.18
1067.628	0.19
1068.043	0.19
1068.458	0.19
1068.873	0.19
1069.288	0.19
1069.703	0.19
1070.118	0.2
1070.533	0.2
1070.948	0.2
1071.363	0.2
1071.778	0.21
1072.193	0.21
1072.607	0.22
1073.022	0.22
1073.437	0.22
1073.852	0.23
1074.266	0.23
1074.681	0.23
1075.096	0.24
1075.51	0.24
1075.925	0.24
1076.339	0.25
1076.754	0.25
1077.168	0.26
1077.583	0.26
1077.997	0.27
1078.412	0.27
1078.826	0.28
1079.24	0.28
1079.655	0.29
1080.069	0.29
1080.483	0.29
1080.897	0.3
1081.312	0.3
1081.726	0.3
1082.14	0.31
1082.554	0.31
1082.968	0.32
1083.382	0.33
1083.796	0.33
1084.21	0.34
1084.624	0.35
1085.038	0.35
1085.452	0.36
1085.866	0.37
1086.28	0.38
1086.694	0.39
1087.108	0.4
1087.521	0.41
1087.935	0.42
1088.349	0.43
1088.763	0.45
1089.176	0.47
1089.59	0.49
1090.004	0.51
1090.417	0.53
1090.831	0.56
1091.244	0.59
1091.658	0.62
1092.071	0.66
1092.485	0.7
1092.898	0.74
1093.312	0.8
1093.725	0.86
1094.138	0.93
1094.552	1.03
1094.965	1.17
1095.378	1.38
1095.791	1.86
1096.205	-0
1096.618	-0
1097.031	-0
1097.444	-0
1097.857	-0
1098.27	-0
1098.683	-0
1099.096	-0
1099.509	-0
1099.922	-0
1100.335	-0
1100.748	-0
1101.161	-0
1101.574	-0
1101.986	-0
1102.399	-0
1102.812	-0
1103.225	-0
1103.637	-0
1104.05	-0
1104.463	-0
1104.875	-0
1105.288	-0
1105.7	-0
1106.113	-0
1106.525	-0
1106.938	-0
1107.35	-0
1107.763	-0
1108.175	-0
1108.588	-0
1109	-0
1109.412	-0
1109.824	-0
1110.237	-0
1110.649	-0
1111.061	-0
