Data from redip-kinet-2-5a_Absorbance__0__00000.txt Node

Date: Fri Apr 12 13:45:30 CEST 2024
User: Laser008
Spectrometer: MAYP115816
Trigger mode: 0
Integration Time (sec): 2.000000E-1
Scans to average: 10
Electric dark correction enabled: true
Nonlinearity correction enabled: true
Boxcar width: 5
XAxis mode: Wavelengths
Number of Pixels in Spectrum: 2068
>>>>>Begin Spectral Data<<<<<
198.914	0.11
199.384	0.13
199.855	0.15
200.325	0.16
200.796	0.16
201.266	0.17
201.737	0.17
202.207	0.17
202.677	0.17
203.147	0.17
203.618	0.18
204.088	0.18
204.558	0.18
205.028	0.18
205.498	0.18
205.968	0.18
206.439	0.18
206.909	0.18
207.379	0.19
207.849	0.19
208.319	0.19
208.789	0.19
209.258	0.19
209.728	0.19
210.198	0.19
210.668	0.19
211.138	0.19
211.608	0.19
212.077	0.19
212.547	0.19
213.017	0.19
213.486	0.19
213.956	0.19
214.426	0.19
214.895	0.19
215.365	0.19
215.834	0.19
216.304	0.19
216.773	0.19
217.243	0.19
217.712	0.19
218.181	0.2
218.651	0.19
219.12	0.19
219.589	0.19
220.058	0.2
220.528	0.2
220.997	0.2
221.466	0.2
221.935	0.2
222.404	0.2
222.873	0.2
223.342	0.2
223.812	0.2
224.281	0.2
224.749	0.21
225.218	0.21
225.687	0.21
226.156	0.21
226.625	0.21
227.094	0.21
227.563	0.21
228.031	0.21
228.5	0.21
228.969	0.22
229.438	0.22
229.906	0.22
230.375	0.22
230.844	0.22
231.312	0.22
231.781	0.22
232.249	0.22
232.718	0.22
233.186	0.23
233.655	0.23
234.123	0.23
234.591	0.23
235.06	0.23
235.528	0.23
235.996	0.23
236.465	0.23
236.933	0.24
237.401	0.24
237.869	0.24
238.337	0.24
238.805	0.24
239.274	0.24
239.742	0.25
240.21	0.25
240.678	0.25
241.146	0.25
241.614	0.25
242.081	0.26
242.549	0.26
243.017	0.26
243.485	0.26
243.953	0.27
244.421	0.27
244.888	0.27
245.356	0.27
245.824	0.28
246.291	0.28
246.759	0.28
247.227	0.28
247.694	0.29
248.162	0.29
248.629	0.29
249.097	0.3
249.564	0.3
250.032	0.3
250.499	0.31
250.967	0.31
251.434	0.31
251.901	0.31
252.369	0.32
252.836	0.32
253.303	0.32
253.77	0.32
254.237	0.33
254.705	0.33
255.172	0.33
255.639	0.33
256.106	0.33
256.573	0.34
257.04	0.34
257.507	0.34
257.974	0.34
258.441	0.34
258.908	0.34
259.375	0.34
259.841	0.34
260.308	0.34
260.775	0.34
261.242	0.34
261.709	0.34
262.175	0.34
262.642	0.34
263.109	0.34
263.575	0.34
264.042	0.34
264.508	0.33
264.975	0.33
265.441	0.33
265.908	0.33
266.374	0.33
266.841	0.33
267.307	0.32
267.773	0.32
268.24	0.32
268.706	0.32
269.172	0.32
269.639	0.31
270.105	0.31
270.571	0.31
271.037	0.31
271.503	0.3
271.969	0.3
272.435	0.3
272.902	0.29
273.368	0.29
273.834	0.29
274.3	0.28
274.765	0.28
275.231	0.28
275.697	0.28
276.163	0.27
276.629	0.27
277.095	0.27
277.56	0.26
278.026	0.26
278.492	0.26
278.958	0.25
279.423	0.25
279.889	0.25
280.354	0.24
280.82	0.24
281.286	0.24
281.751	0.23
282.217	0.23
282.682	0.23
283.147	0.23
283.613	0.22
284.078	0.22
284.544	0.22
285.009	0.22
285.474	0.21
285.939	0.21
286.405	0.21
286.87	0.2
287.335	0.2
287.8	0.2
288.265	0.2
288.73	0.2
289.195	0.19
289.66	0.19
290.125	0.19
290.59	0.19
291.055	0.19
291.52	0.19
291.985	0.18
292.45	0.18
292.915	0.18
293.38	0.18
293.844	0.18
294.309	0.18
294.774	0.18
295.239	0.18
295.703	0.18
296.168	0.17
296.632	0.17
297.097	0.17
297.562	0.17
298.026	0.17
298.491	0.17
298.955	0.17
299.419	0.17
299.884	0.17
300.348	0.17
300.813	0.17
301.277	0.17
301.741	0.17
302.205	0.17
302.67	0.17
303.134	0.17
303.598	0.17
304.062	0.17
304.526	0.17
304.99	0.17
305.454	0.17
305.919	0.17
306.383	0.17
306.847	0.17
307.31	0.17
307.774	0.17
308.238	0.17
308.702	0.17
309.166	0.17
309.63	0.17
310.094	0.17
310.557	0.17
311.021	0.17
311.485	0.17
311.948	0.17
312.412	0.17
312.876	0.17
313.339	0.17
313.803	0.17
314.266	0.17
314.73	0.17
315.193	0.17
315.657	0.17
316.12	0.17
316.584	0.17
317.047	0.17
317.51	0.17
317.973	0.17
318.437	0.17
318.9	0.17
319.363	0.17
319.826	0.17
320.29	0.17
320.753	0.17
321.216	0.17
321.679	0.17
322.142	0.17
322.605	0.17
323.068	0.17
323.531	0.17
323.994	0.17
324.457	0.17
324.92	0.17
325.382	0.17
325.845	0.17
326.308	0.17
326.771	0.17
327.233	0.17
327.696	0.16
328.159	0.16
328.622	0.16
329.084	0.16
329.547	0.16
330.009	0.16
330.472	0.16
330.934	0.16
331.397	0.16
331.859	0.16
332.322	0.16
332.784	0.16
333.246	0.16
333.709	0.16
334.171	0.16
334.633	0.16
335.096	0.16
335.558	0.16
336.02	0.16
336.482	0.16
336.944	0.16
337.406	0.16
337.868	0.16
338.331	0.16
338.793	0.16
339.255	0.16
339.717	0.16
340.178	0.16
340.64	0.16
341.102	0.16
341.564	0.16
342.026	0.16
342.488	0.16
342.949	0.16
343.411	0.16
343.873	0.16
344.335	0.16
344.796	0.16
345.258	0.16
345.719	0.16
346.181	0.16
346.643	0.16
347.104	0.16
347.566	0.16
348.027	0.16
348.488	0.16
348.95	0.16
349.411	0.16
349.873	0.16
350.334	0.16
350.795	0.16
351.256	0.16
351.718	0.16
352.179	0.16
352.64	0.16
353.101	0.16
353.562	0.16
354.023	0.16
354.484	0.16
354.945	0.16
355.406	0.16
355.867	0.16
356.328	0.16
356.789	0.16
357.25	0.16
357.711	0.16
358.172	0.16
358.633	0.16
359.093	0.16
359.554	0.16
360.015	0.16
360.476	0.16
360.936	0.16
361.397	0.16
361.858	0.16
362.318	0.16
362.779	0.16
363.239	0.16
363.7	0.16
364.16	0.16
364.621	0.16
365.081	0.16
365.541	0.16
366.002	0.16
366.462	0.16
366.922	0.16
367.383	0.16
367.843	0.16
368.303	0.16
368.763	0.16
369.223	0.16
369.684	0.16
370.144	0.16
370.604	0.16
371.064	0.16
371.524	0.16
371.984	0.16
372.444	0.16
372.904	0.16
373.363	0.16
373.823	0.16
374.283	0.16
374.743	0.16
375.203	0.16
375.663	0.16
376.122	0.16
376.582	0.16
377.042	0.16
377.501	0.16
377.961	0.16
378.42	0.16
378.88	0.16
379.34	0.16
379.799	0.16
380.259	0.16
380.718	0.16
381.177	0.16
381.637	0.16
382.096	0.16
382.555	0.16
383.015	0.16
383.474	0.16
383.933	0.16
384.393	0.16
384.852	0.16
385.311	0.16
385.77	0.16
386.229	0.16
386.688	0.16
387.147	0.16
387.606	0.16
388.065	0.16
388.524	0.16
388.983	0.16
389.442	0.16
389.901	0.16
390.36	0.16
390.819	0.16
391.277	0.16
391.736	0.16
392.195	0.16
392.654	0.16
393.112	0.16
393.571	0.16
394.03	0.16
394.488	0.16
394.947	0.16
395.405	0.16
395.864	0.16
396.322	0.16
396.781	0.16
397.239	0.16
397.698	0.16
398.156	0.16
398.614	0.16
399.073	0.16
399.531	0.16
399.989	0.16
400.447	0.16
400.905	0.16
401.364	0.16
401.822	0.16
402.28	0.16
402.738	0.16
403.196	0.16
403.654	0.16
404.112	0.16
404.57	0.16
405.028	0.16
405.486	0.16
405.944	0.16
406.402	0.16
406.859	0.16
407.317	0.16
407.775	0.16
408.233	0.16
408.691	0.16
409.148	0.16
409.606	0.16
410.064	0.16
410.521	0.16
410.979	0.16
411.436	0.16
411.894	0.16
412.351	0.16
412.809	0.16
413.266	0.16
413.724	0.16
414.181	0.16
414.638	0.16
415.096	0.16
415.553	0.16
416.01	0.16
416.467	0.16
416.925	0.16
417.382	0.16
417.839	0.16
418.296	0.16
418.753	0.16
419.21	0.16
419.667	0.16
420.124	0.16
420.581	0.16
421.038	0.16
421.495	0.16
421.952	0.16
422.409	0.16
422.866	0.16
423.322	0.16
423.779	0.16
424.236	0.16
424.693	0.16
425.149	0.16
425.606	0.16
426.063	0.16
426.519	0.16
426.976	0.16
427.433	0.16
427.889	0.16
428.346	0.16
428.802	0.16
429.258	0.16
429.715	0.16
430.171	0.16
430.628	0.16
431.084	0.16
431.54	0.16
431.997	0.16
432.453	0.16
432.909	0.16
433.365	0.16
433.821	0.16
434.277	0.16
434.734	0.16
435.19	0.16
435.646	0.16
436.102	0.16
436.558	0.16
437.014	0.16
437.47	0.16
437.925	0.16
438.381	0.16
438.837	0.16
439.293	0.16
439.749	0.16
440.205	0.16
440.66	0.16
441.116	0.16
441.572	0.16
442.027	0.16
442.483	0.16
442.939	0.16
443.394	0.16
443.85	0.16
444.305	0.16
444.761	0.16
445.216	0.16
445.672	0.16
446.127	0.16
446.582	0.16
447.038	0.16
447.493	0.16
447.948	0.16
448.403	0.16
448.859	0.16
449.314	0.16
449.769	0.16
450.224	0.16
450.679	0.16
451.134	0.16
451.589	0.16
452.044	0.16
452.499	0.16
452.954	0.16
453.409	0.16
453.864	0.16
454.319	0.16
454.774	0.16
455.229	0.16
455.684	0.16
456.138	0.16
456.593	0.16
457.048	0.16
457.503	0.16
457.957	0.16
458.412	0.16
458.866	0.16
459.321	0.16
459.776	0.16
460.23	0.16
460.685	0.16
461.139	0.16
461.593	0.16
462.048	0.16
462.502	0.16
462.957	0.16
463.411	0.16
463.865	0.16
464.319	0.16
464.774	0.16
465.228	0.16
465.682	0.16
466.136	0.16
466.59	0.16
467.044	0.16
467.499	0.16
467.953	0.16
468.407	0.16
468.861	0.16
469.315	0.16
469.768	0.16
470.222	0.16
470.676	0.16
471.13	0.16
471.584	0.16
472.038	0.16
472.491	0.16
472.945	0.16
473.399	0.16
473.852	0.16
474.306	0.16
474.76	0.16
475.213	0.16
475.667	0.16
476.12	0.16
476.574	0.16
477.027	0.16
477.481	0.16
477.934	0.16
478.388	0.16
478.841	0.16
479.294	0.16
479.748	0.16
480.201	0.16
480.654	0.16
481.107	0.16
481.561	0.16
482.014	0.16
482.467	0.16
482.92	0.16
483.373	0.16
483.826	0.16
484.279	0.16
484.732	0.16
485.185	0.16
485.638	0.16
486.091	0.16
486.544	0.16
486.997	0.16
487.449	0.16
487.902	0.16
488.355	0.16
488.808	0.16
489.26	0.16
489.713	0.16
490.166	0.16
490.618	0.16
491.071	0.16
491.523	0.16
491.976	0.16
492.429	0.16
492.881	0.16
493.333	0.16
493.786	0.16
494.238	0.16
494.691	0.16
495.143	0.16
495.595	0.16
496.048	0.16
496.5	0.16
496.952	0.16
497.404	0.16
497.856	0.16
498.309	0.16
498.761	0.16
499.213	0.16
499.665	0.16
500.117	0.16
500.569	0.16
501.021	0.16
501.473	0.16
501.925	0.16
502.377	0.17
502.828	0.17
503.28	0.17
503.732	0.17
504.184	0.17
504.636	0.17
505.087	0.17
505.539	0.17
505.991	0.17
506.442	0.17
506.894	0.17
507.345	0.17
507.797	0.17
508.249	0.17
508.7	0.17
509.151	0.17
509.603	0.17
510.054	0.17
510.506	0.17
510.957	0.17
511.408	0.17
511.86	0.17
512.311	0.17
512.762	0.17
513.213	0.17
513.665	0.17
514.116	0.17
514.567	0.17
515.018	0.17
515.469	0.18
515.92	0.18
516.371	0.18
516.822	0.18
517.273	0.18
517.724	0.18
518.175	0.18
518.626	0.18
519.076	0.18
519.527	0.18
519.978	0.18
520.429	0.18
520.88	0.18
521.33	0.18
521.781	0.18
522.232	0.18
522.682	0.18
523.133	0.18
523.583	0.18
524.034	0.18
524.484	0.18
524.935	0.18
525.385	0.18
525.836	0.18
526.286	0.18
526.736	0.18
527.187	0.18
527.637	0.18
528.087	0.18
528.538	0.18
528.988	0.18
529.438	0.18
529.888	0.18
530.338	0.18
530.788	0.18
531.238	0.18
531.688	0.18
532.139	0.18
532.589	0.19
533.038	0.19
533.488	0.19
533.938	0.19
534.388	0.19
534.838	0.19
535.288	0.19
535.738	0.19
536.187	0.19
536.637	0.19
537.087	0.19
537.537	0.19
537.986	0.19
538.436	0.19
538.885	0.19
539.335	0.19
539.785	0.19
540.234	0.19
540.684	0.19
541.133	0.19
541.582	0.2
542.032	0.2
542.481	0.2
542.931	0.2
543.38	0.2
543.829	0.2
544.278	0.2
544.728	0.2
545.177	0.2
545.626	0.2
546.075	0.2
546.524	0.2
546.973	0.2
547.422	0.2
547.871	0.2
548.32	0.2
548.769	0.2
549.218	0.2
549.667	0.19
550.116	0.19
550.565	0.19
551.014	0.19
551.463	0.19
551.911	0.19
552.36	0.19
552.809	0.19
553.258	0.19
553.706	0.19
554.155	0.19
554.603	0.19
555.052	0.19
555.501	0.19
555.949	0.19
556.398	0.19
556.846	0.19
557.294	0.19
557.743	0.19
558.191	0.19
558.64	0.19
559.088	0.19
559.536	0.19
559.985	0.19
560.433	0.19
560.881	0.19
561.329	0.19
561.777	0.19
562.225	0.19
562.674	0.19
563.122	0.19
563.57	0.19
564.018	0.19
564.466	0.19
564.914	0.19
565.362	0.19
565.809	0.19
566.257	0.19
566.705	0.19
567.153	0.19
567.601	0.19
568.048	0.19
568.496	0.19
568.944	0.19
569.392	0.19
569.839	0.19
570.287	0.19
570.734	0.19
571.182	0.19
571.63	0.19
572.077	0.19
572.525	0.19
572.972	0.19
573.419	0.19
573.867	0.19
574.314	0.19
574.761	0.19
575.209	0.19
575.656	0.19
576.103	0.19
576.551	0.19
576.998	0.19
577.445	0.19
577.892	0.19
578.339	0.19
578.786	0.19
579.233	0.19
579.68	0.19
580.127	0.19
580.574	0.19
581.021	0.19
581.468	0.19
581.915	0.19
582.362	0.19
582.809	0.19
583.255	0.19
583.702	0.19
584.149	0.19
584.596	0.19
585.042	0.19
585.489	0.19
585.936	0.19
586.382	0.19
586.829	0.19
587.275	0.19
587.722	0.19
588.168	0.19
588.615	0.19
589.061	0.19
589.508	0.19
589.954	0.19
590.4	0.19
590.847	0.19
591.293	0.19
591.739	0.19
592.185	0.19
592.632	0.19
593.078	0.19
593.524	0.19
593.97	0.19
594.416	0.19
594.862	0.19
595.308	0.19
595.754	0.19
596.2	0.19
596.646	0.19
597.092	0.19
597.538	0.19
597.984	0.19
598.43	0.19
598.876	0.19
599.321	0.19
599.767	0.19
600.213	0.19
600.659	0.19
601.104	0.19
601.55	0.19
601.995	0.19
602.441	0.19
602.887	0.19
603.332	0.19
603.778	0.19
604.223	0.19
604.668	0.19
605.114	0.19
605.559	0.19
606.005	0.19
606.45	0.19
606.895	0.19
607.341	0.19
607.786	0.19
608.231	0.19
608.676	0.19
609.121	0.19
609.566	0.19
610.012	0.19
610.457	0.19
610.902	0.19
611.347	0.19
611.792	0.19
612.237	0.19
612.682	0.19
613.127	0.19
613.571	0.19
614.016	0.19
614.461	0.19
614.906	0.19
615.351	0.19
615.795	0.19
616.24	0.19
616.685	0.19
617.129	0.18
617.574	0.18
618.019	0.18
618.463	0.18
618.908	0.18
619.352	0.18
619.797	0.18
620.241	0.18
620.686	0.18
621.13	0.18
621.574	0.18
622.019	0.18
622.463	0.18
622.907	0.18
623.352	0.18
623.796	0.18
624.24	0.18
624.684	0.18
625.128	0.18
625.572	0.18
626.016	0.18
626.461	0.18
626.905	0.18
627.349	0.18
627.793	0.18
628.236	0.18
628.68	0.18
629.124	0.18
629.568	0.18
630.012	0.18
630.456	0.18
630.9	0.18
631.343	0.18
631.787	0.18
632.231	0.18
632.674	0.17
633.118	0.17
633.562	0.17
634.005	0.17
634.449	0.17
634.892	0.17
635.336	0.17
635.779	0.17
636.223	0.17
636.666	0.17
637.109	0.17
637.553	0.17
637.996	0.17
638.439	0.17
638.883	0.17
639.326	0.17
639.769	0.17
640.212	0.17
640.655	0.17
641.099	0.17
641.542	0.17
641.985	0.17
642.428	0.17
642.871	0.17
643.314	0.17
643.757	0.17
644.2	0.17
644.643	0.17
645.085	0.17
645.528	0.17
645.971	0.17
646.414	0.17
646.857	0.17
647.299	0.17
647.742	0.18
648.185	0.18
648.627	0.17
649.07	0.17
649.513	0.17
649.955	0.17
650.398	0.17
650.84	0.17
651.283	0.17
651.725	0.17
652.168	0.17
652.61	0.17
653.052	0.17
653.495	0.15
653.937	0.12
654.379	0.1
654.821	0.1
655.264	0.1
655.706	0.1
656.148	0.1
656.59	0.1
657.032	0.1
657.474	0.1
657.916	0.1
658.358	0.11
658.8	0.14
659.242	0.17
659.684	0.18
660.126	0.18
660.568	0.18
661.01	0.18
661.452	0.18
661.894	0.18
662.335	0.18
662.777	0.18
663.219	0.18
663.661	0.18
664.102	0.18
664.544	0.18
664.985	0.18
665.427	0.18
665.869	0.18
666.31	0.18
666.752	0.18
667.193	0.18
667.634	0.18
668.076	0.18
668.517	0.18
668.959	0.18
669.4	0.18
669.841	0.18
670.282	0.18
670.724	0.18
671.165	0.18
671.606	0.18
672.047	0.18
672.488	0.18
672.929	0.18
673.37	0.18
673.811	0.18
674.252	0.18
674.693	0.19
675.134	0.19
675.575	0.19
676.016	0.19
676.457	0.19
676.898	0.19
677.339	0.19
677.78	0.19
678.22	0.19
678.661	0.19
679.102	0.19
679.542	0.19
679.983	0.19
680.424	0.19
680.864	0.19
681.305	0.19
681.745	0.19
682.186	0.19
682.626	0.19
683.067	0.19
683.507	0.19
683.948	0.19
684.388	0.19
684.828	0.19
685.269	0.19
685.709	0.19
686.149	0.19
686.589	0.19
687.029	0.19
687.47	0.19
687.91	0.19
688.35	0.19
688.79	0.19
689.23	0.19
689.67	0.19
690.11	0.19
690.55	0.2
690.99	0.2
691.43	0.2
691.87	0.2
692.31	0.2
692.749	0.2
693.189	0.2
693.629	0.2
694.069	0.2
694.508	0.2
694.948	0.2
695.388	0.2
695.827	0.2
696.267	0.2
696.706	0.2
697.146	0.2
697.586	0.2
698.025	0.2
698.464	0.2
698.904	0.2
699.343	0.2
699.783	0.2
700.222	0.2
700.661	0.2
701.101	0.2
701.54	0.2
701.979	0.2
702.418	0.2
702.857	0.2
703.297	0.2
703.736	0.2
704.175	0.2
704.614	0.2
705.053	0.2
705.492	0.2
705.931	0.2
706.37	0.2
706.809	0.2
707.248	0.2
707.687	0.2
708.125	0.2
708.564	0.2
709.003	0.2
709.442	0.2
709.88	0.2
710.319	0.2
710.758	0.2
711.196	0.2
711.635	0.2
712.074	0.2
712.512	0.2
712.951	0.2
713.389	0.2
713.828	0.2
714.266	0.2
714.705	0.2
715.143	0.2
715.581	0.2
716.02	0.2
716.458	0.2
716.896	0.2
717.334	0.2
717.773	0.2
718.211	0.2
718.649	0.2
719.087	0.2
719.525	0.2
719.963	0.2
720.401	0.2
720.839	0.2
721.277	0.2
721.715	0.2
722.153	0.2
722.591	0.2
723.029	0.2
723.467	0.2
723.905	0.2
724.342	0.2
724.78	0.2
725.218	0.2
725.656	0.2
726.093	0.2
726.531	0.2
726.969	0.2
727.406	0.2
727.844	0.2
728.281	0.2
728.719	0.2
729.156	0.2
729.594	0.2
730.031	0.2
730.469	0.2
730.906	0.2
731.343	0.2
731.781	0.2
732.218	0.2
732.655	0.2
733.092	0.2
733.53	0.2
733.967	0.2
734.404	0.2
734.841	0.2
735.278	0.2
735.715	0.2
736.152	0.2
736.589	0.2
737.026	0.2
737.463	0.2
737.9	0.2
738.337	0.2
738.774	0.2
739.211	0.2
739.647	0.2
740.084	0.2
740.521	0.2
740.958	0.2
741.394	0.2
741.831	0.2
742.268	0.2
742.704	0.2
743.141	0.2
743.577	0.2
744.014	0.2
744.45	0.2
744.887	0.2
745.323	0.2
745.76	0.2
746.196	0.2
746.632	0.2
747.069	0.2
747.505	0.2
747.941	0.2
748.378	0.2
748.814	0.2
749.25	0.2
749.686	0.2
750.122	0.2
750.558	0.2
750.994	0.2
751.43	0.2
751.866	0.2
752.302	0.2
752.738	0.2
753.174	0.2
753.61	0.2
754.046	0.2
754.482	0.2
754.918	0.2
755.354	0.2
755.789	0.2
756.225	0.2
756.661	0.2
757.096	0.2
757.532	0.2
757.968	0.21
758.403	0.21
758.839	0.21
759.274	0.21
759.71	0.21
760.145	0.21
760.581	0.21
761.016	0.21
761.452	0.21
761.887	0.21
762.322	0.21
762.758	0.21
763.193	0.21
763.628	0.21
764.063	0.21
764.499	0.21
764.934	0.21
765.369	0.21
765.804	0.21
766.239	0.21
766.674	0.21
767.109	0.21
767.544	0.21
767.979	0.21
768.414	0.21
768.849	0.21
769.284	0.2
769.719	0.2
770.154	0.2
770.588	0.2
771.023	0.2
771.458	0.2
771.893	0.2
772.327	0.2
772.762	0.2
773.197	0.2
773.631	0.2
774.066	0.2
774.5	0.21
774.935	0.21
775.369	0.21
775.804	0.21
776.238	0.21
776.673	0.21
777.107	0.21
777.541	0.21
777.976	0.21
778.41	0.21
778.844	0.21
779.279	0.21
779.713	0.2
780.147	0.2
780.581	0.2
781.015	0.2
781.449	0.2
781.883	0.2
782.317	0.2
782.751	0.2
783.185	0.2
783.619	0.2
784.053	0.2
784.487	0.21
784.921	0.21
785.355	0.21
785.789	0.21
786.223	0.21
786.656	0.21
787.09	0.21
787.524	0.21
787.957	0.2
788.391	0.2
788.825	0.2
789.258	0.2
789.692	0.2
790.125	0.2
790.559	0.2
790.992	0.2
791.426	0.2
791.859	0.2
792.293	0.2
792.726	0.2
793.159	0.2
793.593	0.2
794.026	0.2
794.459	0.2
794.892	0.2
795.326	0.2
795.759	0.2
796.192	0.2
796.625	0.2
797.058	0.2
797.491	0.2
797.924	0.2
798.357	0.2
798.79	0.2
799.223	0.21
799.656	0.21
800.089	0.21
800.522	0.21
800.955	0.21
801.387	0.21
801.82	0.21
802.253	0.21
802.686	0.21
803.118	0.21
803.551	0.2
803.984	0.2
804.416	0.2
804.849	0.2
805.281	0.2
805.714	0.2
806.146	0.2
806.579	0.2
807.011	0.2
807.444	0.2
807.876	0.2
808.308	0.2
808.741	0.2
809.173	0.2
809.605	0.2
810.037	0.2
810.47	0.2
810.902	0.2
811.334	0.2
811.766	0.2
812.198	0.2
812.63	0.2
813.062	0.2
813.494	0.21
813.926	0.21
814.358	0.21
814.79	0.21
815.222	0.21
815.654	0.21
816.086	0.21
816.518	0.21
816.949	0.21
817.381	0.21
817.813	0.21
818.245	0.2
818.676	0.2
819.108	0.2
819.54	0.2
819.971	0.2
820.403	0.2
820.834	0.2
821.266	0.2
821.697	0.2
822.129	0.2
822.56	0.2
822.991	0.2
823.423	0.2
823.854	0.2
824.286	0.2
824.717	0.2
825.148	0.2
825.579	0.2
826.01	0.2
826.442	0.2
826.873	0.2
827.304	0.2
827.735	0.2
828.166	0.2
828.597	0.2
829.028	0.2
829.459	0.2
829.89	0.21
830.321	0.21
830.752	0.21
831.183	0.2
831.613	0.2
832.044	0.2
832.475	0.2
832.906	0.2
833.336	0.2
833.767	0.2
834.198	0.2
834.628	0.2
835.059	0.2
835.49	0.2
835.92	0.2
836.351	0.2
836.781	0.2
837.212	0.2
837.642	0.2
838.072	0.2
838.503	0.2
838.933	0.2
839.364	0.2
839.794	0.2
840.224	0.2
840.654	0.2
841.085	0.2
841.515	0.2
841.945	0.2
842.375	0.2
842.805	0.2
843.235	0.2
843.665	0.2
844.095	0.2
844.525	0.2
844.955	0.2
845.385	0.2
845.815	0.2
846.245	0.2
846.675	0.2
847.105	0.2
847.534	0.2
847.964	0.2
848.394	0.2
848.824	0.2
849.253	0.2
849.683	0.2
850.112	0.2
850.542	0.2
850.972	0.2
851.401	0.2
851.831	0.2
852.26	0.2
852.69	0.2
853.119	0.2
853.548	0.19
853.978	0.19
854.407	0.19
854.836	0.19
855.266	0.19
855.695	0.19
856.124	0.19
856.553	0.2
856.983	0.2
857.412	0.2
857.841	0.2
858.27	0.2
858.699	0.2
859.128	0.2
859.557	0.2
859.986	0.2
860.415	0.2
860.844	0.2
861.273	0.2
861.702	0.2
862.13	0.2
862.559	0.2
862.988	0.2
863.417	0.2
863.845	0.2
864.274	0.2
864.703	0.2
865.131	0.2
865.56	0.2
865.989	0.2
866.417	0.2
866.846	0.2
867.274	0.2
867.703	0.2
868.131	0.2
868.559	0.2
868.988	0.2
869.416	0.2
869.844	0.2
870.273	0.2
870.701	0.2
871.129	0.2
871.557	0.2
871.986	0.2
872.414	0.2
872.842	0.2
873.27	0.2
873.698	0.2
874.126	0.2
874.554	0.2
874.982	0.2
875.41	0.2
875.838	0.2
876.266	0.2
876.694	0.2
877.122	0.2
877.549	0.2
877.977	0.2
878.405	0.2
878.833	0.2
879.26	0.2
879.688	0.2
880.116	0.2
880.543	0.2
880.971	0.2
881.399	0.2
881.826	0.2
882.254	0.2
882.681	0.2
883.109	0.2
883.536	0.2
883.963	0.2
884.391	0.2
884.818	0.2
885.245	0.2
885.673	0.2
886.1	0.2
886.527	0.2
886.954	0.2
887.381	0.2
887.809	0.2
888.236	0.2
888.663	0.2
889.09	0.2
889.517	0.19
889.944	0.19
890.371	0.19
890.798	0.19
891.225	0.19
891.652	0.19
892.078	0.19
892.505	0.19
892.932	0.19
893.359	0.19
893.786	0.19
894.212	0.19
894.639	0.19
895.066	0.19
895.492	0.19
895.919	0.19
896.346	0.19
896.772	0.19
897.199	0.19
897.625	0.19
898.052	0.19
898.478	0.19
898.904	0.19
899.331	0.19
899.757	0.19
900.183	0.19
900.61	0.19
901.036	0.19
901.462	0.19
901.888	0.19
902.315	0.19
902.741	0.19
903.167	0.19
903.593	0.19
904.019	0.19
904.445	0.19
904.871	0.19
905.297	0.19
905.723	0.19
906.149	0.19
906.575	0.19
907.001	0.19
907.427	0.19
907.852	0.19
908.278	0.19
908.704	0.19
909.13	0.19
909.555	0.19
909.981	0.19
910.407	0.19
910.832	0.19
911.258	0.19
911.684	0.19
912.109	0.19
912.535	0.19
912.96	0.19
913.386	0.19
913.811	0.19
914.236	0.19
914.662	0.19
915.087	0.19
915.512	0.19
915.938	0.19
916.363	0.19
916.788	0.19
917.213	0.19
917.639	0.19
918.064	0.19
918.489	0.19
918.914	0.19
919.339	0.19
919.764	0.19
920.189	0.19
920.614	0.19
921.039	0.19
921.464	0.19
921.889	0.19
922.314	0.19
922.738	0.19
923.163	0.19
923.588	0.19
924.013	0.19
924.437	0.19
924.862	0.19
925.287	0.19
925.711	0.19
926.136	0.19
926.561	0.19
926.985	0.19
927.41	0.19
927.834	0.19
928.259	0.19
928.683	0.19
929.108	0.19
929.532	0.19
929.956	0.19
930.381	0.19
930.805	0.19
931.229	0.19
931.653	0.19
932.078	0.19
932.502	0.19
932.926	0.19
933.35	0.19
933.774	0.19
934.198	0.19
934.622	0.19
935.046	0.19
935.47	0.19
935.894	0.19
936.318	0.18
936.742	0.18
937.166	0.18
937.59	0.18
938.014	0.18
938.437	0.18
938.861	0.18
939.285	0.18
939.709	0.18
940.132	0.18
940.556	0.18
940.98	0.18
941.403	0.18
941.827	0.18
942.25	0.18
942.674	0.18
943.097	0.18
943.521	0.18
943.944	0.18
944.368	0.18
944.791	0.18
945.214	0.18
945.638	0.18
946.061	0.18
946.484	0.18
946.907	0.18
947.331	0.18
947.754	0.18
948.177	0.18
948.6	0.18
949.023	0.18
949.446	0.18
949.869	0.18
950.292	0.18
950.715	0.18
951.138	0.18
951.561	0.18
951.984	0.18
952.407	0.18
952.83	0.18
953.252	0.18
953.675	0.18
954.098	0.18
954.521	0.18
954.943	0.18
955.366	0.18
955.789	0.18
956.211	0.18
956.634	0.18
957.056	0.18
957.479	0.18
957.902	0.18
958.324	0.18
958.746	0.18
959.169	0.18
959.591	0.18
960.014	0.18
960.436	0.18
960.858	0.18
961.281	0.18
961.703	0.18
962.125	0.18
962.547	0.18
962.969	0.18
963.391	0.18
963.814	0.18
964.236	0.18
964.658	0.18
965.08	0.18
965.502	0.18
965.924	0.17
966.346	0.17
966.768	0.17
967.189	0.17
967.611	0.17
968.033	0.17
968.455	0.17
968.877	0.18
969.298	0.18
969.72	0.18
970.142	0.18
970.563	0.18
970.985	0.18
971.407	0.18
971.828	0.18
972.25	0.18
972.671	0.18
973.093	0.18
973.514	0.18
973.936	0.18
974.357	0.18
974.778	0.18
975.2	0.18
975.621	0.18
976.042	0.18
976.464	0.18
976.885	0.18
977.306	0.18
977.727	0.18
978.148	0.17
978.57	0.17
978.991	0.17
979.412	0.17
979.833	0.17
980.254	0.17
980.675	0.17
981.096	0.17
981.517	0.17
981.937	0.17
982.358	0.17
982.779	0.17
983.2	0.17
983.621	0.17
984.042	0.17
984.462	0.17
984.883	0.17
985.304	0.17
985.724	0.17
986.145	0.18
986.565	0.18
986.986	0.18
987.407	0.18
987.827	0.18
988.248	0.18
988.668	0.18
989.088	0.18
989.509	0.18
989.929	0.18
990.35	0.18
990.77	0.18
991.19	0.18
991.61	0.18
992.031	0.18
992.451	0.18
992.871	0.18
993.291	0.18
993.711	0.18
994.131	0.18
994.551	0.18
994.971	0.18
995.391	0.18
995.811	0.18
996.231	0.18
996.651	0.18
997.071	0.18
997.491	0.18
997.911	0.18
998.331	0.18
998.75	0.18
999.17	0.18
999.59	0.18
1000.009	0.18
1000.429	0.18
1000.849	0.18
1001.268	0.18
1001.688	0.18
1002.107	0.18
1002.527	0.18
1002.946	0.18
1003.366	0.17
1003.785	0.17
1004.205	0.17
1004.624	0.17
1005.044	0.17
1005.463	0.17
1005.882	0.17
1006.301	0.17
1006.721	0.17
1007.14	0.17
1007.559	0.17
1007.978	0.17
1008.397	0.17
1008.816	0.17
1009.235	0.17
1009.655	0.17
1010.074	0.17
1010.492	0.17
1010.911	0.17
1011.33	0.17
1011.749	0.17
1012.168	0.17
1012.587	0.17
1013.006	0.17
1013.425	0.17
1013.843	0.17
1014.262	0.17
1014.681	0.17
1015.099	0.17
1015.518	0.17
1015.937	0.17
1016.355	0.17
1016.774	0.17
1017.192	0.17
1017.611	0.17
1018.029	0.17
1018.448	0.17
1018.866	0.17
1019.285	0.17
1019.703	0.17
1020.121	0.17
1020.54	0.17
1020.958	0.17
1021.376	0.17
1021.794	0.17
1022.213	0.17
1022.631	0.17
1023.049	0.17
1023.467	0.17
1023.885	0.17
1024.303	0.17
1024.721	0.17
1025.139	0.17
1025.557	0.17
1025.975	0.17
1026.393	0.17
1026.811	0.17
1027.229	0.17
1027.647	0.17
1028.065	0.17
1028.482	0.17
1028.9	0.17
1029.318	0.17
1029.735	0.17
1030.153	0.17
1030.571	0.17
1030.988	0.17
1031.406	0.17
1031.823	0.17
1032.241	0.17
1032.659	0.17
1033.076	0.17
1033.493	0.17
1033.911	0.17
1034.328	0.17
1034.746	0.17
1035.163	0.17
1035.58	0.17
1035.997	0.17
1036.415	0.17
1036.832	0.17
1037.249	0.17
1037.666	0.17
1038.083	0.17
1038.501	0.17
1038.918	0.17
1039.335	0.17
1039.752	0.17
1040.169	0.17
1040.586	0.17
1041.003	0.17
1041.419	0.17
1041.836	0.17
1042.253	0.17
1042.67	0.17
1043.087	0.17
1043.504	0.17
1043.92	0.17
1044.337	0.17
1044.754	0.17
1045.17	0.17
1045.587	0.17
1046.004	0.17
1046.42	0.17
1046.837	0.17
1047.253	0.17
1047.67	0.17
1048.086	0.17
1048.503	0.17
1048.919	0.17
1049.335	0.17
1049.752	0.17
1050.168	0.17
1050.584	0.17
1051.001	0.17
1051.417	0.17
1051.833	0.17
1052.249	0.17
1052.665	0.17
1053.081	0.17
1053.497	0.17
1053.914	0.17
1054.33	0.17
1054.746	0.17
1055.162	0.17
1055.578	0.17
1055.993	0.17
1056.409	0.17
1056.825	0.17
1057.241	0.17
1057.657	0.17
1058.073	0.17
1058.488	0.17
1058.904	0.17
1059.32	0.17
1059.736	0.16
1060.151	0.16
1060.567	0.16
1060.982	0.16
1061.398	0.16
1061.813	0.16
1062.229	0.16
1062.644	0.16
1063.06	0.16
1063.475	0.16
1063.891	0.16
1064.306	0.16
1064.721	0.16
1065.137	0.16
1065.552	0.16
1065.967	0.16
1066.382	0.16
1066.798	0.16
1067.213	0.16
1067.628	0.16
1068.043	0.16
1068.458	0.16
1068.873	0.16
1069.288	0.16
1069.703	0.16
1070.118	0.16
1070.533	0.16
1070.948	0.16
1071.363	0.16
1071.778	0.16
1072.193	0.16
1072.607	0.16
1073.022	0.16
1073.437	0.16
1073.852	0.16
1074.266	0.16
1074.681	0.16
1075.096	0.16
1075.51	0.16
1075.925	0.16
1076.339	0.16
1076.754	0.16
1077.168	0.16
1077.583	0.16
1077.997	0.16
1078.412	0.16
1078.826	0.16
1079.24	0.16
1079.655	0.16
1080.069	0.16
1080.483	0.16
1080.897	0.15
1081.312	0.15
1081.726	0.15
1082.14	0.15
1082.554	0.15
1082.968	0.15
1083.382	0.15
1083.796	0.15
1084.21	0.15
1084.624	0.15
1085.038	0.15
1085.452	0.15
1085.866	0.15
1086.28	0.15
1086.694	0.15
1087.108	0.16
1087.521	0.16
1087.935	0.16
1088.349	0.16
1088.763	0.16
1089.176	0.16
1089.59	0.16
1090.004	0.16
1090.417	0.16
1090.831	0.16
1091.244	0.16
1091.658	0.16
1092.071	0.16
1092.485	0.16
1092.898	0.16
1093.312	0.16
1093.725	0.16
1094.138	0.16
1094.552	0.16
1094.965	0.16
1095.378	0.16
1095.791	0.16
1096.205	0.16
1096.618	0.16
1097.031	0.16
1097.444	0.16
1097.857	0.16
1098.27	0.16
1098.683	0.16
1099.096	0.16
1099.509	0.15
1099.922	0.15
1100.335	0.15
1100.748	0.15
1101.161	0.15
1101.574	0.15
1101.986	0.15
1102.399	0.15
1102.812	0.15
1103.225	0.15
1103.637	0.15
1104.05	0.15
1104.463	0.15
1104.875	0.15
1105.288	0.15
1105.7	0.15
1106.113	0.15
1106.525	0.15
1106.938	0.15
1107.35	0.15
1107.763	0.15
1108.175	0.15
1108.588	0.15
1109	0.15
1109.412	0.15
1109.824	0.15
1110.237	0.15
1110.649	0.16
1111.061	0.16
