Data from redip-kinet-2-5a_Absorbance__7__00007.txt Node

Date: Fri Apr 12 13:45:44 CEST 2024
User: Laser008
Spectrometer: MAYP115816
Trigger mode: 0
Integration Time (sec): 2.000000E-1
Scans to average: 10
Electric dark correction enabled: true
Nonlinearity correction enabled: true
Boxcar width: 5
XAxis mode: Wavelengths
Number of Pixels in Spectrum: 2068
>>>>>Begin Spectral Data<<<<<
198.914	-2.5
199.384	-2.34
199.855	-2.2
200.325	-2.09
200.796	-2.01
201.266	-1.96
201.737	-1.88
202.207	-1.82
202.677	-1.77
203.147	-1.72
203.618	-1.69
204.088	-1.67
204.558	-1.65
205.028	-1.64
205.498	-1.63
205.968	-1.63
206.439	-1.63
206.909	-1.62
207.379	-1.62
207.849	-1.62
208.319	-1.61
208.789	-1.61
209.258	-1.61
209.728	-1.6
210.198	-1.6
210.668	-1.6
211.138	-1.6
211.608	-1.6
212.077	-1.6
212.547	-1.6
213.017	-1.59
213.486	-1.59
213.956	-1.59
214.426	-1.59
214.895	-1.59
215.365	-1.59
215.834	-1.59
216.304	-1.58
216.773	-1.58
217.243	-1.58
217.712	-1.58
218.181	-1.57
218.651	-1.57
219.12	-1.57
219.589	-1.57
220.058	-1.56
220.528	-1.56
220.997	-1.56
221.466	-1.55
221.935	-1.55
222.404	-1.54
222.873	-1.54
223.342	-1.53
223.812	-1.52
224.281	-1.52
224.749	-1.51
225.218	-1.5
225.687	-1.49
226.156	-1.48
226.625	-1.47
227.094	-1.45
227.563	-1.43
228.031	-1.42
228.5	-1.39
228.969	-1.37
229.438	-1.34
229.906	-1.31
230.375	-1.27
230.844	-1.24
231.312	-1.2
231.781	-1.15
232.249	-1.11
232.718	-1.06
233.186	-1.01
233.655	-0.96
234.123	-0.91
234.591	-0.86
235.06	-0.81
235.528	-0.77
235.996	-0.72
236.465	-0.67
236.933	-0.62
237.401	-0.58
237.869	-0.54
238.337	-0.5
238.805	-0.46
239.274	-0.43
239.742	-0.39
240.21	-0.36
240.678	-0.33
241.146	-0.3
241.614	-0.28
242.081	-0.25
242.549	-0.23
243.017	-0.21
243.485	-0.19
243.953	-0.17
244.421	-0.15
244.888	-0.14
245.356	-0.12
245.824	-0.11
246.291	-0.09
246.759	-0.08
247.227	-0.07
247.694	-0.06
248.162	-0.05
248.629	-0.04
249.097	-0.03
249.564	-0.02
250.032	-0.01
250.499	-0
250.967	0
251.434	0.01
251.901	0.02
252.369	0.03
252.836	0.03
253.303	0.04
253.77	0.04
254.237	0.05
254.705	0.05
255.172	0.06
255.639	0.06
256.106	0.07
256.573	0.07
257.04	0.07
257.507	0.08
257.974	0.08
258.441	0.08
258.908	0.08
259.375	0.09
259.841	0.09
260.308	0.09
260.775	0.09
261.242	0.09
261.709	0.09
262.175	0.1
262.642	0.1
263.109	0.1
263.575	0.1
264.042	0.1
264.508	0.1
264.975	0.1
265.441	0.1
265.908	0.1
266.374	0.1
266.841	0.1
267.307	0.1
267.773	0.1
268.24	0.1
268.706	0.1
269.172	0.1
269.639	0.1
270.105	0.1
270.571	0.1
271.037	0.1
271.503	0.1
271.969	0.1
272.435	0.1
272.902	0.1
273.368	0.1
273.834	0.1
274.3	0.09
274.765	0.09
275.231	0.09
275.697	0.09
276.163	0.09
276.629	0.09
277.095	0.09
277.56	0.09
278.026	0.08
278.492	0.08
278.958	0.08
279.423	0.08
279.889	0.08
280.354	0.08
280.82	0.08
281.286	0.08
281.751	0.08
282.217	0.08
282.682	0.08
283.147	0.08
283.613	0.08
284.078	0.08
284.544	0.08
285.009	0.08
285.474	0.08
285.939	0.08
286.405	0.08
286.87	0.08
287.335	0.08
287.8	0.08
288.265	0.08
288.73	0.08
289.195	0.08
289.66	0.08
290.125	0.08
290.59	0.08
291.055	0.08
291.52	0.08
291.985	0.08
292.45	0.08
292.915	0.07
293.38	0.07
293.844	0.07
294.309	0.07
294.774	0.07
295.239	0.07
295.703	0.07
296.168	0.07
296.632	0.07
297.097	0.07
297.562	0.07
298.026	0.07
298.491	0.07
298.955	0.07
299.419	0.08
299.884	0.08
300.348	0.08
300.813	0.08
301.277	0.08
301.741	0.08
302.205	0.08
302.67	0.08
303.134	0.08
303.598	0.08
304.062	0.08
304.526	0.08
304.99	0.08
305.454	0.08
305.919	0.08
306.383	0.08
306.847	0.08
307.31	0.08
307.774	0.08
308.238	0.08
308.702	0.08
309.166	0.08
309.63	0.08
310.094	0.08
310.557	0.08
311.021	0.08
311.485	0.08
311.948	0.08
312.412	0.08
312.876	0.08
313.339	0.08
313.803	0.08
314.266	0.08
314.73	0.07
315.193	0.07
315.657	0.07
316.12	0.07
316.584	0.07
317.047	0.07
317.51	0.07
317.973	0.07
318.437	0.07
318.9	0.07
319.363	0.07
319.826	0.07
320.29	0.07
320.753	0.07
321.216	0.07
321.679	0.07
322.142	0.07
322.605	0.07
323.068	0.07
323.531	0.07
323.994	0.07
324.457	0.07
324.92	0.07
325.382	0.07
325.845	0.07
326.308	0.07
326.771	0.07
327.233	0.07
327.696	0.07
328.159	0.07
328.622	0.07
329.084	0.06
329.547	0.06
330.009	0.06
330.472	0.06
330.934	0.06
331.397	0.06
331.859	0.06
332.322	0.06
332.784	0.06
333.246	0.06
333.709	0.06
334.171	0.06
334.633	0.06
335.096	0.06
335.558	0.06
336.02	0.06
336.482	0.06
336.944	0.06
337.406	0.06
337.868	0.06
338.331	0.06
338.793	0.06
339.255	0.06
339.717	0.06
340.178	0.06
340.64	0.06
341.102	0.06
341.564	0.05
342.026	0.05
342.488	0.05
342.949	0.05
343.411	0.05
343.873	0.05
344.335	0.05
344.796	0.05
345.258	0.05
345.719	0.05
346.181	0.05
346.643	0.05
347.104	0.05
347.566	0.05
348.027	0.05
348.488	0.05
348.95	0.05
349.411	0.05
349.873	0.04
350.334	0.04
350.795	0.04
351.256	0.04
351.718	0.04
352.179	0.04
352.64	0.04
353.101	0.04
353.562	0.04
354.023	0.03
354.484	0.03
354.945	0.03
355.406	0.03
355.867	0.03
356.328	0.03
356.789	0.03
357.25	0.03
357.711	0.03
358.172	0.03
358.633	0.03
359.093	0.03
359.554	0.03
360.015	0.03
360.476	0.03
360.936	0.04
361.397	0.04
361.858	0.04
362.318	0.04
362.779	0.04
363.239	0.04
363.7	0.04
364.16	0.04
364.621	0.04
365.081	0.04
365.541	0.04
366.002	0.04
366.462	0.03
366.922	0.03
367.383	0.03
367.843	0.03
368.303	0.03
368.763	0.03
369.223	0.03
369.684	0.03
370.144	0.03
370.604	0.03
371.064	0.03
371.524	0.03
371.984	0.03
372.444	0.03
372.904	0.03
373.363	0.03
373.823	0.03
374.283	0.03
374.743	0.03
375.203	0.03
375.663	0.03
376.122	0.03
376.582	0.03
377.042	0.03
377.501	0.03
377.961	0.03
378.42	0.03
378.88	0.03
379.34	0.03
379.799	0.03
380.259	0.03
380.718	0.03
381.177	0.03
381.637	0.03
382.096	0.03
382.555	0.03
383.015	0.03
383.474	0.03
383.933	0.03
384.393	0.03
384.852	0.03
385.311	0.03
385.77	0.03
386.229	0.03
386.688	0.03
387.147	0.03
387.606	0.03
388.065	0.03
388.524	0.03
388.983	0.03
389.442	0.03
389.901	0.03
390.36	0.03
390.819	0.03
391.277	0.03
391.736	0.04
392.195	0.04
392.654	0.04
393.112	0.04
393.571	0.04
394.03	0.04
394.488	0.04
394.947	0.03
395.405	0.03
395.864	0.03
396.322	0.03
396.781	0.03
397.239	0.04
397.698	0.04
398.156	0.04
398.614	0.04
399.073	0.04
399.531	0.04
399.989	0.04
400.447	0.04
400.905	0.03
401.364	0.03
401.822	0.03
402.28	0.03
402.738	0.03
403.196	0.03
403.654	0.03
404.112	0.03
404.57	0.03
405.028	0.03
405.486	0.03
405.944	0.03
406.402	0.03
406.859	0.03
407.317	0.03
407.775	0.03
408.233	0.03
408.691	0.03
409.148	0.03
409.606	0.02
410.064	0.03
410.521	0.03
410.979	0.03
411.436	0.02
411.894	0.02
412.351	0.02
412.809	0.02
413.266	0.02
413.724	0.02
414.181	0.02
414.638	0.02
415.096	0.02
415.553	0.02
416.01	0.02
416.467	0.02
416.925	0.02
417.382	0.02
417.839	0.02
418.296	0.02
418.753	0.02
419.21	0.02
419.667	0.02
420.124	0.02
420.581	0.03
421.038	0.03
421.495	0.03
421.952	0.03
422.409	0.03
422.866	0.03
423.322	0.03
423.779	0.03
424.236	0.03
424.693	0.03
425.149	0.02
425.606	0.02
426.063	0.02
426.519	0.02
426.976	0.02
427.433	0.02
427.889	0.02
428.346	0.02
428.802	0.03
429.258	0.03
429.715	0.03
430.171	0.03
430.628	0.03
431.084	0.03
431.54	0.03
431.997	0.02
432.453	0.02
432.909	0.02
433.365	0.02
433.821	0.02
434.277	0.02
434.734	0.02
435.19	0.02
435.646	0.02
436.102	0.02
436.558	0.02
437.014	0.02
437.47	0.02
437.925	0.02
438.381	0.02
438.837	0.02
439.293	0.02
439.749	0.02
440.205	0.02
440.66	0.02
441.116	0.02
441.572	0.02
442.027	0.02
442.483	0.02
442.939	0.02
443.394	0.02
443.85	0.02
444.305	0.02
444.761	0.02
445.216	0.02
445.672	0.02
446.127	0.02
446.582	0.02
447.038	0.02
447.493	0.02
447.948	0.02
448.403	0.02
448.859	0.02
449.314	0.02
449.769	0.02
450.224	0.02
450.679	0.02
451.134	0.01
451.589	0.01
452.044	0.01
452.499	0.01
452.954	0.01
453.409	0.01
453.864	0.01
454.319	0.01
454.774	0.01
455.229	0.01
455.684	0.01
456.138	0
456.593	0
457.048	0
457.503	0
457.957	0
458.412	0
458.866	0
459.321	0
459.776	0
460.23	0
460.685	0
461.139	-0
461.593	-0
462.048	-0
462.502	-0
462.957	-0
463.411	-0
463.865	-0
464.319	-0
464.774	-0
465.228	-0
465.682	-0
466.136	-0
466.59	-0
467.044	-0
467.499	-0
467.953	-0.01
468.407	-0.01
468.861	-0.01
469.315	-0.02
469.768	-0.02
470.222	-0.02
470.676	-0.02
471.13	-0.02
471.584	-0.02
472.038	-0.02
472.491	-0.02
472.945	-0.02
473.399	-0.02
473.852	-0.02
474.306	-0.02
474.76	-0.02
475.213	-0.02
475.667	-0.02
476.12	-0.02
476.574	-0.02
477.027	-0.02
477.481	-0.02
477.934	-0.02
478.388	-0.02
478.841	-0.02
479.294	-0.02
479.748	-0.02
480.201	-0.02
480.654	-0.02
481.107	-0.02
481.561	-0.02
482.014	-0.02
482.467	-0.01
482.92	-0.01
483.373	-0.01
483.826	-0.01
484.279	-0
484.732	-0
485.185	0
485.638	0
486.091	0
486.544	0
486.997	0
487.449	-0
487.902	-0
488.355	-0.01
488.808	-0.01
489.26	-0.02
489.713	-0.02
490.166	-0.02
490.618	-0.02
491.071	-0.03
491.523	-0.03
491.976	-0.03
492.429	-0.03
492.881	-0.03
493.333	-0.03
493.786	-0.03
494.238	-0.03
494.691	-0.03
495.143	-0.02
495.595	-0.03
496.048	-0.03
496.5	-0.03
496.952	-0.03
497.404	-0.03
497.856	-0.03
498.309	-0.03
498.761	-0.03
499.213	-0.03
499.665	-0.03
500.117	-0.03
500.569	-0.03
501.021	-0.03
501.473	-0.03
501.925	-0.03
502.377	-0.03
502.828	-0.03
503.28	-0.03
503.732	-0.03
504.184	-0.03
504.636	-0.03
505.087	-0.03
505.539	-0.03
505.991	-0.03
506.442	-0.04
506.894	-0.04
507.345	-0.04
507.797	-0.04
508.249	-0.04
508.7	-0.04
509.151	-0.04
509.603	-0.04
510.054	-0.04
510.506	-0.05
510.957	-0.05
511.408	-0.05
511.86	-0.05
512.311	-0.05
512.762	-0.05
513.213	-0.05
513.665	-0.06
514.116	-0.06
514.567	-0.06
515.018	-0.06
515.469	-0.06
515.92	-0.06
516.371	-0.07
516.822	-0.07
517.273	-0.07
517.724	-0.07
518.175	-0.07
518.626	-0.07
519.076	-0.07
519.527	-0.07
519.978	-0.07
520.429	-0.08
520.88	-0.08
521.33	-0.08
521.781	-0.09
522.232	-0.09
522.682	-0.1
523.133	-0.1
523.583	-0.1
524.034	-0.1
524.484	-0.1
524.935	-0.1
525.385	-0.1
525.836	-0.1
526.286	-0.09
526.736	-0.09
527.187	-0.08
527.637	-0.08
528.087	-0.07
528.538	-0.07
528.988	-0.06
529.438	-0.06
529.888	-0.05
530.338	-0.05
530.788	-0.05
531.238	-0.05
531.688	-0.04
532.139	-0.04
532.589	-0.04
533.038	-0.04
533.488	-0.04
533.938	-0.04
534.388	-0.04
534.838	-0.03
535.288	-0.03
535.738	-0.03
536.187	-0.03
536.637	-0.03
537.087	-0.03
537.537	-0.03
537.986	-0.03
538.436	-0.03
538.885	-0.03
539.335	-0.02
539.785	-0.02
540.234	-0.02
540.684	-0.02
541.133	-0.02
541.582	-0.02
542.032	-0.02
542.481	-0.02
542.931	-0.02
543.38	-0.02
543.829	-0.02
544.278	-0.02
544.728	-0.02
545.177	-0.01
545.626	-0.01
546.075	-0.01
546.524	-0.01
546.973	-0.01
547.422	-0.01
547.871	-0.01
548.32	-0.01
548.769	-0.01
549.218	-0.01
549.667	-0.01
550.116	-0.01
550.565	-0.01
551.014	-0.01
551.463	-0.01
551.911	-0.01
552.36	-0.01
552.809	-0.01
553.258	-0.01
553.706	-0.01
554.155	-0
554.603	-0
555.052	-0
555.501	-0.01
555.949	-0.01
556.398	-0.01
556.846	-0.01
557.294	-0.01
557.743	-0.01
558.191	-0.01
558.64	-0.01
559.088	-0.01
559.536	-0.01
559.985	-0.01
560.433	-0
560.881	-0
561.329	0
561.777	0
562.225	0.01
562.674	0.01
563.122	0.01
563.57	0.01
564.018	0
564.466	0
564.914	0
565.362	0
565.809	0.01
566.257	0.01
566.705	0.01
567.153	0.01
567.601	0.02
568.048	0.02
568.496	0.03
568.944	0.04
569.392	0.04
569.839	0.05
570.287	0.06
570.734	0.06
571.182	0.06
571.63	0.07
572.077	0.07
572.525	0.08
572.972	0.08
573.419	0.08
573.867	0.08
574.314	0.08
574.761	0.08
575.209	0.09
575.656	0.09
576.103	0.09
576.551	0.1
576.998	0.09
577.445	0.09
577.892	0.09
578.339	0.09
578.786	0.1
579.233	0.1
579.68	0.1
580.127	0.11
580.574	0.11
581.021	0.1
581.468	0.1
581.915	0.1
582.362	0.1
582.809	0.1
583.255	0.11
583.702	0.11
584.149	0.1
584.596	0.1
585.042	0.1
585.489	0.1
585.936	0.1
586.382	0.1
586.829	0.1
587.275	0.1
587.722	0.09
588.168	0.09
588.615	0.09
589.061	0.08
589.508	0.08
589.954	0.08
590.4	0.08
590.847	0.08
591.293	0.08
591.739	0.09
592.185	0.09
592.632	0.09
593.078	0.09
593.524	0.09
593.97	0.09
594.416	0.09
594.862	0.09
595.308	0.09
595.754	0.08
596.2	0.08
596.646	0.08
597.092	0.08
597.538	0.09
597.984	0.09
598.43	0.09
598.876	0.09
599.321	0.09
599.767	0.09
600.213	0.09
600.659	0.09
601.104	0.09
601.55	0.09
601.995	0.09
602.441	0.09
602.887	0.08
603.332	0.08
603.778	0.08
604.223	0.08
604.668	0.09
605.114	0.09
605.559	0.09
606.005	0.09
606.45	0.09
606.895	0.09
607.341	0.09
607.786	0.09
608.231	0.09
608.676	0.08
609.121	0.08
609.566	0.08
610.012	0.08
610.457	0.08
610.902	0.08
611.347	0.08
611.792	0.08
612.237	0.08
612.682	0.08
613.127	0.08
613.571	0.08
614.016	0.08
614.461	0.08
614.906	0.08
615.351	0.08
615.795	0.07
616.24	0.07
616.685	0.07
617.129	0.07
617.574	0.06
618.019	0.06
618.463	0.06
618.908	0.05
619.352	0.05
619.797	0.05
620.241	0.05
620.686	0.05
621.13	0.05
621.574	0.05
622.019	0.05
622.463	0.06
622.907	0.05
623.352	0.05
623.796	0.05
624.24	0.05
624.684	0.05
625.128	0.05
625.572	0.05
626.016	0.05
626.461	0.05
626.905	0.05
627.349	0.04
627.793	0.04
628.236	0.04
628.68	0.04
629.124	0.04
629.568	0.04
630.012	0.03
630.456	0.03
630.9	0.03
631.343	0.03
631.787	0.03
632.231	0.02
632.674	0.02
633.118	0.02
633.562	0.02
634.005	0.02
634.449	0.02
634.892	0.02
635.336	0.02
635.779	0.02
636.223	0.02
636.666	0.02
637.109	0.02
637.553	0.02
637.996	0.02
638.439	0.02
638.883	0.02
639.326	0.02
639.769	0.02
640.212	0.02
640.655	0.02
641.099	0.02
641.542	0.02
641.985	0.02
642.428	0.02
642.871	0.02
643.314	0.02
643.757	0.02
644.2	0.02
644.643	0.02
645.085	0.02
645.528	0.02
645.971	0.02
646.414	0.03
646.857	0.03
647.299	0.03
647.742	0.03
648.185	0.03
648.627	0.03
649.07	0.03
649.513	0.04
649.955	0.04
650.398	0.04
650.84	0.04
651.283	0.04
651.725	0.04
652.168	0.03
652.61	0.03
653.052	0.04
653.495	0.04
653.937	0.04
654.379	0.05
654.821	0.05
655.264	0.05
655.706	0.05
656.148	0.06
656.59	0.06
657.032	0.06
657.474	0.06
657.916	0.05
658.358	0.05
658.8	0.05
659.242	0.05
659.684	0.04
660.126	0.04
660.568	0.04
661.01	0.04
661.452	0.04
661.894	0.04
662.335	0.04
662.777	0.04
663.219	0.04
663.661	0.04
664.102	0.04
664.544	0.04
664.985	0.04
665.427	0.04
665.869	0.04
666.31	0.04
666.752	0.04
667.193	0.04
667.634	0.04
668.076	0.05
668.517	0.05
668.959	0.05
669.4	0.05
669.841	0.05
670.282	0.05
670.724	0.05
671.165	0.05
671.606	0.05
672.047	0.05
672.488	0.05
672.929	0.05
673.37	0.05
673.811	0.05
674.252	0.05
674.693	0.05
675.134	0.05
675.575	0.04
676.016	0.05
676.457	0.05
676.898	0.05
677.339	0.05
677.78	0.05
678.22	0.06
678.661	0.06
679.102	0.06
679.542	0.06
679.983	0.06
680.424	0.06
680.864	0.06
681.305	0.06
681.745	0.06
682.186	0.06
682.626	0.06
683.067	0.07
683.507	0.07
683.948	0.07
684.388	0.07
684.828	0.07
685.269	0.07
685.709	0.07
686.149	0.07
686.589	0.07
687.029	0.07
687.47	0.07
687.91	0.07
688.35	0.07
688.79	0.07
689.23	0.07
689.67	0.08
690.11	0.08
690.55	0.08
690.99	0.08
691.43	0.08
691.87	0.08
692.31	0.08
692.749	0.08
693.189	0.08
693.629	0.09
694.069	0.09
694.508	0.09
694.948	0.09
695.388	0.09
695.827	0.09
696.267	0.09
696.706	0.09
697.146	0.09
697.586	0.1
698.025	0.1
698.464	0.1
698.904	0.1
699.343	0.1
699.783	0.1
700.222	0.09
700.661	0.09
701.101	0.1
701.54	0.1
701.979	0.1
702.418	0.1
702.857	0.1
703.297	0.1
703.736	0.1
704.175	0.1
704.614	0.1
705.053	0.1
705.492	0.1
705.931	0.1
706.37	0.1
706.809	0.1
707.248	0.1
707.687	0.1
708.125	0.1
708.564	0.1
709.003	0.1
709.442	0.1
709.88	0.1
710.319	0.1
710.758	0.1
711.196	0.1
711.635	0.1
712.074	0.1
712.512	0.1
712.951	0.1
713.389	0.1
713.828	0.1
714.266	0.1
714.705	0.1
715.143	0.1
715.581	0.1
716.02	0.1
716.458	0.1
716.896	0.1
717.334	0.1
717.773	0.09
718.211	0.09
718.649	0.09
719.087	0.09
719.525	0.09
719.963	0.09
720.401	0.09
720.839	0.09
721.277	0.09
721.715	0.09
722.153	0.09
722.591	0.09
723.029	0.09
723.467	0.09
723.905	0.09
724.342	0.09
724.78	0.09
725.218	0.09
725.656	0.09
726.093	0.09
726.531	0.09
726.969	0.09
727.406	0.09
727.844	0.09
728.281	0.09
728.719	0.09
729.156	0.09
729.594	0.09
730.031	0.09
730.469	0.09
730.906	0.09
731.343	0.09
731.781	0.09
732.218	0.09
732.655	0.09
733.092	0.09
733.53	0.08
733.967	0.08
734.404	0.08
734.841	0.08
735.278	0.08
735.715	0.07
736.152	0.07
736.589	0.07
737.026	0.07
737.463	0.07
737.9	0.07
738.337	0.07
738.774	0.06
739.211	0.06
739.647	0.06
740.084	0.05
740.521	0.05
740.958	0.05
741.394	0.04
741.831	0.03
742.268	0.03
742.704	0.02
743.141	0.02
743.577	0.02
744.014	0.01
744.45	0.01
744.887	0.01
745.323	0.01
745.76	0.01
746.196	0.01
746.632	0.01
747.069	0.02
747.505	0.02
747.941	0.02
748.378	0.02
748.814	0.03
749.25	0.03
749.686	0.03
750.122	0.03
750.558	0.03
750.994	0.03
751.43	0.04
751.866	0.04
752.302	0.04
752.738	0.04
753.174	0.04
753.61	0.04
754.046	0.04
754.482	0.04
754.918	0.04
755.354	0.05
755.789	0.05
756.225	0.05
756.661	0.05
757.096	0.05
757.532	0.05
757.968	0.05
758.403	0.05
758.839	0.05
759.274	0.05
759.71	0.04
760.145	0.04
760.581	0.03
761.016	0.03
761.452	0.02
761.887	0.02
762.322	0.02
762.758	0.02
763.193	0.02
763.628	0.01
764.063	0.01
764.499	0
764.934	0
765.369	-0
765.804	-0
766.239	-0
766.674	-0
767.109	-0
767.544	-0.01
767.979	-0.02
768.414	-0.02
768.849	-0.02
769.284	-0.02
769.719	-0.02
770.154	-0.02
770.588	-0.02
771.023	-0.03
771.458	-0.03
771.893	-0.04
772.327	-0.04
772.762	-0.04
773.197	-0.04
773.631	-0.05
774.066	-0.05
774.5	-0.05
774.935	-0.05
775.369	-0.05
775.804	-0.05
776.238	-0.05
776.673	-0.05
777.107	-0.05
777.541	-0.05
777.976	-0.05
778.41	-0.05
778.844	-0.04
779.279	-0.04
779.713	-0.03
780.147	-0.03
780.581	-0.03
781.015	-0.02
781.449	-0.02
781.883	-0.02
782.317	-0.02
782.751	-0.02
783.185	-0.02
783.619	-0.02
784.053	-0.02
784.487	-0.02
784.921	-0.03
785.355	-0.03
785.789	-0.03
786.223	-0.03
786.656	-0.02
787.09	-0.02
787.524	-0.02
787.957	-0.02
788.391	-0.02
788.825	-0.02
789.258	-0.02
789.692	-0.02
790.125	-0.02
790.559	-0.02
790.992	-0.02
791.426	-0.02
791.859	-0.02
792.293	-0.01
792.726	-0
793.159	0
793.593	0
794.026	0
794.459	-0
794.892	-0.01
795.326	-0.01
795.759	-0.01
796.192	-0.01
796.625	-0.02
797.058	-0.03
797.491	-0.03
797.924	-0.04
798.357	-0.04
798.79	-0.04
799.223	-0.04
799.656	-0.04
800.089	-0.04
800.522	-0.04
800.955	-0.04
801.387	-0.04
801.82	-0.04
802.253	-0.04
802.686	-0.04
803.118	-0.04
803.551	-0.04
803.984	-0.04
804.416	-0.03
804.849	-0.03
805.281	-0.03
805.714	-0.03
806.146	-0.03
806.579	-0.03
807.011	-0.03
807.444	-0.03
807.876	-0.03
808.308	-0.03
808.741	-0.03
809.173	-0.04
809.605	-0.04
810.037	-0.04
810.47	-0.04
810.902	-0.05
811.334	-0.05
811.766	-0.04
812.198	-0.04
812.63	-0.04
813.062	-0.04
813.494	-0.04
813.926	-0.04
814.358	-0.04
814.79	-0.03
815.222	-0.03
815.654	-0.03
816.086	-0.03
816.518	-0.03
816.949	-0.04
817.381	-0.04
817.813	-0.04
818.245	-0.03
818.676	-0.03
819.108	-0.03
819.54	-0.03
819.971	-0.03
820.403	-0.03
820.834	-0.03
821.266	-0.03
821.697	-0.03
822.129	-0.03
822.56	-0.03
822.991	-0.03
823.423	-0.04
823.854	-0.04
824.286	-0.04
824.717	-0.04
825.148	-0.03
825.579	-0.03
826.01	-0.02
826.442	-0.02
826.873	-0.02
827.304	-0.02
827.735	-0.01
828.166	-0.01
828.597	-0
829.028	0
829.459	0
829.89	0.01
830.321	0.01
830.752	0.02
831.183	0.02
831.613	0.03
832.044	0.04
832.475	0.04
832.906	0.05
833.336	0.05
833.767	0.06
834.198	0.06
834.628	0.07
835.059	0.07
835.49	0.07
835.92	0.08
836.351	0.08
836.781	0.08
837.212	0.08
837.642	0.08
838.072	0.09
838.503	0.09
838.933	0.09
839.364	0.09
839.794	0.1
840.224	0.1
840.654	0.1
841.085	0.1
841.515	0.11
841.945	0.11
842.375	0.12
842.805	0.12
843.235	0.12
843.665	0.13
844.095	0.13
844.525	0.13
844.955	0.14
845.385	0.14
845.815	0.15
846.245	0.15
846.675	0.15
847.105	0.16
847.534	0.16
847.964	0.17
848.394	0.17
848.824	0.17
849.253	0.18
849.683	0.18
850.112	0.18
850.542	0.18
850.972	0.18
851.401	0.19
851.831	0.19
852.26	0.19
852.69	0.19
853.119	0.19
853.548	0.19
853.978	0.2
854.407	0.2
854.836	0.2
855.266	0.2
855.695	0.21
856.124	0.21
856.553	0.21
856.983	0.21
857.412	0.21
857.841	0.21
858.27	0.22
858.699	0.22
859.128	0.22
859.557	0.22
859.986	0.22
860.415	0.22
860.844	0.23
861.273	0.23
861.702	0.23
862.13	0.23
862.559	0.23
862.988	0.24
863.417	0.24
863.845	0.24
864.274	0.24
864.703	0.24
865.131	0.24
865.56	0.24
865.989	0.25
866.417	0.25
866.846	0.25
867.274	0.25
867.703	0.25
868.131	0.25
868.559	0.25
868.988	0.26
869.416	0.26
869.844	0.26
870.273	0.26
870.701	0.26
871.129	0.26
871.557	0.26
871.986	0.26
872.414	0.26
872.842	0.26
873.27	0.27
873.698	0.27
874.126	0.27
874.554	0.27
874.982	0.27
875.41	0.27
875.838	0.27
876.266	0.27
876.694	0.27
877.122	0.27
877.549	0.27
877.977	0.27
878.405	0.27
878.833	0.27
879.26	0.27
879.688	0.27
880.116	0.27
880.543	0.27
880.971	0.27
881.399	0.27
881.826	0.27
882.254	0.27
882.681	0.27
883.109	0.27
883.536	0.27
883.963	0.27
884.391	0.27
884.818	0.27
885.245	0.27
885.673	0.27
886.1	0.27
886.527	0.27
886.954	0.27
887.381	0.28
887.809	0.28
888.236	0.28
888.663	0.28
889.09	0.28
889.517	0.28
889.944	0.28
890.371	0.28
890.798	0.28
891.225	0.28
891.652	0.28
892.078	0.28
892.505	0.28
892.932	0.28
893.359	0.28
893.786	0.28
894.212	0.28
894.639	0.29
895.066	0.29
895.492	0.29
895.919	0.29
896.346	0.29
896.772	0.29
897.199	0.29
897.625	0.29
898.052	0.29
898.478	0.29
898.904	0.29
899.331	0.29
899.757	0.29
900.183	0.29
900.61	0.29
901.036	0.29
901.462	0.29
901.888	0.29
902.315	0.29
902.741	0.29
903.167	0.29
903.593	0.29
904.019	0.29
904.445	0.29
904.871	0.29
905.297	0.29
905.723	0.29
906.149	0.29
906.575	0.29
907.001	0.29
907.427	0.29
907.852	0.29
908.278	0.29
908.704	0.29
909.13	0.3
909.555	0.3
909.981	0.3
910.407	0.3
910.832	0.3
911.258	0.3
911.684	0.3
912.109	0.3
912.535	0.3
912.96	0.3
913.386	0.3
913.811	0.3
914.236	0.29
914.662	0.29
915.087	0.29
915.512	0.3
915.938	0.3
916.363	0.3
916.788	0.3
917.213	0.3
917.639	0.3
918.064	0.3
918.489	0.3
918.914	0.3
919.339	0.3
919.764	0.31
920.189	0.31
920.614	0.31
921.039	0.31
921.464	0.31
921.889	0.31
922.314	0.31
922.738	0.31
923.163	0.31
923.588	0.31
924.013	0.31
924.437	0.31
924.862	0.31
925.287	0.31
925.711	0.31
926.136	0.31
926.561	0.31
926.985	0.31
927.41	0.31
927.834	0.31
928.259	0.31
928.683	0.32
929.108	0.32
929.532	0.32
929.956	0.32
930.381	0.32
930.805	0.32
931.229	0.33
931.653	0.33
932.078	0.33
932.502	0.33
932.926	0.33
933.35	0.33
933.774	0.33
934.198	0.33
934.622	0.33
935.046	0.34
935.47	0.34
935.894	0.34
936.318	0.34
936.742	0.35
937.166	0.35
937.59	0.36
938.014	0.36
938.437	0.37
938.861	0.37
939.285	0.38
939.709	0.38
940.132	0.39
940.556	0.4
940.98	0.4
941.403	0.41
941.827	0.41
942.25	0.41
942.674	0.42
943.097	0.42
943.521	0.42
943.944	0.42
944.368	0.42
944.791	0.42
945.214	0.42
945.638	0.42
946.061	0.42
946.484	0.42
946.907	0.42
947.331	0.42
947.754	0.41
948.177	0.41
948.6	0.41
949.023	0.4
949.446	0.4
949.869	0.39
950.292	0.39
950.715	0.38
951.138	0.38
951.561	0.38
951.984	0.37
952.407	0.37
952.83	0.37
953.252	0.36
953.675	0.36
954.098	0.36
954.521	0.36
954.943	0.36
955.366	0.36
955.789	0.36
956.211	0.36
956.634	0.36
957.056	0.35
957.479	0.35
957.902	0.35
958.324	0.35
958.746	0.35
959.169	0.35
959.591	0.35
960.014	0.35
960.436	0.35
960.858	0.35
961.281	0.35
961.703	0.35
962.125	0.35
962.547	0.34
962.969	0.34
963.391	0.34
963.814	0.34
964.236	0.34
964.658	0.34
965.08	0.34
965.502	0.34
965.924	0.34
966.346	0.33
966.768	0.33
967.189	0.33
967.611	0.33
968.033	0.33
968.455	0.33
968.877	0.33
969.298	0.34
969.72	0.34
970.142	0.34
970.563	0.34
970.985	0.34
971.407	0.34
971.828	0.34
972.25	0.34
972.671	0.34
973.093	0.34
973.514	0.34
973.936	0.34
974.357	0.34
974.778	0.34
975.2	0.34
975.621	0.34
976.042	0.34
976.464	0.34
976.885	0.33
977.306	0.33
977.727	0.33
978.148	0.33
978.57	0.33
978.991	0.33
979.412	0.33
979.833	0.33
980.254	0.33
980.675	0.33
981.096	0.33
981.517	0.33
981.937	0.33
982.358	0.33
982.779	0.33
983.2	0.33
983.621	0.33
984.042	0.33
984.462	0.33
984.883	0.33
985.304	0.33
985.724	0.33
986.145	0.33
986.565	0.33
986.986	0.33
987.407	0.33
987.827	0.33
988.248	0.33
988.668	0.34
989.088	0.34
989.509	0.34
989.929	0.34
990.35	0.34
990.77	0.34
991.19	0.34
991.61	0.34
992.031	0.34
992.451	0.34
992.871	0.34
993.291	0.34
993.711	0.33
994.131	0.33
994.551	0.33
994.971	0.33
995.391	0.33
995.811	0.33
996.231	0.33
996.651	0.33
997.071	0.33
997.491	0.33
997.911	0.33
998.331	0.33
998.75	0.33
999.17	0.33
999.59	0.33
1000.009	0.33
1000.429	0.33
1000.849	0.33
1001.268	0.33
1001.688	0.33
1002.107	0.33
1002.527	0.33
1002.946	0.33
1003.366	0.33
1003.785	0.33
1004.205	0.33
1004.624	0.33
1005.044	0.33
1005.463	0.33
1005.882	0.33
1006.301	0.33
1006.721	0.33
1007.14	0.33
1007.559	0.33
1007.978	0.33
1008.397	0.33
1008.816	0.33
1009.235	0.33
1009.655	0.33
1010.074	0.33
1010.492	0.33
1010.911	0.33
1011.33	0.33
1011.749	0.33
1012.168	0.33
1012.587	0.33
1013.006	0.33
1013.425	0.33
1013.843	0.33
1014.262	0.33
1014.681	0.33
1015.099	0.34
1015.518	0.34
1015.937	0.34
1016.355	0.34
1016.774	0.34
1017.192	0.34
1017.611	0.34
1018.029	0.34
1018.448	0.34
1018.866	0.35
1019.285	0.35
1019.703	0.35
1020.121	0.35
1020.54	0.35
1020.958	0.35
1021.376	0.34
1021.794	0.34
1022.213	0.34
1022.631	0.34
1023.049	0.34
1023.467	0.34
1023.885	0.34
1024.303	0.34
1024.721	0.34
1025.139	0.34
1025.557	0.34
1025.975	0.34
1026.393	0.35
1026.811	0.35
1027.229	0.35
1027.647	0.35
1028.065	0.35
1028.482	0.35
1028.9	0.35
1029.318	0.36
1029.735	0.36
1030.153	0.36
1030.571	0.36
1030.988	0.36
1031.406	0.36
1031.823	0.36
1032.241	0.36
1032.659	0.37
1033.076	0.37
1033.493	0.37
1033.911	0.37
1034.328	0.37
1034.746	0.37
1035.163	0.37
1035.58	0.38
1035.997	0.38
1036.415	0.38
1036.832	0.38
1037.249	0.39
1037.666	0.39
1038.083	0.39
1038.501	0.4
1038.918	0.4
1039.335	0.4
1039.752	0.4
1040.169	0.4
1040.586	0.41
1041.003	0.41
1041.419	0.41
1041.836	0.41
1042.253	0.41
1042.67	0.42
1043.087	0.42
1043.504	0.42
1043.92	0.43
1044.337	0.43
1044.754	0.43
1045.17	0.44
1045.587	0.44
1046.004	0.44
1046.42	0.45
1046.837	0.45
1047.253	0.45
1047.67	0.46
1048.086	0.46
1048.503	0.46
1048.919	0.46
1049.335	0.46
1049.752	0.47
1050.168	0.47
1050.584	0.47
1051.001	0.48
1051.417	0.48
1051.833	0.49
1052.249	0.49
1052.665	0.5
1053.081	0.5
1053.497	0.51
1053.914	0.52
1054.33	0.52
1054.746	0.52
1055.162	0.53
1055.578	0.53
1055.993	0.53
1056.409	0.54
1056.825	0.54
1057.241	0.55
1057.657	0.55
1058.073	0.56
1058.488	0.57
1058.904	0.57
1059.32	0.58
1059.736	0.59
1060.151	0.6
1060.567	0.61
1060.982	0.61
1061.398	0.62
1061.813	0.62
1062.229	0.63
1062.644	0.63
1063.06	0.64
1063.475	0.64
1063.891	0.65
1064.306	0.66
1064.721	0.66
1065.137	0.67
1065.552	0.68
1065.967	0.69
1066.382	0.71
1066.798	0.72
1067.213	0.73
1067.628	0.74
1068.043	0.75
1068.458	0.76
1068.873	0.77
1069.288	0.78
1069.703	0.8
1070.118	0.81
1070.533	0.82
1070.948	0.84
1071.363	0.87
1071.778	0.89
1072.193	0.92
1072.607	0.95
1073.022	0.99
1073.437	1.02
1073.852	1.06
1074.266	1.09
1074.681	1.14
1075.096	1.19
1075.51	1.25
1075.925	1.32
1076.339	1.42
1076.754	1.56
1077.168	1.73
1077.583	2.07
1077.997	-0
1078.412	-0
1078.826	-0
1079.24	-0
1079.655	-0
1080.069	-0
1080.483	-0
1080.897	-0
1081.312	-0
1081.726	-0
1082.14	-0
1082.554	-0
1082.968	-0
1083.382	-0
1083.796	-0
1084.21	-0
1084.624	-0
1085.038	-0
1085.452	-0
1085.866	-0
1086.28	-0
1086.694	-0
1087.108	-0
1087.521	-0
1087.935	-0
1088.349	-0
1088.763	-0
1089.176	-0
1089.59	-0
1090.004	-0
1090.417	-0
1090.831	-0
1091.244	-0
1091.658	-0
1092.071	-0
1092.485	-0
1092.898	-0
1093.312	-0
1093.725	-0
1094.138	-0
1094.552	-0
1094.965	-0
1095.378	-0
1095.791	-0
1096.205	-0
1096.618	-0
1097.031	-0
1097.444	-0
1097.857	-0
1098.27	-0
1098.683	-0
1099.096	-0
1099.509	-0
1099.922	-0
1100.335	-0
1100.748	-0
1101.161	-0
1101.574	-0
1101.986	-0
1102.399	-0
1102.812	-0
1103.225	-0
1103.637	-0
1104.05	-0
1104.463	-0
1104.875	-0
1105.288	-0
1105.7	-0
1106.113	-0
1106.525	-0
1106.938	-0
1107.35	-0
1107.763	-0
1108.175	-0
1108.588	-0
1109	-0
1109.412	-0
1109.824	-0
1110.237	-0
1110.649	-0
1111.061	-0
