Data from redip-kinet-2-5a_Absorbance__78__00078.txt Node

Date: Fri Apr 12 13:48:06 CEST 2024
User: Laser008
Spectrometer: MAYP115816
Trigger mode: 0
Integration Time (sec): 2.000000E-1
Scans to average: 10
Electric dark correction enabled: true
Nonlinearity correction enabled: true
Boxcar width: 5
XAxis mode: Wavelengths
Number of Pixels in Spectrum: 2068
>>>>>Begin Spectral Data<<<<<
198.914	-2.24
199.384	-2.08
199.855	-1.94
200.325	-1.83
200.796	-1.75
201.266	-1.69
201.737	-1.62
202.207	-1.55
202.677	-1.5
203.147	-1.45
203.618	-1.43
204.088	-1.4
204.558	-1.38
205.028	-1.37
205.498	-1.36
205.968	-1.36
206.439	-1.36
206.909	-1.35
207.379	-1.35
207.849	-1.34
208.319	-1.34
208.789	-1.34
209.258	-1.34
209.728	-1.33
210.198	-1.33
210.668	-1.33
211.138	-1.33
211.608	-1.32
212.077	-1.32
212.547	-1.32
213.017	-1.32
213.486	-1.32
213.956	-1.32
214.426	-1.32
214.895	-1.32
215.365	-1.32
215.834	-1.32
216.304	-1.31
216.773	-1.31
217.243	-1.31
217.712	-1.31
218.181	-1.3
218.651	-1.3
219.12	-1.3
219.589	-1.3
220.058	-1.29
220.528	-1.29
220.997	-1.29
221.466	-1.28
221.935	-1.28
222.404	-1.27
222.873	-1.27
223.342	-1.26
223.812	-1.25
224.281	-1.25
224.749	-1.24
225.218	-1.23
225.687	-1.22
226.156	-1.21
226.625	-1.2
227.094	-1.18
227.563	-1.16
228.031	-1.14
228.5	-1.12
228.969	-1.1
229.438	-1.07
229.906	-1.04
230.375	-1
230.844	-0.96
231.312	-0.92
231.781	-0.88
232.249	-0.83
232.718	-0.79
233.186	-0.74
233.655	-0.69
234.123	-0.63
234.591	-0.58
235.06	-0.53
235.528	-0.48
235.996	-0.43
236.465	-0.39
236.933	-0.34
237.401	-0.29
237.869	-0.25
238.337	-0.21
238.805	-0.17
239.274	-0.13
239.742	-0.09
240.21	-0.06
240.678	-0.03
241.146	0
241.614	0.03
242.081	0.06
242.549	0.08
243.017	0.1
243.485	0.13
243.953	0.15
244.421	0.17
244.888	0.18
245.356	0.2
245.824	0.22
246.291	0.23
246.759	0.25
247.227	0.26
247.694	0.27
248.162	0.28
248.629	0.29
249.097	0.3
249.564	0.31
250.032	0.32
250.499	0.33
250.967	0.34
251.434	0.35
251.901	0.36
252.369	0.36
252.836	0.37
253.303	0.38
253.77	0.38
254.237	0.39
254.705	0.39
255.172	0.4
255.639	0.4
256.106	0.41
256.573	0.41
257.04	0.41
257.507	0.42
257.974	0.42
258.441	0.42
258.908	0.43
259.375	0.43
259.841	0.43
260.308	0.43
260.775	0.43
261.242	0.44
261.709	0.44
262.175	0.44
262.642	0.44
263.109	0.44
263.575	0.44
264.042	0.44
264.508	0.44
264.975	0.44
265.441	0.45
265.908	0.45
266.374	0.45
266.841	0.45
267.307	0.45
267.773	0.45
268.24	0.45
268.706	0.44
269.172	0.44
269.639	0.44
270.105	0.44
270.571	0.44
271.037	0.44
271.503	0.44
271.969	0.44
272.435	0.44
272.902	0.44
273.368	0.43
273.834	0.43
274.3	0.43
274.765	0.43
275.231	0.43
275.697	0.43
276.163	0.42
276.629	0.42
277.095	0.42
277.56	0.42
278.026	0.41
278.492	0.41
278.958	0.41
279.423	0.41
279.889	0.41
280.354	0.41
280.82	0.41
281.286	0.41
281.751	0.4
282.217	0.4
282.682	0.4
283.147	0.4
283.613	0.4
284.078	0.4
284.544	0.4
285.009	0.4
285.474	0.4
285.939	0.39
286.405	0.39
286.87	0.39
287.335	0.39
287.8	0.39
288.265	0.39
288.73	0.39
289.195	0.38
289.66	0.38
290.125	0.38
290.59	0.38
291.055	0.38
291.52	0.38
291.985	0.38
292.45	0.37
292.915	0.37
293.38	0.37
293.844	0.37
294.309	0.37
294.774	0.37
295.239	0.37
295.703	0.37
296.168	0.37
296.632	0.36
297.097	0.36
297.562	0.36
298.026	0.36
298.491	0.36
298.955	0.36
299.419	0.36
299.884	0.36
300.348	0.36
300.813	0.36
301.277	0.36
301.741	0.35
302.205	0.35
302.67	0.35
303.134	0.35
303.598	0.35
304.062	0.35
304.526	0.35
304.99	0.35
305.454	0.35
305.919	0.35
306.383	0.35
306.847	0.35
307.31	0.34
307.774	0.34
308.238	0.34
308.702	0.34
309.166	0.34
309.63	0.34
310.094	0.34
310.557	0.34
311.021	0.34
311.485	0.34
311.948	0.33
312.412	0.33
312.876	0.33
313.339	0.33
313.803	0.33
314.266	0.33
314.73	0.33
315.193	0.33
315.657	0.33
316.12	0.33
316.584	0.32
317.047	0.32
317.51	0.32
317.973	0.32
318.437	0.32
318.9	0.32
319.363	0.32
319.826	0.32
320.29	0.32
320.753	0.32
321.216	0.31
321.679	0.31
322.142	0.31
322.605	0.31
323.068	0.31
323.531	0.31
323.994	0.31
324.457	0.31
324.92	0.31
325.382	0.31
325.845	0.3
326.308	0.3
326.771	0.3
327.233	0.3
327.696	0.3
328.159	0.3
328.622	0.3
329.084	0.3
329.547	0.3
330.009	0.3
330.472	0.29
330.934	0.29
331.397	0.29
331.859	0.29
332.322	0.29
332.784	0.29
333.246	0.29
333.709	0.29
334.171	0.29
334.633	0.29
335.096	0.29
335.558	0.28
336.02	0.28
336.482	0.28
336.944	0.28
337.406	0.28
337.868	0.28
338.331	0.28
338.793	0.28
339.255	0.28
339.717	0.28
340.178	0.28
340.64	0.28
341.102	0.28
341.564	0.27
342.026	0.27
342.488	0.27
342.949	0.27
343.411	0.27
343.873	0.27
344.335	0.27
344.796	0.27
345.258	0.27
345.719	0.27
346.181	0.27
346.643	0.27
347.104	0.27
347.566	0.26
348.027	0.26
348.488	0.26
348.95	0.26
349.411	0.26
349.873	0.26
350.334	0.26
350.795	0.26
351.256	0.26
351.718	0.26
352.179	0.25
352.64	0.25
353.101	0.25
353.562	0.25
354.023	0.25
354.484	0.25
354.945	0.25
355.406	0.25
355.867	0.24
356.328	0.24
356.789	0.24
357.25	0.24
357.711	0.24
358.172	0.24
358.633	0.24
359.093	0.24
359.554	0.25
360.015	0.25
360.476	0.25
360.936	0.25
361.397	0.25
361.858	0.25
362.318	0.25
362.779	0.25
363.239	0.25
363.7	0.25
364.16	0.25
364.621	0.25
365.081	0.25
365.541	0.25
366.002	0.25
366.462	0.25
366.922	0.25
367.383	0.24
367.843	0.24
368.303	0.24
368.763	0.24
369.223	0.24
369.684	0.24
370.144	0.24
370.604	0.24
371.064	0.24
371.524	0.24
371.984	0.24
372.444	0.24
372.904	0.24
373.363	0.24
373.823	0.24
374.283	0.24
374.743	0.24
375.203	0.24
375.663	0.24
376.122	0.24
376.582	0.24
377.042	0.24
377.501	0.24
377.961	0.24
378.42	0.24
378.88	0.24
379.34	0.24
379.799	0.24
380.259	0.24
380.718	0.24
381.177	0.24
381.637	0.24
382.096	0.24
382.555	0.24
383.015	0.24
383.474	0.24
383.933	0.23
384.393	0.23
384.852	0.23
385.311	0.23
385.77	0.23
386.229	0.23
386.688	0.23
387.147	0.23
387.606	0.23
388.065	0.23
388.524	0.23
388.983	0.23
389.442	0.23
389.901	0.23
390.36	0.23
390.819	0.23
391.277	0.23
391.736	0.23
392.195	0.23
392.654	0.23
393.112	0.23
393.571	0.23
394.03	0.23
394.488	0.23
394.947	0.23
395.405	0.23
395.864	0.23
396.322	0.23
396.781	0.23
397.239	0.23
397.698	0.23
398.156	0.23
398.614	0.23
399.073	0.23
399.531	0.23
399.989	0.23
400.447	0.23
400.905	0.23
401.364	0.23
401.822	0.23
402.28	0.23
402.738	0.22
403.196	0.22
403.654	0.22
404.112	0.22
404.57	0.22
405.028	0.22
405.486	0.22
405.944	0.22
406.402	0.22
406.859	0.22
407.317	0.22
407.775	0.22
408.233	0.22
408.691	0.22
409.148	0.22
409.606	0.22
410.064	0.22
410.521	0.22
410.979	0.22
411.436	0.22
411.894	0.22
412.351	0.22
412.809	0.22
413.266	0.21
413.724	0.21
414.181	0.21
414.638	0.21
415.096	0.21
415.553	0.21
416.01	0.21
416.467	0.21
416.925	0.21
417.382	0.21
417.839	0.21
418.296	0.21
418.753	0.21
419.21	0.21
419.667	0.21
420.124	0.21
420.581	0.22
421.038	0.22
421.495	0.22
421.952	0.22
422.409	0.22
422.866	0.22
423.322	0.22
423.779	0.22
424.236	0.22
424.693	0.21
425.149	0.21
425.606	0.21
426.063	0.21
426.519	0.21
426.976	0.21
427.433	0.21
427.889	0.21
428.346	0.21
428.802	0.21
429.258	0.21
429.715	0.21
430.171	0.21
430.628	0.21
431.084	0.21
431.54	0.21
431.997	0.21
432.453	0.21
432.909	0.21
433.365	0.21
433.821	0.21
434.277	0.21
434.734	0.21
435.19	0.21
435.646	0.21
436.102	0.21
436.558	0.21
437.014	0.21
437.47	0.21
437.925	0.21
438.381	0.21
438.837	0.21
439.293	0.21
439.749	0.21
440.205	0.21
440.66	0.21
441.116	0.21
441.572	0.21
442.027	0.21
442.483	0.21
442.939	0.21
443.394	0.21
443.85	0.21
444.305	0.21
444.761	0.21
445.216	0.21
445.672	0.21
446.127	0.21
446.582	0.21
447.038	0.21
447.493	0.21
447.948	0.21
448.403	0.21
448.859	0.21
449.314	0.21
449.769	0.21
450.224	0.21
450.679	0.21
451.134	0.2
451.589	0.2
452.044	0.2
452.499	0.2
452.954	0.2
453.409	0.2
453.864	0.2
454.319	0.2
454.774	0.2
455.229	0.2
455.684	0.2
456.138	0.2
456.593	0.2
457.048	0.2
457.503	0.2
457.957	0.2
458.412	0.2
458.866	0.2
459.321	0.2
459.776	0.2
460.23	0.2
460.685	0.2
461.139	0.2
461.593	0.2
462.048	0.2
462.502	0.2
462.957	0.2
463.411	0.2
463.865	0.2
464.319	0.2
464.774	0.2
465.228	0.2
465.682	0.2
466.136	0.2
466.59	0.2
467.044	0.2
467.499	0.2
467.953	0.19
468.407	0.19
468.861	0.19
469.315	0.19
469.768	0.19
470.222	0.19
470.676	0.18
471.13	0.18
471.584	0.18
472.038	0.18
472.491	0.19
472.945	0.19
473.399	0.19
473.852	0.19
474.306	0.19
474.76	0.19
475.213	0.19
475.667	0.19
476.12	0.2
476.574	0.2
477.027	0.2
477.481	0.2
477.934	0.2
478.388	0.2
478.841	0.2
479.294	0.2
479.748	0.2
480.201	0.2
480.654	0.2
481.107	0.2
481.561	0.2
482.014	0.2
482.467	0.21
482.92	0.21
483.373	0.21
483.826	0.22
484.279	0.22
484.732	0.22
485.185	0.23
485.638	0.23
486.091	0.23
486.544	0.23
486.997	0.23
487.449	0.23
487.902	0.23
488.355	0.23
488.808	0.22
489.26	0.22
489.713	0.22
490.166	0.22
490.618	0.22
491.071	0.22
491.523	0.22
491.976	0.22
492.429	0.22
492.881	0.22
493.333	0.22
493.786	0.22
494.238	0.22
494.691	0.23
495.143	0.23
495.595	0.23
496.048	0.23
496.5	0.23
496.952	0.23
497.404	0.23
497.856	0.23
498.309	0.24
498.761	0.24
499.213	0.24
499.665	0.24
500.117	0.24
500.569	0.24
501.021	0.24
501.473	0.24
501.925	0.25
502.377	0.25
502.828	0.25
503.28	0.25
503.732	0.25
504.184	0.25
504.636	0.25
505.087	0.25
505.539	0.25
505.991	0.25
506.442	0.25
506.894	0.25
507.345	0.25
507.797	0.25
508.249	0.25
508.7	0.25
509.151	0.25
509.603	0.25
510.054	0.26
510.506	0.26
510.957	0.26
511.408	0.26
511.86	0.25
512.311	0.25
512.762	0.25
513.213	0.25
513.665	0.25
514.116	0.25
514.567	0.25
515.018	0.25
515.469	0.25
515.92	0.25
516.371	0.24
516.822	0.24
517.273	0.25
517.724	0.25
518.175	0.25
518.626	0.25
519.076	0.24
519.527	0.24
519.978	0.24
520.429	0.24
520.88	0.24
521.33	0.23
521.781	0.23
522.232	0.23
522.682	0.22
523.133	0.22
523.583	0.22
524.034	0.22
524.484	0.22
524.935	0.22
525.385	0.22
525.836	0.22
526.286	0.23
526.736	0.23
527.187	0.24
527.637	0.24
528.087	0.24
528.538	0.25
528.988	0.25
529.438	0.25
529.888	0.25
530.338	0.25
530.788	0.26
531.238	0.26
531.688	0.26
532.139	0.26
532.589	0.26
533.038	0.26
533.488	0.26
533.938	0.26
534.388	0.26
534.838	0.26
535.288	0.26
535.738	0.26
536.187	0.26
536.637	0.26
537.087	0.26
537.537	0.26
537.986	0.26
538.436	0.25
538.885	0.25
539.335	0.25
539.785	0.25
540.234	0.25
540.684	0.25
541.133	0.25
541.582	0.25
542.032	0.25
542.481	0.25
542.931	0.25
543.38	0.24
543.829	0.24
544.278	0.24
544.728	0.24
545.177	0.24
545.626	0.24
546.075	0.24
546.524	0.24
546.973	0.24
547.422	0.23
547.871	0.23
548.32	0.23
548.769	0.22
549.218	0.22
549.667	0.22
550.116	0.21
550.565	0.21
551.014	0.21
551.463	0.2
551.911	0.2
552.36	0.2
552.809	0.2
553.258	0.2
553.706	0.2
554.155	0.2
554.603	0.19
555.052	0.19
555.501	0.19
555.949	0.18
556.398	0.18
556.846	0.18
557.294	0.17
557.743	0.17
558.191	0.17
558.64	0.16
559.088	0.16
559.536	0.16
559.985	0.16
560.433	0.16
560.881	0.16
561.329	0.16
561.777	0.16
562.225	0.16
562.674	0.16
563.122	0.16
563.57	0.15
564.018	0.15
564.466	0.15
564.914	0.15
565.362	0.14
565.809	0.14
566.257	0.14
566.705	0.14
567.153	0.14
567.601	0.14
568.048	0.14
568.496	0.15
568.944	0.15
569.392	0.15
569.839	0.15
570.287	0.15
570.734	0.16
571.182	0.16
571.63	0.16
572.077	0.16
572.525	0.16
572.972	0.16
573.419	0.16
573.867	0.16
574.314	0.16
574.761	0.16
575.209	0.16
575.656	0.16
576.103	0.16
576.551	0.16
576.998	0.15
577.445	0.15
577.892	0.15
578.339	0.15
578.786	0.15
579.233	0.15
579.68	0.15
580.127	0.15
580.574	0.15
581.021	0.15
581.468	0.14
581.915	0.14
582.362	0.14
582.809	0.14
583.255	0.14
583.702	0.14
584.149	0.14
584.596	0.13
585.042	0.13
585.489	0.13
585.936	0.13
586.382	0.13
586.829	0.13
587.275	0.13
587.722	0.12
588.168	0.12
588.615	0.12
589.061	0.12
589.508	0.11
589.954	0.11
590.4	0.11
590.847	0.11
591.293	0.11
591.739	0.11
592.185	0.11
592.632	0.11
593.078	0.11
593.524	0.11
593.97	0.11
594.416	0.11
594.862	0.11
595.308	0.11
595.754	0.1
596.2	0.1
596.646	0.1
597.092	0.1
597.538	0.1
597.984	0.11
598.43	0.11
598.876	0.11
599.321	0.11
599.767	0.11
600.213	0.11
600.659	0.11
601.104	0.1
601.55	0.1
601.995	0.1
602.441	0.1
602.887	0.1
603.332	0.1
603.778	0.1
604.223	0.1
604.668	0.1
605.114	0.1
605.559	0.1
606.005	0.1
606.45	0.1
606.895	0.1
607.341	0.1
607.786	0.1
608.231	0.1
608.676	0.1
609.121	0.1
609.566	0.1
610.012	0.1
610.457	0.1
610.902	0.1
611.347	0.1
611.792	0.1
612.237	0.1
612.682	0.11
613.127	0.11
613.571	0.11
614.016	0.1
614.461	0.1
614.906	0.1
615.351	0.1
615.795	0.1
616.24	0.1
616.685	0.1
617.129	0.1
617.574	0.1
618.019	0.1
618.463	0.09
618.908	0.09
619.352	0.09
619.797	0.09
620.241	0.1
620.686	0.1
621.13	0.1
621.574	0.1
622.019	0.1
622.463	0.1
622.907	0.1
623.352	0.1
623.796	0.1
624.24	0.1
624.684	0.1
625.128	0.1
625.572	0.1
626.016	0.1
626.461	0.1
626.905	0.1
627.349	0.11
627.793	0.11
628.236	0.11
628.68	0.11
629.124	0.11
629.568	0.11
630.012	0.11
630.456	0.11
630.9	0.11
631.343	0.11
631.787	0.11
632.231	0.11
632.674	0.11
633.118	0.11
633.562	0.11
634.005	0.11
634.449	0.11
634.892	0.11
635.336	0.12
635.779	0.12
636.223	0.12
636.666	0.12
637.109	0.12
637.553	0.13
637.996	0.13
638.439	0.13
638.883	0.13
639.326	0.13
639.769	0.13
640.212	0.13
640.655	0.14
641.099	0.14
641.542	0.14
641.985	0.14
642.428	0.15
642.871	0.15
643.314	0.15
643.757	0.15
644.2	0.16
644.643	0.16
645.085	0.16
645.528	0.17
645.971	0.17
646.414	0.17
646.857	0.18
647.299	0.18
647.742	0.18
648.185	0.19
648.627	0.19
649.07	0.19
649.513	0.2
649.955	0.2
650.398	0.2
650.84	0.2
651.283	0.21
651.725	0.21
652.168	0.21
652.61	0.21
653.052	0.22
653.495	0.22
653.937	0.18
654.379	0.15
654.821	0.16
655.264	0.16
655.706	0.16
656.148	0.17
656.59	0.17
657.032	0.17
657.474	0.17
657.916	0.17
658.358	0.17
658.8	0.22
659.242	0.27
659.684	0.27
660.126	0.27
660.568	0.27
661.01	0.27
661.452	0.27
661.894	0.28
662.335	0.28
662.777	0.28
663.219	0.29
663.661	0.29
664.102	0.29
664.544	0.3
664.985	0.3
665.427	0.3
665.869	0.31
666.31	0.31
666.752	0.31
667.193	0.31
667.634	0.32
668.076	0.32
668.517	0.32
668.959	0.33
669.4	0.33
669.841	0.34
670.282	0.34
670.724	0.34
671.165	0.35
671.606	0.35
672.047	0.35
672.488	0.35
672.929	0.35
673.37	0.35
673.811	0.35
674.252	0.35
674.693	0.35
675.134	0.35
675.575	0.36
676.016	0.36
676.457	0.36
676.898	0.36
677.339	0.37
677.78	0.37
678.22	0.37
678.661	0.38
679.102	0.38
679.542	0.38
679.983	0.38
680.424	0.38
680.864	0.38
681.305	0.39
681.745	0.39
682.186	0.39
682.626	0.39
683.067	0.39
683.507	0.39
683.948	0.4
684.388	0.4
684.828	0.4
685.269	0.4
685.709	0.4
686.149	0.4
686.589	0.4
687.029	0.4
687.47	0.4
687.91	0.4
688.35	0.4
688.79	0.4
689.23	0.4
689.67	0.4
690.11	0.4
690.55	0.4
690.99	0.4
691.43	0.4
691.87	0.4
692.31	0.4
692.749	0.4
693.189	0.4
693.629	0.4
694.069	0.4
694.508	0.39
694.948	0.4
695.388	0.4
695.827	0.4
696.267	0.39
696.706	0.39
697.146	0.39
697.586	0.39
698.025	0.39
698.464	0.39
698.904	0.38
699.343	0.38
699.783	0.38
700.222	0.38
700.661	0.38
701.101	0.37
701.54	0.37
701.979	0.37
702.418	0.37
702.857	0.37
703.297	0.37
703.736	0.36
704.175	0.36
704.614	0.36
705.053	0.36
705.492	0.36
705.931	0.36
706.37	0.36
706.809	0.35
707.248	0.35
707.687	0.35
708.125	0.35
708.564	0.35
709.003	0.34
709.442	0.34
709.88	0.34
710.319	0.33
710.758	0.33
711.196	0.32
711.635	0.32
712.074	0.32
712.512	0.32
712.951	0.32
713.389	0.31
713.828	0.31
714.266	0.31
714.705	0.3
715.143	0.3
715.581	0.3
716.02	0.29
716.458	0.29
716.896	0.29
717.334	0.28
717.773	0.28
718.211	0.28
718.649	0.27
719.087	0.27
719.525	0.27
719.963	0.27
720.401	0.26
720.839	0.26
721.277	0.26
721.715	0.25
722.153	0.25
722.591	0.25
723.029	0.24
723.467	0.24
723.905	0.24
724.342	0.24
724.78	0.23
725.218	0.23
725.656	0.23
726.093	0.23
726.531	0.22
726.969	0.22
727.406	0.22
727.844	0.22
728.281	0.22
728.719	0.21
729.156	0.21
729.594	0.21
730.031	0.21
730.469	0.21
730.906	0.21
731.343	0.2
731.781	0.2
732.218	0.2
732.655	0.2
733.092	0.19
733.53	0.19
733.967	0.19
734.404	0.18
734.841	0.18
735.278	0.18
735.715	0.17
736.152	0.17
736.589	0.17
737.026	0.16
737.463	0.16
737.9	0.16
738.337	0.16
738.774	0.15
739.211	0.15
739.647	0.15
740.084	0.14
740.521	0.14
740.958	0.14
741.394	0.13
741.831	0.13
742.268	0.12
742.704	0.12
743.141	0.11
743.577	0.11
744.014	0.11
744.45	0.1
744.887	0.1
745.323	0.1
745.76	0.1
746.196	0.1
746.632	0.1
747.069	0.1
747.505	0.1
747.941	0.09
748.378	0.09
748.814	0.09
749.25	0.09
749.686	0.09
750.122	0.09
750.558	0.09
750.994	0.09
751.43	0.09
751.866	0.09
752.302	0.09
752.738	0.09
753.174	0.08
753.61	0.08
754.046	0.08
754.482	0.08
754.918	0.08
755.354	0.08
755.789	0.08
756.225	0.08
756.661	0.08
757.096	0.08
757.532	0.08
757.968	0.08
758.403	0.08
758.839	0.08
759.274	0.07
759.71	0.07
760.145	0.07
760.581	0.06
761.016	0.06
761.452	0.06
761.887	0.06
762.322	0.06
762.758	0.05
763.193	0.05
763.628	0.05
764.063	0.05
764.499	0.04
764.934	0.04
765.369	0.04
765.804	0.04
766.239	0.03
766.674	0.03
767.109	0.03
767.544	0.03
767.979	0.02
768.414	0.02
768.849	0.02
769.284	0.02
769.719	0.02
770.154	0.02
770.588	0.01
771.023	0.01
771.458	0.01
771.893	0
772.327	-0
772.762	-0
773.197	-0.01
773.631	-0.01
774.066	-0.01
774.5	-0.02
774.935	-0.02
775.369	-0.02
775.804	-0.03
776.238	-0.03
776.673	-0.04
777.107	-0.04
777.541	-0.05
777.976	-0.06
778.41	-0.06
778.844	-0.07
779.279	-0.06
779.713	-0.07
780.147	-0.07
780.581	-0.07
781.015	-0.07
781.449	-0.07
781.883	-0.07
782.317	-0.07
782.751	-0.07
783.185	-0.06
783.619	-0.07
784.053	-0.07
784.487	-0.07
784.921	-0.07
785.355	-0.07
785.789	-0.07
786.223	-0.07
786.656	-0.07
787.09	-0.06
787.524	-0.06
787.957	-0.06
788.391	-0.06
788.825	-0.06
789.258	-0.06
789.692	-0.06
790.125	-0.06
790.559	-0.06
790.992	-0.06
791.426	-0.06
791.859	-0.06
792.293	-0.05
792.726	-0.05
793.159	-0.04
793.593	-0.04
794.026	-0.04
794.459	-0.05
794.892	-0.05
795.326	-0.05
795.759	-0.05
796.192	-0.05
796.625	-0.06
797.058	-0.07
797.491	-0.08
797.924	-0.08
798.357	-0.08
798.79	-0.08
799.223	-0.08
799.656	-0.08
800.089	-0.08
800.522	-0.08
800.955	-0.08
801.387	-0.08
801.82	-0.08
802.253	-0.09
802.686	-0.09
803.118	-0.09
803.551	-0.09
803.984	-0.08
804.416	-0.08
804.849	-0.07
805.281	-0.07
805.714	-0.07
806.146	-0.07
806.579	-0.07
807.011	-0.07
807.444	-0.07
807.876	-0.07
808.308	-0.07
808.741	-0.08
809.173	-0.08
809.605	-0.08
810.037	-0.09
810.47	-0.09
810.902	-0.09
811.334	-0.09
811.766	-0.09
812.198	-0.08
812.63	-0.08
813.062	-0.08
813.494	-0.08
813.926	-0.08
814.358	-0.08
814.79	-0.08
815.222	-0.08
815.654	-0.07
816.086	-0.07
816.518	-0.08
816.949	-0.08
817.381	-0.08
817.813	-0.08
818.245	-0.08
818.676	-0.07
819.108	-0.07
819.54	-0.07
819.971	-0.07
820.403	-0.08
820.834	-0.08
821.266	-0.08
821.697	-0.08
822.129	-0.08
822.56	-0.08
822.991	-0.08
823.423	-0.08
823.854	-0.08
824.286	-0.08
824.717	-0.07
825.148	-0.07
825.579	-0.06
826.01	-0.06
826.442	-0.05
826.873	-0.04
827.304	-0.03
827.735	-0.03
828.166	-0.02
828.597	-0.02
829.028	-0.01
829.459	-0.01
829.89	-0.01
830.321	-0
830.752	-0
831.183	0
831.613	0
832.044	0.01
832.475	0.01
832.906	0.01
833.336	0.01
833.767	0.01
834.198	0.01
834.628	0.02
835.059	0.02
835.49	0.02
835.92	0.02
836.351	0.02
836.781	0.02
837.212	0.02
837.642	0.02
838.072	0.02
838.503	0.03
838.933	0.03
839.364	0.03
839.794	0.03
840.224	0.03
840.654	0.03
841.085	0.03
841.515	0.03
841.945	0.03
842.375	0.03
842.805	0.03
843.235	0.03
843.665	0.03
844.095	0.03
844.525	0.03
844.955	0.03
845.385	0.03
845.815	0.04
846.245	0.04
846.675	0.04
847.105	0.04
847.534	0.04
847.964	0.04
848.394	0.04
848.824	0.04
849.253	0.04
849.683	0.04
850.112	0.04
850.542	0.04
850.972	0.04
851.401	0.04
851.831	0.04
852.26	0.05
852.69	0.05
853.119	0.05
853.548	0.05
853.978	0.05
854.407	0.05
854.836	0.05
855.266	0.05
855.695	0.05
856.124	0.05
856.553	0.05
856.983	0.05
857.412	0.05
857.841	0.05
858.27	0.05
858.699	0.05
859.128	0.05
859.557	0.05
859.986	0.05
860.415	0.05
860.844	0.05
861.273	0.05
861.702	0.05
862.13	0.06
862.559	0.06
862.988	0.06
863.417	0.06
863.845	0.06
864.274	0.06
864.703	0.06
865.131	0.06
865.56	0.06
865.989	0.06
866.417	0.06
866.846	0.06
867.274	0.06
867.703	0.06
868.131	0.06
868.559	0.06
868.988	0.06
869.416	0.06
869.844	0.06
870.273	0.07
870.701	0.07
871.129	0.07
871.557	0.07
871.986	0.07
872.414	0.07
872.842	0.07
873.27	0.07
873.698	0.07
874.126	0.07
874.554	0.07
874.982	0.07
875.41	0.07
875.838	0.07
876.266	0.07
876.694	0.07
877.122	0.07
877.549	0.07
877.977	0.07
878.405	0.07
878.833	0.07
879.26	0.07
879.688	0.07
880.116	0.07
880.543	0.07
880.971	0.07
881.399	0.07
881.826	0.07
882.254	0.07
882.681	0.07
883.109	0.07
883.536	0.06
883.963	0.06
884.391	0.06
884.818	0.06
885.245	0.07
885.673	0.07
886.1	0.07
886.527	0.07
886.954	0.07
887.381	0.07
887.809	0.07
888.236	0.07
888.663	0.07
889.09	0.07
889.517	0.07
889.944	0.07
890.371	0.07
890.798	0.07
891.225	0.07
891.652	0.07
892.078	0.07
892.505	0.07
892.932	0.07
893.359	0.06
893.786	0.06
894.212	0.06
894.639	0.06
895.066	0.06
895.492	0.06
895.919	0.06
896.346	0.07
896.772	0.07
897.199	0.07
897.625	0.07
898.052	0.07
898.478	0.07
898.904	0.07
899.331	0.07
899.757	0.07
900.183	0.07
900.61	0.07
901.036	0.07
901.462	0.07
901.888	0.07
902.315	0.07
902.741	0.07
903.167	0.07
903.593	0.07
904.019	0.07
904.445	0.07
904.871	0.07
905.297	0.07
905.723	0.07
906.149	0.07
906.575	0.07
907.001	0.07
907.427	0.07
907.852	0.07
908.278	0.07
908.704	0.07
909.13	0.07
909.555	0.07
909.981	0.07
910.407	0.07
910.832	0.07
911.258	0.07
911.684	0.07
912.109	0.07
912.535	0.07
912.96	0.07
913.386	0.07
913.811	0.07
914.236	0.07
914.662	0.07
915.087	0.07
915.512	0.07
915.938	0.07
916.363	0.07
916.788	0.07
917.213	0.07
917.639	0.07
918.064	0.07
918.489	0.07
918.914	0.07
919.339	0.07
919.764	0.07
920.189	0.07
920.614	0.07
921.039	0.07
921.464	0.07
921.889	0.07
922.314	0.07
922.738	0.07
923.163	0.07
923.588	0.07
924.013	0.07
924.437	0.07
924.862	0.07
925.287	0.07
925.711	0.07
926.136	0.07
926.561	0.07
926.985	0.07
927.41	0.07
927.834	0.07
928.259	0.07
928.683	0.08
929.108	0.08
929.532	0.08
929.956	0.08
930.381	0.08
930.805	0.08
931.229	0.08
931.653	0.08
932.078	0.08
932.502	0.08
932.926	0.08
933.35	0.08
933.774	0.08
934.198	0.08
934.622	0.08
935.046	0.08
935.47	0.08
935.894	0.08
936.318	0.08
936.742	0.08
937.166	0.08
937.59	0.08
938.014	0.08
938.437	0.08
938.861	0.08
939.285	0.08
939.709	0.08
940.132	0.08
940.556	0.08
940.98	0.08
941.403	0.09
941.827	0.09
942.25	0.09
942.674	0.09
943.097	0.09
943.521	0.09
943.944	0.09
944.368	0.09
944.791	0.09
945.214	0.09
945.638	0.09
946.061	0.09
946.484	0.09
946.907	0.09
947.331	0.09
947.754	0.09
948.177	0.09
948.6	0.09
949.023	0.09
949.446	0.09
949.869	0.09
950.292	0.09
950.715	0.09
951.138	0.09
951.561	0.08
951.984	0.08
952.407	0.08
952.83	0.08
953.252	0.08
953.675	0.08
954.098	0.08
954.521	0.08
954.943	0.08
955.366	0.08
955.789	0.08
956.211	0.08
956.634	0.08
957.056	0.08
957.479	0.08
957.902	0.08
958.324	0.08
958.746	0.09
959.169	0.09
959.591	0.09
960.014	0.09
960.436	0.09
960.858	0.09
961.281	0.09
961.703	0.09
962.125	0.09
962.547	0.09
962.969	0.09
963.391	0.09
963.814	0.08
964.236	0.08
964.658	0.08
965.08	0.08
965.502	0.08
965.924	0.08
966.346	0.08
966.768	0.08
967.189	0.08
967.611	0.08
968.033	0.08
968.455	0.08
968.877	0.08
969.298	0.08
969.72	0.09
970.142	0.09
970.563	0.09
970.985	0.09
971.407	0.09
971.828	0.09
972.25	0.09
972.671	0.09
973.093	0.09
973.514	0.09
973.936	0.09
974.357	0.09
974.778	0.09
975.2	0.09
975.621	0.09
976.042	0.09
976.464	0.09
976.885	0.09
977.306	0.09
977.727	0.09
978.148	0.09
978.57	0.08
978.991	0.08
979.412	0.08
979.833	0.08
980.254	0.08
980.675	0.08
981.096	0.08
981.517	0.09
981.937	0.09
982.358	0.09
982.779	0.09
983.2	0.09
983.621	0.09
984.042	0.09
984.462	0.09
984.883	0.09
985.304	0.09
985.724	0.09
986.145	0.09
986.565	0.09
986.986	0.09
987.407	0.09
987.827	0.09
988.248	0.09
988.668	0.09
989.088	0.09
989.509	0.09
989.929	0.09
990.35	0.09
990.77	0.09
991.19	0.09
991.61	0.09
992.031	0.09
992.451	0.09
992.871	0.09
993.291	0.09
993.711	0.09
994.131	0.09
994.551	0.09
994.971	0.09
995.391	0.09
995.811	0.09
996.231	0.09
996.651	0.09
997.071	0.09
997.491	0.09
997.911	0.09
998.331	0.09
998.75	0.09
999.17	0.09
999.59	0.09
1000.009	0.09
1000.429	0.09
1000.849	0.09
1001.268	0.09
1001.688	0.09
1002.107	0.09
1002.527	0.09
1002.946	0.09
1003.366	0.09
1003.785	0.09
1004.205	0.09
1004.624	0.09
1005.044	0.09
1005.463	0.09
1005.882	0.09
1006.301	0.09
1006.721	0.09
1007.14	0.09
1007.559	0.09
1007.978	0.09
1008.397	0.09
1008.816	0.09
1009.235	0.09
1009.655	0.09
1010.074	0.09
1010.492	0.09
1010.911	0.09
1011.33	0.09
1011.749	0.09
1012.168	0.09
1012.587	0.09
1013.006	0.09
1013.425	0.09
1013.843	0.09
1014.262	0.09
1014.681	0.09
1015.099	0.09
1015.518	0.09
1015.937	0.09
1016.355	0.09
1016.774	0.09
1017.192	0.09
1017.611	0.09
1018.029	0.09
1018.448	0.09
1018.866	0.09
1019.285	0.09
1019.703	0.09
1020.121	0.09
1020.54	0.09
1020.958	0.09
1021.376	0.09
1021.794	0.09
1022.213	0.09
1022.631	0.09
1023.049	0.09
1023.467	0.09
1023.885	0.09
1024.303	0.09
1024.721	0.09
1025.139	0.09
1025.557	0.09
1025.975	0.09
1026.393	0.09
1026.811	0.09
1027.229	0.09
1027.647	0.09
1028.065	0.09
1028.482	0.09
1028.9	0.1
1029.318	0.1
1029.735	0.1
1030.153	0.1
1030.571	0.1
1030.988	0.1
1031.406	0.1
1031.823	0.1
1032.241	0.1
1032.659	0.1
1033.076	0.1
1033.493	0.1
1033.911	0.1
1034.328	0.1
1034.746	0.1
1035.163	0.1
1035.58	0.1
1035.997	0.1
1036.415	0.1
1036.832	0.11
1037.249	0.11
1037.666	0.11
1038.083	0.11
1038.501	0.11
1038.918	0.11
1039.335	0.11
1039.752	0.11
1040.169	0.11
1040.586	0.11
1041.003	0.11
1041.419	0.11
1041.836	0.11
1042.253	0.12
1042.67	0.12
1043.087	0.12
1043.504	0.12
1043.92	0.12
1044.337	0.12
1044.754	0.12
1045.17	0.12
1045.587	0.12
1046.004	0.12
1046.42	0.12
1046.837	0.12
1047.253	0.12
1047.67	0.12
1048.086	0.12
1048.503	0.13
1048.919	0.13
1049.335	0.13
1049.752	0.13
1050.168	0.13
1050.584	0.13
1051.001	0.13
1051.417	0.13
1051.833	0.13
1052.249	0.13
1052.665	0.13
1053.081	0.13
1053.497	0.13
1053.914	0.13
1054.33	0.13
1054.746	0.13
1055.162	0.14
1055.578	0.14
1055.993	0.14
1056.409	0.14
1056.825	0.14
1057.241	0.14
1057.657	0.14
1058.073	0.14
1058.488	0.15
1058.904	0.15
1059.32	0.15
1059.736	0.15
1060.151	0.15
1060.567	0.16
1060.982	0.16
1061.398	0.16
1061.813	0.16
1062.229	0.16
1062.644	0.16
1063.06	0.16
1063.475	0.16
1063.891	0.17
1064.306	0.17
1064.721	0.17
1065.137	0.17
1065.552	0.17
1065.967	0.18
1066.382	0.18
1066.798	0.18
1067.213	0.18
1067.628	0.18
1068.043	0.18
1068.458	0.19
1068.873	0.19
1069.288	0.19
1069.703	0.19
1070.118	0.19
1070.533	0.19
1070.948	0.2
1071.363	0.2
1071.778	0.2
1072.193	0.21
1072.607	0.21
1073.022	0.21
1073.437	0.22
1073.852	0.22
1074.266	0.22
1074.681	0.23
1075.096	0.23
1075.51	0.23
1075.925	0.24
1076.339	0.24
1076.754	0.25
1077.168	0.25
1077.583	0.26
1077.997	0.26
1078.412	0.26
1078.826	0.27
1079.24	0.27
1079.655	0.28
1080.069	0.28
1080.483	0.28
1080.897	0.29
1081.312	0.29
1081.726	0.29
1082.14	0.3
1082.554	0.3
1082.968	0.31
1083.382	0.32
1083.796	0.32
1084.21	0.33
1084.624	0.34
1085.038	0.35
1085.452	0.35
1085.866	0.36
1086.28	0.37
1086.694	0.38
1087.108	0.39
1087.521	0.4
1087.935	0.41
1088.349	0.43
1088.763	0.44
1089.176	0.46
1089.59	0.48
1090.004	0.5
1090.417	0.52
1090.831	0.55
1091.244	0.58
1091.658	0.61
1092.071	0.64
1092.485	0.68
1092.898	0.72
1093.312	0.77
1093.725	0.83
1094.138	0.9
1094.552	0.99
1094.965	1.11
1095.378	1.29
1095.791	1.63
1096.205	-0
1096.618	-0
1097.031	-0
1097.444	-0
1097.857	-0
1098.27	-0
1098.683	-0
1099.096	-0
1099.509	-0
1099.922	-0
1100.335	-0
1100.748	-0
1101.161	-0
1101.574	-0
1101.986	-0
1102.399	-0
1102.812	-0
1103.225	-0
1103.637	-0
1104.05	-0
1104.463	-0
1104.875	-0
1105.288	-0
1105.7	-0
1106.113	-0
1106.525	-0
1106.938	-0
1107.35	-0
1107.763	-0
1108.175	-0
1108.588	-0
1109	-0
1109.412	-0
1109.824	-0
1110.237	-0
1110.649	-0
1111.061	-0
