Data from 2024-02-06-100ns-20nr-25nacl-100h2o-7bp2-40to10hyt-dark-0_5cpm_Absorbance__87__00087.txt Node

Date: Tue Feb 06 10:55:29 CET 2024
User: Laser008
Spectrometer: MAYP115816
Trigger mode: 0
Integration Time (sec): 2.000000E-1
Scans to average: 10
Electric dark correction enabled: true
Nonlinearity correction enabled: true
Boxcar width: 5
XAxis mode: Wavelengths
Number of Pixels in Spectrum: 2068
>>>>>Begin Spectral Data<<<<<
198.914	-0.3
199.384	-0.26
199.855	-0.2
200.325	-0.15
200.796	-0.12
201.266	-0.11
201.737	-0.1
202.207	-0.09
202.677	-0.08
203.147	-0.08
203.618	-0.07
204.088	-0.06
204.558	-0.05
205.028	-0.05
205.498	-0.05
205.968	-0.05
206.439	-0.05
206.909	-0.05
207.379	-0.05
207.849	-0.05
208.319	-0.05
208.789	-0.05
209.258	-0.05
209.728	-0.05
210.198	-0.05
210.668	-0.05
211.138	-0.06
211.608	-0.05
212.077	-0.06
212.547	-0.06
213.017	-0.05
213.486	-0.06
213.956	-0.05
214.426	-0.05
214.895	-0.05
215.365	-0.05
215.834	-0.05
216.304	-0.05
216.773	-0.05
217.243	-0.05
217.712	-0.05
218.181	-0.04
218.651	-0.04
219.12	-0.04
219.589	-0.04
220.058	-0.04
220.528	-0.04
220.997	-0.04
221.466	-0.03
221.935	-0.03
222.404	-0.03
222.873	-0.03
223.342	-0.03
223.812	-0.02
224.281	-0.02
224.749	-0.01
225.218	-0.01
225.687	-0
226.156	0.01
226.625	0.01
227.094	0.02
227.563	0.03
228.031	0.04
228.5	0.05
228.969	0.06
229.438	0.08
229.906	0.1
230.375	0.12
230.844	0.14
231.312	0.15
231.781	0.17
232.249	0.19
232.718	0.21
233.186	0.23
233.655	0.25
234.123	0.27
234.591	0.28
235.06	0.3
235.528	0.31
235.996	0.32
236.465	0.33
236.933	0.34
237.401	0.35
237.869	0.36
238.337	0.37
238.805	0.37
239.274	0.38
239.742	0.39
240.21	0.39
240.678	0.4
241.146	0.4
241.614	0.4
242.081	0.41
242.549	0.41
243.017	0.41
243.485	0.42
243.953	0.42
244.421	0.42
244.888	0.43
245.356	0.43
245.824	0.43
246.291	0.43
246.759	0.44
247.227	0.44
247.694	0.44
248.162	0.44
248.629	0.44
249.097	0.45
249.564	0.45
250.032	0.45
250.499	0.45
250.967	0.46
251.434	0.46
251.901	0.46
252.369	0.46
252.836	0.46
253.303	0.46
253.77	0.47
254.237	0.47
254.705	0.47
255.172	0.47
255.639	0.47
256.106	0.47
256.573	0.47
257.04	0.47
257.507	0.47
257.974	0.47
258.441	0.47
258.908	0.47
259.375	0.47
259.841	0.47
260.308	0.47
260.775	0.47
261.242	0.47
261.709	0.47
262.175	0.47
262.642	0.47
263.109	0.47
263.575	0.47
264.042	0.47
264.508	0.47
264.975	0.47
265.441	0.47
265.908	0.47
266.374	0.46
266.841	0.46
267.307	0.46
267.773	0.46
268.24	0.46
268.706	0.46
269.172	0.45
269.639	0.45
270.105	0.45
270.571	0.45
271.037	0.44
271.503	0.44
271.969	0.44
272.435	0.44
272.902	0.43
273.368	0.43
273.834	0.43
274.3	0.43
274.765	0.42
275.231	0.42
275.697	0.42
276.163	0.42
276.629	0.41
277.095	0.41
277.56	0.41
278.026	0.41
278.492	0.4
278.958	0.4
279.423	0.4
279.889	0.39
280.354	0.39
280.82	0.39
281.286	0.39
281.751	0.38
282.217	0.38
282.682	0.38
283.147	0.38
283.613	0.37
284.078	0.37
284.544	0.37
285.009	0.37
285.474	0.36
285.939	0.36
286.405	0.36
286.87	0.36
287.335	0.35
287.8	0.35
288.265	0.35
288.73	0.35
289.195	0.35
289.66	0.34
290.125	0.34
290.59	0.34
291.055	0.34
291.52	0.34
291.985	0.34
292.45	0.33
292.915	0.33
293.38	0.33
293.844	0.33
294.309	0.33
294.774	0.33
295.239	0.32
295.703	0.32
296.168	0.32
296.632	0.32
297.097	0.32
297.562	0.32
298.026	0.32
298.491	0.32
298.955	0.32
299.419	0.31
299.884	0.31
300.348	0.31
300.813	0.31
301.277	0.31
301.741	0.31
302.205	0.31
302.67	0.31
303.134	0.31
303.598	0.31
304.062	0.31
304.526	0.31
304.99	0.3
305.454	0.3
305.919	0.3
306.383	0.3
306.847	0.3
307.31	0.3
307.774	0.3
308.238	0.3
308.702	0.3
309.166	0.3
309.63	0.3
310.094	0.3
310.557	0.3
311.021	0.3
311.485	0.29
311.948	0.29
312.412	0.29
312.876	0.29
313.339	0.29
313.803	0.29
314.266	0.29
314.73	0.29
315.193	0.29
315.657	0.29
316.12	0.29
316.584	0.29
317.047	0.29
317.51	0.29
317.973	0.29
318.437	0.28
318.9	0.28
319.363	0.28
319.826	0.28
320.29	0.28
320.753	0.28
321.216	0.28
321.679	0.28
322.142	0.28
322.605	0.28
323.068	0.28
323.531	0.28
323.994	0.28
324.457	0.28
324.92	0.28
325.382	0.28
325.845	0.27
326.308	0.27
326.771	0.27
327.233	0.27
327.696	0.27
328.159	0.27
328.622	0.27
329.084	0.27
329.547	0.27
330.009	0.27
330.472	0.27
330.934	0.27
331.397	0.27
331.859	0.27
332.322	0.27
332.784	0.27
333.246	0.27
333.709	0.27
334.171	0.27
334.633	0.26
335.096	0.26
335.558	0.26
336.02	0.26
336.482	0.26
336.944	0.26
337.406	0.26
337.868	0.26
338.331	0.26
338.793	0.26
339.255	0.26
339.717	0.26
340.178	0.26
340.64	0.26
341.102	0.26
341.564	0.26
342.026	0.26
342.488	0.26
342.949	0.26
343.411	0.26
343.873	0.26
344.335	0.26
344.796	0.26
345.258	0.26
345.719	0.26
346.181	0.26
346.643	0.26
347.104	0.26
347.566	0.25
348.027	0.25
348.488	0.25
348.95	0.25
349.411	0.25
349.873	0.25
350.334	0.25
350.795	0.25
351.256	0.25
351.718	0.25
352.179	0.25
352.64	0.25
353.101	0.25
353.562	0.25
354.023	0.25
354.484	0.25
354.945	0.25
355.406	0.25
355.867	0.25
356.328	0.25
356.789	0.25
357.25	0.25
357.711	0.25
358.172	0.25
358.633	0.25
359.093	0.25
359.554	0.25
360.015	0.25
360.476	0.25
360.936	0.25
361.397	0.25
361.858	0.25
362.318	0.25
362.779	0.25
363.239	0.25
363.7	0.25
364.16	0.25
364.621	0.25
365.081	0.25
365.541	0.25
366.002	0.25
366.462	0.25
366.922	0.25
367.383	0.25
367.843	0.25
368.303	0.25
368.763	0.25
369.223	0.25
369.684	0.25
370.144	0.25
370.604	0.25
371.064	0.25
371.524	0.25
371.984	0.25
372.444	0.25
372.904	0.25
373.363	0.25
373.823	0.25
374.283	0.25
374.743	0.25
375.203	0.24
375.663	0.24
376.122	0.24
376.582	0.24
377.042	0.24
377.501	0.24
377.961	0.24
378.42	0.24
378.88	0.24
379.34	0.24
379.799	0.24
380.259	0.24
380.718	0.24
381.177	0.24
381.637	0.24
382.096	0.24
382.555	0.24
383.015	0.24
383.474	0.24
383.933	0.24
384.393	0.24
384.852	0.24
385.311	0.24
385.77	0.24
386.229	0.24
386.688	0.24
387.147	0.24
387.606	0.24
388.065	0.24
388.524	0.24
388.983	0.24
389.442	0.24
389.901	0.24
390.36	0.24
390.819	0.24
391.277	0.24
391.736	0.24
392.195	0.24
392.654	0.24
393.112	0.24
393.571	0.24
394.03	0.24
394.488	0.24
394.947	0.23
395.405	0.23
395.864	0.23
396.322	0.23
396.781	0.23
397.239	0.23
397.698	0.23
398.156	0.23
398.614	0.23
399.073	0.23
399.531	0.23
399.989	0.23
400.447	0.23
400.905	0.23
401.364	0.23
401.822	0.23
402.28	0.23
402.738	0.23
403.196	0.23
403.654	0.23
404.112	0.23
404.57	0.23
405.028	0.23
405.486	0.23
405.944	0.23
406.402	0.23
406.859	0.23
407.317	0.23
407.775	0.23
408.233	0.23
408.691	0.23
409.148	0.23
409.606	0.23
410.064	0.23
410.521	0.23
410.979	0.23
411.436	0.23
411.894	0.23
412.351	0.23
412.809	0.23
413.266	0.23
413.724	0.23
414.181	0.23
414.638	0.23
415.096	0.23
415.553	0.23
416.01	0.23
416.467	0.23
416.925	0.23
417.382	0.22
417.839	0.22
418.296	0.22
418.753	0.22
419.21	0.22
419.667	0.22
420.124	0.22
420.581	0.22
421.038	0.22
421.495	0.22
421.952	0.22
422.409	0.22
422.866	0.22
423.322	0.22
423.779	0.22
424.236	0.22
424.693	0.22
425.149	0.22
425.606	0.22
426.063	0.22
426.519	0.22
426.976	0.22
427.433	0.22
427.889	0.22
428.346	0.22
428.802	0.22
429.258	0.22
429.715	0.22
430.171	0.22
430.628	0.22
431.084	0.22
431.54	0.22
431.997	0.22
432.453	0.22
432.909	0.22
433.365	0.22
433.821	0.22
434.277	0.22
434.734	0.22
435.19	0.22
435.646	0.22
436.102	0.22
436.558	0.22
437.014	0.22
437.47	0.22
437.925	0.22
438.381	0.22
438.837	0.22
439.293	0.22
439.749	0.22
440.205	0.22
440.66	0.22
441.116	0.22
441.572	0.22
442.027	0.22
442.483	0.22
442.939	0.22
443.394	0.22
443.85	0.22
444.305	0.22
444.761	0.22
445.216	0.22
445.672	0.22
446.127	0.22
446.582	0.22
447.038	0.22
447.493	0.22
447.948	0.22
448.403	0.22
448.859	0.22
449.314	0.22
449.769	0.22
450.224	0.22
450.679	0.22
451.134	0.22
451.589	0.22
452.044	0.22
452.499	0.22
452.954	0.22
453.409	0.22
453.864	0.22
454.319	0.22
454.774	0.22
455.229	0.22
455.684	0.22
456.138	0.22
456.593	0.22
457.048	0.22
457.503	0.22
457.957	0.22
458.412	0.22
458.866	0.22
459.321	0.22
459.776	0.22
460.23	0.22
460.685	0.22
461.139	0.22
461.593	0.22
462.048	0.22
462.502	0.22
462.957	0.22
463.411	0.22
463.865	0.22
464.319	0.22
464.774	0.22
465.228	0.22
465.682	0.22
466.136	0.22
466.59	0.22
467.044	0.22
467.499	0.22
467.953	0.22
468.407	0.22
468.861	0.22
469.315	0.22
469.768	0.22
470.222	0.22
470.676	0.22
471.13	0.22
471.584	0.22
472.038	0.22
472.491	0.22
472.945	0.23
473.399	0.23
473.852	0.23
474.306	0.23
474.76	0.23
475.213	0.23
475.667	0.23
476.12	0.23
476.574	0.23
477.027	0.23
477.481	0.23
477.934	0.23
478.388	0.23
478.841	0.23
479.294	0.23
479.748	0.23
480.201	0.23
480.654	0.23
481.107	0.24
481.561	0.24
482.014	0.24
482.467	0.24
482.92	0.24
483.373	0.24
483.826	0.24
484.279	0.24
484.732	0.24
485.185	0.24
485.638	0.24
486.091	0.24
486.544	0.25
486.997	0.25
487.449	0.25
487.902	0.25
488.355	0.25
488.808	0.25
489.26	0.25
489.713	0.25
490.166	0.26
490.618	0.26
491.071	0.26
491.523	0.26
491.976	0.26
492.429	0.26
492.881	0.26
493.333	0.27
493.786	0.27
494.238	0.27
494.691	0.27
495.143	0.27
495.595	0.27
496.048	0.27
496.5	0.28
496.952	0.28
497.404	0.28
497.856	0.28
498.309	0.28
498.761	0.28
499.213	0.29
499.665	0.29
500.117	0.29
500.569	0.29
501.021	0.29
501.473	0.3
501.925	0.3
502.377	0.3
502.828	0.3
503.28	0.3
503.732	0.3
504.184	0.31
504.636	0.31
505.087	0.31
505.539	0.31
505.991	0.31
506.442	0.31
506.894	0.32
507.345	0.32
507.797	0.32
508.249	0.32
508.7	0.32
509.151	0.33
509.603	0.33
510.054	0.33
510.506	0.33
510.957	0.33
511.408	0.33
511.86	0.33
512.311	0.34
512.762	0.34
513.213	0.34
513.665	0.34
514.116	0.34
514.567	0.34
515.018	0.34
515.469	0.34
515.92	0.34
516.371	0.35
516.822	0.35
517.273	0.35
517.724	0.35
518.175	0.35
518.626	0.35
519.076	0.35
519.527	0.35
519.978	0.35
520.429	0.35
520.88	0.35
521.33	0.36
521.781	0.36
522.232	0.36
522.682	0.36
523.133	0.36
523.583	0.36
524.034	0.36
524.484	0.36
524.935	0.36
525.385	0.36
525.836	0.36
526.286	0.36
526.736	0.36
527.187	0.36
527.637	0.36
528.087	0.36
528.538	0.36
528.988	0.36
529.438	0.36
529.888	0.36
530.338	0.36
530.788	0.36
531.238	0.36
531.688	0.35
532.139	0.35
532.589	0.35
533.038	0.35
533.488	0.35
533.938	0.35
534.388	0.35
534.838	0.35
535.288	0.34
535.738	0.34
536.187	0.34
536.637	0.34
537.087	0.34
537.537	0.34
537.986	0.34
538.436	0.34
538.885	0.34
539.335	0.33
539.785	0.33
540.234	0.33
540.684	0.33
541.133	0.33
541.582	0.33
542.032	0.32
542.481	0.32
542.931	0.32
543.38	0.32
543.829	0.32
544.278	0.32
544.728	0.31
545.177	0.31
545.626	0.31
546.075	0.31
546.524	0.31
546.973	0.31
547.422	0.3
547.871	0.3
548.32	0.3
548.769	0.3
549.218	0.3
549.667	0.29
550.116	0.29
550.565	0.29
551.014	0.29
551.463	0.29
551.911	0.28
552.36	0.28
552.809	0.28
553.258	0.28
553.706	0.28
554.155	0.27
554.603	0.27
555.052	0.27
555.501	0.27
555.949	0.27
556.398	0.27
556.846	0.26
557.294	0.26
557.743	0.26
558.191	0.26
558.64	0.26
559.088	0.26
559.536	0.25
559.985	0.25
560.433	0.25
560.881	0.25
561.329	0.25
561.777	0.25
562.225	0.24
562.674	0.24
563.122	0.24
563.57	0.24
564.018	0.24
564.466	0.24
564.914	0.23
565.362	0.23
565.809	0.23
566.257	0.23
566.705	0.23
567.153	0.23
567.601	0.22
568.048	0.22
568.496	0.22
568.944	0.22
569.392	0.22
569.839	0.22
570.287	0.21
570.734	0.21
571.182	0.21
571.63	0.21
572.077	0.21
572.525	0.21
572.972	0.21
573.419	0.21
573.867	0.2
574.314	0.2
574.761	0.2
575.209	0.2
575.656	0.2
576.103	0.2
576.551	0.2
576.998	0.2
577.445	0.19
577.892	0.19
578.339	0.19
578.786	0.19
579.233	0.19
579.68	0.19
580.127	0.19
580.574	0.19
581.021	0.19
581.468	0.19
581.915	0.18
582.362	0.18
582.809	0.18
583.255	0.18
583.702	0.18
584.149	0.18
584.596	0.18
585.042	0.18
585.489	0.17
585.936	0.17
586.382	0.17
586.829	0.17
587.275	0.17
587.722	0.17
588.168	0.17
588.615	0.17
589.061	0.17
589.508	0.17
589.954	0.17
590.4	0.17
590.847	0.16
591.293	0.16
591.739	0.16
592.185	0.16
592.632	0.16
593.078	0.16
593.524	0.16
593.97	0.16
594.416	0.16
594.862	0.16
595.308	0.16
595.754	0.16
596.2	0.16
596.646	0.16
597.092	0.15
597.538	0.15
597.984	0.15
598.43	0.15
598.876	0.15
599.321	0.15
599.767	0.15
600.213	0.15
600.659	0.15
601.104	0.15
601.55	0.15
601.995	0.15
602.441	0.15
602.887	0.15
603.332	0.15
603.778	0.15
604.223	0.15
604.668	0.15
605.114	0.14
605.559	0.14
606.005	0.14
606.45	0.14
606.895	0.14
607.341	0.14
607.786	0.14
608.231	0.14
608.676	0.14
609.121	0.14
609.566	0.14
610.012	0.14
610.457	0.14
610.902	0.14
611.347	0.14
611.792	0.14
612.237	0.14
612.682	0.14
613.127	0.14
613.571	0.14
614.016	0.14
614.461	0.14
614.906	0.14
615.351	0.14
615.795	0.14
616.24	0.14
616.685	0.14
617.129	0.14
617.574	0.14
618.019	0.14
618.463	0.14
618.908	0.14
619.352	0.14
619.797	0.14
620.241	0.14
620.686	0.14
621.13	0.14
621.574	0.14
622.019	0.14
622.463	0.14
622.907	0.14
623.352	0.14
623.796	0.14
624.24	0.14
624.684	0.14
625.128	0.14
625.572	0.14
626.016	0.14
626.461	0.14
626.905	0.14
627.349	0.14
627.793	0.14
628.236	0.14
628.68	0.15
629.124	0.15
629.568	0.15
630.012	0.15
630.456	0.15
630.9	0.15
631.343	0.15
631.787	0.15
632.231	0.15
632.674	0.15
633.118	0.15
633.562	0.15
634.005	0.16
634.449	0.16
634.892	0.16
635.336	0.16
635.779	0.16
636.223	0.16
636.666	0.16
637.109	0.16
637.553	0.16
637.996	0.17
638.439	0.17
638.883	0.17
639.326	0.17
639.769	0.17
640.212	0.17
640.655	0.17
641.099	0.18
641.542	0.18
641.985	0.18
642.428	0.18
642.871	0.18
643.314	0.19
643.757	0.19
644.2	0.19
644.643	0.19
645.085	0.19
645.528	0.19
645.971	0.19
646.414	0.2
646.857	0.2
647.299	0.2
647.742	0.2
648.185	0.2
648.627	0.21
649.07	0.21
649.513	0.21
649.955	0.22
650.398	0.22
650.84	0.22
651.283	0.22
651.725	0.23
652.168	0.23
652.61	0.23
653.052	0.24
653.495	0.23
653.937	0.18
654.379	0.14
654.821	0.15
655.264	0.15
655.706	0.15
656.148	0.16
656.59	0.16
657.032	0.16
657.474	0.16
657.916	0.16
658.358	0.16
658.8	0.2
659.242	0.27
659.684	0.27
660.126	0.28
660.568	0.28
661.01	0.28
661.452	0.28
661.894	0.29
662.335	0.29
662.777	0.29
663.219	0.29
663.661	0.3
664.102	0.3
664.544	0.3
664.985	0.3
665.427	0.31
665.869	0.31
666.31	0.31
666.752	0.31
667.193	0.32
667.634	0.32
668.076	0.32
668.517	0.32
668.959	0.33
669.4	0.33
669.841	0.33
670.282	0.33
670.724	0.34
671.165	0.34
671.606	0.34
672.047	0.34
672.488	0.34
672.929	0.35
673.37	0.35
673.811	0.35
674.252	0.35
674.693	0.35
675.134	0.35
675.575	0.36
676.016	0.36
676.457	0.36
676.898	0.36
677.339	0.36
677.78	0.36
678.22	0.36
678.661	0.36
679.102	0.36
679.542	0.37
679.983	0.37
680.424	0.37
680.864	0.37
681.305	0.37
681.745	0.37
682.186	0.37
682.626	0.37
683.067	0.37
683.507	0.37
683.948	0.38
684.388	0.38
684.828	0.38
685.269	0.38
685.709	0.38
686.149	0.38
686.589	0.38
687.029	0.38
687.47	0.38
687.91	0.38
688.35	0.38
688.79	0.38
689.23	0.38
689.67	0.38
690.11	0.38
690.55	0.38
690.99	0.37
691.43	0.37
691.87	0.37
692.31	0.37
692.749	0.37
693.189	0.37
693.629	0.37
694.069	0.37
694.508	0.37
694.948	0.37
695.388	0.36
695.827	0.36
696.267	0.36
696.706	0.36
697.146	0.36
697.586	0.36
698.025	0.36
698.464	0.36
698.904	0.35
699.343	0.35
699.783	0.35
700.222	0.35
700.661	0.35
701.101	0.35
701.54	0.34
701.979	0.34
702.418	0.34
702.857	0.34
703.297	0.34
703.736	0.34
704.175	0.33
704.614	0.33
705.053	0.33
705.492	0.33
705.931	0.33
706.37	0.32
706.809	0.32
707.248	0.32
707.687	0.32
708.125	0.32
708.564	0.31
709.003	0.31
709.442	0.31
709.88	0.31
710.319	0.31
710.758	0.3
711.196	0.3
711.635	0.3
712.074	0.3
712.512	0.3
712.951	0.29
713.389	0.29
713.828	0.29
714.266	0.29
714.705	0.29
715.143	0.28
715.581	0.28
716.02	0.28
716.458	0.28
716.896	0.28
717.334	0.28
717.773	0.27
718.211	0.27
718.649	0.27
719.087	0.27
719.525	0.27
719.963	0.27
720.401	0.26
720.839	0.26
721.277	0.26
721.715	0.26
722.153	0.26
722.591	0.25
723.029	0.25
723.467	0.25
723.905	0.25
724.342	0.25
724.78	0.25
725.218	0.24
725.656	0.24
726.093	0.24
726.531	0.24
726.969	0.24
727.406	0.24
727.844	0.23
728.281	0.23
728.719	0.23
729.156	0.23
729.594	0.23
730.031	0.23
730.469	0.23
730.906	0.22
731.343	0.22
731.781	0.22
732.218	0.22
732.655	0.22
733.092	0.21
733.53	0.21
733.967	0.21
734.404	0.21
734.841	0.21
735.278	0.21
735.715	0.2
736.152	0.2
736.589	0.2
737.026	0.2
737.463	0.2
737.9	0.2
738.337	0.2
738.774	0.2
739.211	0.19
739.647	0.19
740.084	0.19
740.521	0.19
740.958	0.19
741.394	0.19
741.831	0.19
742.268	0.19
742.704	0.18
743.141	0.18
743.577	0.18
744.014	0.18
744.45	0.18
744.887	0.17
745.323	0.17
745.76	0.17
746.196	0.17
746.632	0.17
747.069	0.16
747.505	0.16
747.941	0.16
748.378	0.16
748.814	0.16
749.25	0.16
749.686	0.16
750.122	0.16
750.558	0.16
750.994	0.16
751.43	0.16
751.866	0.16
752.302	0.16
752.738	0.15
753.174	0.15
753.61	0.15
754.046	0.15
754.482	0.15
754.918	0.15
755.354	0.15
755.789	0.15
756.225	0.15
756.661	0.14
757.096	0.14
757.532	0.14
757.968	0.14
758.403	0.14
758.839	0.14
759.274	0.14
759.71	0.14
760.145	0.14
760.581	0.14
761.016	0.14
761.452	0.14
761.887	0.14
762.322	0.14
762.758	0.14
763.193	0.14
763.628	0.14
764.063	0.14
764.499	0.14
764.934	0.13
765.369	0.13
765.804	0.13
766.239	0.13
766.674	0.13
767.109	0.13
767.544	0.13
767.979	0.13
768.414	0.13
768.849	0.13
769.284	0.13
769.719	0.13
770.154	0.13
770.588	0.12
771.023	0.12
771.458	0.12
771.893	0.12
772.327	0.12
772.762	0.12
773.197	0.12
773.631	0.11
774.066	0.11
774.5	0.11
774.935	0.11
775.369	0.11
775.804	0.11
776.238	0.11
776.673	0.11
777.107	0.1
777.541	0.1
777.976	0.1
778.41	0.1
778.844	0.1
779.279	0.1
779.713	0.1
780.147	0.1
780.581	0.1
781.015	0.1
781.449	0.1
781.883	0.1
782.317	0.1
782.751	0.1
783.185	0.1
783.619	0.1
784.053	0.09
784.487	0.09
784.921	0.09
785.355	0.09
785.789	0.09
786.223	0.09
786.656	0.09
787.09	0.09
787.524	0.09
787.957	0.09
788.391	0.09
788.825	0.09
789.258	0.09
789.692	0.09
790.125	0.09
790.559	0.09
790.992	0.09
791.426	0.09
791.859	0.09
792.293	0.09
792.726	0.09
793.159	0.09
793.593	0.09
794.026	0.09
794.459	0.09
794.892	0.09
795.326	0.09
795.759	0.09
796.192	0.09
796.625	0.09
797.058	0.09
797.491	0.08
797.924	0.08
798.357	0.08
798.79	0.08
799.223	0.08
799.656	0.08
800.089	0.08
800.522	0.08
800.955	0.08
801.387	0.08
801.82	0.08
802.253	0.08
802.686	0.08
803.118	0.08
803.551	0.08
803.984	0.08
804.416	0.08
804.849	0.07
805.281	0.07
805.714	0.07
806.146	0.07
806.579	0.07
807.011	0.07
807.444	0.07
807.876	0.07
808.308	0.07
808.741	0.07
809.173	0.07
809.605	0.07
810.037	0.07
810.47	0.07
810.902	0.07
811.334	0.07
811.766	0.07
812.198	0.07
812.63	0.07
813.062	0.07
813.494	0.07
813.926	0.07
814.358	0.07
814.79	0.07
815.222	0.07
815.654	0.07
816.086	0.07
816.518	0.07
816.949	0.07
817.381	0.07
817.813	0.07
818.245	0.07
818.676	0.07
819.108	0.07
819.54	0.07
819.971	0.07
820.403	0.07
820.834	0.07
821.266	0.07
821.697	0.07
822.129	0.07
822.56	0.07
822.991	0.07
823.423	0.07
823.854	0.07
824.286	0.07
824.717	0.07
825.148	0.07
825.579	0.07
826.01	0.07
826.442	0.07
826.873	0.07
827.304	0.07
827.735	0.07
828.166	0.07
828.597	0.06
829.028	0.06
829.459	0.06
829.89	0.06
830.321	0.06
830.752	0.06
831.183	0.06
831.613	0.06
832.044	0.06
832.475	0.06
832.906	0.06
833.336	0.06
833.767	0.06
834.198	0.06
834.628	0.06
835.059	0.06
835.49	0.06
835.92	0.06
836.351	0.06
836.781	0.06
837.212	0.06
837.642	0.06
838.072	0.06
838.503	0.06
838.933	0.06
839.364	0.06
839.794	0.06
840.224	0.06
840.654	0.06
841.085	0.06
841.515	0.06
841.945	0.06
842.375	0.06
842.805	0.06
843.235	0.06
843.665	0.06
844.095	0.06
844.525	0.06
844.955	0.06
845.385	0.06
845.815	0.06
846.245	0.05
846.675	0.05
847.105	0.05
847.534	0.05
847.964	0.05
848.394	0.05
848.824	0.05
849.253	0.05
849.683	0.05
850.112	0.05
850.542	0.05
850.972	0.05
851.401	0.05
851.831	0.05
852.26	0.06
852.69	0.06
853.119	0.06
853.548	0.06
853.978	0.06
854.407	0.06
854.836	0.06
855.266	0.06
855.695	0.06
856.124	0.06
856.553	0.06
856.983	0.06
857.412	0.06
857.841	0.05
858.27	0.05
858.699	0.05
859.128	0.05
859.557	0.05
859.986	0.05
860.415	0.05
860.844	0.05
861.273	0.05
861.702	0.05
862.13	0.05
862.559	0.05
862.988	0.05
863.417	0.05
863.845	0.05
864.274	0.05
864.703	0.05
865.131	0.05
865.56	0.05
865.989	0.05
866.417	0.05
866.846	0.05
867.274	0.05
867.703	0.05
868.131	0.05
868.559	0.05
868.988	0.05
869.416	0.05
869.844	0.05
870.273	0.05
870.701	0.05
871.129	0.05
871.557	0.05
871.986	0.05
872.414	0.04
872.842	0.04
873.27	0.04
873.698	0.04
874.126	0.04
874.554	0.04
874.982	0.04
875.41	0.04
875.838	0.04
876.266	0.04
876.694	0.04
877.122	0.04
877.549	0.04
877.977	0.04
878.405	0.04
878.833	0.04
879.26	0.04
879.688	0.04
880.116	0.04
880.543	0.04
880.971	0.04
881.399	0.04
881.826	0.04
882.254	0.04
882.681	0.04
883.109	0.04
883.536	0.04
883.963	0.04
884.391	0.04
884.818	0.04
885.245	0.04
885.673	0.04
886.1	0.04
886.527	0.04
886.954	0.04
887.381	0.04
887.809	0.04
888.236	0.04
888.663	0.04
889.09	0.04
889.517	0.04
889.944	0.04
890.371	0.04
890.798	0.04
891.225	0.04
891.652	0.04
892.078	0.03
892.505	0.03
892.932	0.03
893.359	0.03
893.786	0.03
894.212	0.03
894.639	0.03
895.066	0.03
895.492	0.03
895.919	0.03
896.346	0.03
896.772	0.03
897.199	0.03
897.625	0.03
898.052	0.03
898.478	0.03
898.904	0.03
899.331	0.03
899.757	0.03
900.183	0.03
900.61	0.03
901.036	0.03
901.462	0.03
901.888	0.03
902.315	0.03
902.741	0.03
903.167	0.03
903.593	0.03
904.019	0.03
904.445	0.03
904.871	0.03
905.297	0.03
905.723	0.03
906.149	0.03
906.575	0.03
907.001	0.04
907.427	0.04
907.852	0.04
908.278	0.04
908.704	0.04
909.13	0.03
909.555	0.03
909.981	0.03
910.407	0.03
910.832	0.03
911.258	0.03
911.684	0.03
912.109	0.03
912.535	0.03
912.96	0.03
913.386	0.03
913.811	0.03
914.236	0.03
914.662	0.03
915.087	0.03
915.512	0.03
915.938	0.03
916.363	0.03
916.788	0.03
917.213	0.03
917.639	0.03
918.064	0.03
918.489	0.03
918.914	0.03
919.339	0.03
919.764	0.04
920.189	0.04
920.614	0.04
921.039	0.04
921.464	0.04
921.889	0.04
922.314	0.04
922.738	0.04
923.163	0.04
923.588	0.04
924.013	0.04
924.437	0.04
924.862	0.04
925.287	0.04
925.711	0.04
926.136	0.04
926.561	0.04
926.985	0.04
927.41	0.04
927.834	0.04
928.259	0.04
928.683	0.04
929.108	0.04
929.532	0.04
929.956	0.03
930.381	0.03
930.805	0.03
931.229	0.03
931.653	0.03
932.078	0.03
932.502	0.03
932.926	0.03
933.35	0.03
933.774	0.03
934.198	0.03
934.622	0.03
935.046	0.03
935.47	0.03
935.894	0.03
936.318	0.03
936.742	0.03
937.166	0.03
937.59	0.03
938.014	0.03
938.437	0.03
938.861	0.03
939.285	0.03
939.709	0.03
940.132	0.03
940.556	0.03
940.98	0.03
941.403	0.03
941.827	0.03
942.25	0.03
942.674	0.03
943.097	0.03
943.521	0.03
943.944	0.03
944.368	0.03
944.791	0.03
945.214	0.03
945.638	0.03
946.061	0.03
946.484	0.03
946.907	0.03
947.331	0.03
947.754	0.03
948.177	0.03
948.6	0.03
949.023	0.03
949.446	0.03
949.869	0.03
950.292	0.03
950.715	0.03
951.138	0.03
951.561	0.03
951.984	0.03
952.407	0.03
952.83	0.03
953.252	0.03
953.675	0.03
954.098	0.03
954.521	0.03
954.943	0.03
955.366	0.03
955.789	0.03
956.211	0.03
956.634	0.03
957.056	0.03
957.479	0.03
957.902	0.03
958.324	0.03
958.746	0.03
959.169	0.03
959.591	0.03
960.014	0.03
960.436	0.03
960.858	0.03
961.281	0.03
961.703	0.03
962.125	0.03
962.547	0.03
962.969	0.03
963.391	0.03
963.814	0.03
964.236	0.03
964.658	0.03
965.08	0.03
965.502	0.03
965.924	0.03
966.346	0.03
966.768	0.03
967.189	0.03
967.611	0.03
968.033	0.03
968.455	0.03
968.877	0.03
969.298	0.03
969.72	0.03
970.142	0.03
970.563	0.03
970.985	0.03
971.407	0.03
971.828	0.03
972.25	0.03
972.671	0.03
973.093	0.02
973.514	0.02
973.936	0.02
974.357	0.02
974.778	0.02
975.2	0.02
975.621	0.02
976.042	0.02
976.464	0.02
976.885	0.02
977.306	0.02
977.727	0.02
978.148	0.02
978.57	0.02
978.991	0.02
979.412	0.02
979.833	0.02
980.254	0.02
980.675	0.02
981.096	0.02
981.517	0.02
981.937	0.02
982.358	0.02
982.779	0.02
983.2	0.02
983.621	0.02
984.042	0.02
984.462	0.02
984.883	0.02
985.304	0.02
985.724	0.02
986.145	0.02
986.565	0.02
986.986	0.02
987.407	0.02
987.827	0.02
988.248	0.02
988.668	0.02
989.088	0.02
989.509	0.02
989.929	0.02
990.35	0.02
990.77	0.02
991.19	0.02
991.61	0.02
992.031	0.02
992.451	0.02
992.871	0.03
993.291	0.03
993.711	0.03
994.131	0.03
994.551	0.03
994.971	0.02
995.391	0.02
995.811	0.02
996.231	0.02
996.651	0.02
997.071	0.02
997.491	0.02
997.911	0.02
998.331	0.02
998.75	0.02
999.17	0.02
999.59	0.02
1000.009	0.02
1000.429	0.02
1000.849	0.02
1001.268	0.02
1001.688	0.02
1002.107	0.02
1002.527	0.02
1002.946	0.02
1003.366	0.02
1003.785	0.02
1004.205	0.02
1004.624	0.02
1005.044	0.02
1005.463	0.02
1005.882	0.02
1006.301	0.02
1006.721	0.02
1007.14	0.02
1007.559	0.02
1007.978	0.02
1008.397	0.02
1008.816	0.02
1009.235	0.02
1009.655	0.02
1010.074	0.02
1010.492	0.02
1010.911	0.01
1011.33	0.01
1011.749	0.01
1012.168	0.01
1012.587	0.01
1013.006	0.01
1013.425	0.01
1013.843	0.01
1014.262	0.01
1014.681	0.01
1015.099	0.01
1015.518	0.01
1015.937	0.01
1016.355	0.01
1016.774	0.01
1017.192	0.01
1017.611	0.01
1018.029	0.02
1018.448	0.02
1018.866	0.02
1019.285	0.01
1019.703	0.01
1020.121	0.01
1020.54	0.01
1020.958	0.01
1021.376	0.01
1021.794	0.01
1022.213	0.01
1022.631	0.01
1023.049	0.01
1023.467	0.01
1023.885	0.01
1024.303	0.01
1024.721	0.01
1025.139	0.01
1025.557	0.01
1025.975	0.01
1026.393	0.01
1026.811	0.01
1027.229	0.01
1027.647	0.01
1028.065	0.01
1028.482	0.01
1028.9	0.01
1029.318	0.01
1029.735	0.01
1030.153	0.01
1030.571	0.01
1030.988	0.01
1031.406	0.01
1031.823	0.01
1032.241	0.01
1032.659	0.02
1033.076	0.02
1033.493	0.02
1033.911	0.02
1034.328	0.02
1034.746	0.02
1035.163	0.02
1035.58	0.02
1035.997	0.02
1036.415	0.02
1036.832	0.02
1037.249	0.02
1037.666	0.02
1038.083	0.01
1038.501	0.01
1038.918	0.01
1039.335	0.01
1039.752	0.01
1040.169	0.01
1040.586	0.01
1041.003	0.01
1041.419	0.01
1041.836	0.01
1042.253	0.01
1042.67	0.01
1043.087	0.01
1043.504	0.01
1043.92	0.01
1044.337	0.01
1044.754	0.01
1045.17	0.01
1045.587	0.01
1046.004	0.01
1046.42	0.01
1046.837	0.01
1047.253	0.01
1047.67	0.01
1048.086	0.01
1048.503	0.01
1048.919	0.01
1049.335	0.01
1049.752	0.01
1050.168	0.01
1050.584	0.01
1051.001	0.01
1051.417	0.01
1051.833	0.01
1052.249	0.01
1052.665	0.01
1053.081	0.01
1053.497	0.01
1053.914	0.01
1054.33	0.01
1054.746	0.01
1055.162	0.01
1055.578	0.01
1055.993	0.01
1056.409	0.01
1056.825	0.01
1057.241	0.01
1057.657	0.01
1058.073	0.01
1058.488	0.01
1058.904	0.01
1059.32	0.01
1059.736	0.01
1060.151	0.01
1060.567	0
1060.982	0
1061.398	0
1061.813	0
1062.229	0
1062.644	0
1063.06	0
1063.475	0
1063.891	0
1064.306	0
1064.721	0
1065.137	0
1065.552	0
1065.967	0
1066.382	0
1066.798	0
1067.213	0
1067.628	0
1068.043	0
1068.458	0
1068.873	0
1069.288	0
1069.703	0
1070.118	0
1070.533	0
1070.948	0
1071.363	0
1071.778	0
1072.193	0
1072.607	0
1073.022	0
1073.437	0
1073.852	0
1074.266	0
1074.681	0
1075.096	0
1075.51	0
1075.925	0
1076.339	0
1076.754	0
1077.168	0
1077.583	0
1077.997	0
1078.412	0
1078.826	0
1079.24	0
1079.655	0
1080.069	0
1080.483	0
1080.897	0
1081.312	0
1081.726	0
1082.14	-0
1082.554	-0
1082.968	-0
1083.382	-0
1083.796	-0
1084.21	-0
1084.624	-0
1085.038	-0
1085.452	-0
1085.866	-0
1086.28	-0
1086.694	-0
1087.108	-0
1087.521	-0
1087.935	-0
1088.349	-0
1088.763	-0
1089.176	-0.01
1089.59	-0.01
1090.004	-0.01
1090.417	-0.01
1090.831	-0.01
1091.244	-0.01
1091.658	-0.01
1092.071	-0.01
1092.485	-0.01
1092.898	-0.01
1093.312	-0.01
1093.725	-0.02
1094.138	-0.02
1094.552	-0.02
1094.965	-0.02
1095.378	-0.02
1095.791	-0.02
1096.205	-0.02
1096.618	-0.02
1097.031	-0.02
1097.444	-0.02
1097.857	-0.03
1098.27	-0.03
1098.683	-0.03
1099.096	-0.03
1099.509	-0.03
1099.922	-0.03
1100.335	-0.03
1100.748	-0.03
1101.161	-0.03
1101.574	-0.03
1101.986	-0.03
1102.399	-0.03
1102.812	-0.03
1103.225	-0.03
1103.637	-0.03
1104.05	-0.04
1104.463	-0.04
1104.875	-0.04
1105.288	-0.04
1105.7	-0.04
1106.113	-0.04
1106.525	-0.04
1106.938	-0.04
1107.35	-0.05
1107.763	-0.05
1108.175	-0.05
1108.588	-0.05
1109	-0.05
1109.412	-0.05
1109.824	-0.05
1110.237	-0.05
1110.649	-0.05
1111.061	-0.06
