Data from 2024-02-06-100ns-20nr-25nacl-100h2o-7bp2-40to10hyt-dark-0_5cpm_Absorbance__86__00086.txt Node

Date: Tue Feb 06 10:54:59 CET 2024
User: Laser008
Spectrometer: MAYP115816
Trigger mode: 0
Integration Time (sec): 2.000000E-1
Scans to average: 10
Electric dark correction enabled: true
Nonlinearity correction enabled: true
Boxcar width: 5
XAxis mode: Wavelengths
Number of Pixels in Spectrum: 2068
>>>>>Begin Spectral Data<<<<<
198.914	-0.3
199.384	-0.26
199.855	-0.2
200.325	-0.16
200.796	-0.13
201.266	-0.11
201.737	-0.1
202.207	-0.09
202.677	-0.09
203.147	-0.09
203.618	-0.07
204.088	-0.06
204.558	-0.05
205.028	-0.05
205.498	-0.05
205.968	-0.05
206.439	-0.05
206.909	-0.05
207.379	-0.04
207.849	-0.05
208.319	-0.05
208.789	-0.05
209.258	-0.05
209.728	-0.05
210.198	-0.05
210.668	-0.05
211.138	-0.05
211.608	-0.05
212.077	-0.05
212.547	-0.05
213.017	-0.05
213.486	-0.05
213.956	-0.05
214.426	-0.05
214.895	-0.05
215.365	-0.05
215.834	-0.05
216.304	-0.05
216.773	-0.04
217.243	-0.04
217.712	-0.04
218.181	-0.04
218.651	-0.03
219.12	-0.03
219.589	-0.03
220.058	-0.03
220.528	-0.03
220.997	-0.03
221.466	-0.03
221.935	-0.03
222.404	-0.02
222.873	-0.02
223.342	-0.02
223.812	-0.02
224.281	-0.02
224.749	-0.01
225.218	-0.01
225.687	-0
226.156	0.01
226.625	0.01
227.094	0.02
227.563	0.03
228.031	0.03
228.5	0.05
228.969	0.06
229.438	0.07
229.906	0.09
230.375	0.11
230.844	0.12
231.312	0.14
231.781	0.16
232.249	0.18
232.718	0.19
233.186	0.21
233.655	0.23
234.123	0.24
234.591	0.26
235.06	0.27
235.528	0.28
235.996	0.3
236.465	0.31
236.933	0.32
237.401	0.32
237.869	0.33
238.337	0.34
238.805	0.35
239.274	0.35
239.742	0.35
240.21	0.36
240.678	0.36
241.146	0.37
241.614	0.37
242.081	0.37
242.549	0.38
243.017	0.38
243.485	0.38
243.953	0.39
244.421	0.39
244.888	0.39
245.356	0.39
245.824	0.4
246.291	0.4
246.759	0.4
247.227	0.4
247.694	0.41
248.162	0.41
248.629	0.41
249.097	0.41
249.564	0.41
250.032	0.42
250.499	0.42
250.967	0.42
251.434	0.42
251.901	0.42
252.369	0.43
252.836	0.43
253.303	0.43
253.77	0.43
254.237	0.43
254.705	0.43
255.172	0.44
255.639	0.44
256.106	0.44
256.573	0.44
257.04	0.44
257.507	0.44
257.974	0.44
258.441	0.44
258.908	0.44
259.375	0.44
259.841	0.44
260.308	0.44
260.775	0.44
261.242	0.44
261.709	0.44
262.175	0.44
262.642	0.44
263.109	0.44
263.575	0.44
264.042	0.44
264.508	0.44
264.975	0.43
265.441	0.43
265.908	0.43
266.374	0.43
266.841	0.43
267.307	0.43
267.773	0.43
268.24	0.42
268.706	0.42
269.172	0.42
269.639	0.42
270.105	0.42
270.571	0.42
271.037	0.41
271.503	0.41
271.969	0.41
272.435	0.41
272.902	0.4
273.368	0.4
273.834	0.4
274.3	0.4
274.765	0.39
275.231	0.39
275.697	0.39
276.163	0.39
276.629	0.39
277.095	0.38
277.56	0.38
278.026	0.38
278.492	0.37
278.958	0.37
279.423	0.37
279.889	0.37
280.354	0.36
280.82	0.36
281.286	0.36
281.751	0.36
282.217	0.35
282.682	0.35
283.147	0.35
283.613	0.35
284.078	0.34
284.544	0.34
285.009	0.34
285.474	0.34
285.939	0.34
286.405	0.33
286.87	0.33
287.335	0.33
287.8	0.33
288.265	0.33
288.73	0.32
289.195	0.32
289.66	0.32
290.125	0.32
290.59	0.32
291.055	0.32
291.52	0.31
291.985	0.31
292.45	0.31
292.915	0.31
293.38	0.31
293.844	0.31
294.309	0.31
294.774	0.3
295.239	0.3
295.703	0.3
296.168	0.3
296.632	0.3
297.097	0.3
297.562	0.3
298.026	0.3
298.491	0.3
298.955	0.3
299.419	0.29
299.884	0.29
300.348	0.29
300.813	0.29
301.277	0.29
301.741	0.29
302.205	0.29
302.67	0.29
303.134	0.29
303.598	0.29
304.062	0.29
304.526	0.29
304.99	0.29
305.454	0.29
305.919	0.29
306.383	0.28
306.847	0.28
307.31	0.28
307.774	0.28
308.238	0.28
308.702	0.28
309.166	0.28
309.63	0.28
310.094	0.28
310.557	0.28
311.021	0.28
311.485	0.28
311.948	0.28
312.412	0.28
312.876	0.28
313.339	0.28
313.803	0.27
314.266	0.27
314.73	0.27
315.193	0.27
315.657	0.27
316.12	0.27
316.584	0.27
317.047	0.27
317.51	0.27
317.973	0.27
318.437	0.27
318.9	0.27
319.363	0.27
319.826	0.27
320.29	0.27
320.753	0.27
321.216	0.27
321.679	0.27
322.142	0.27
322.605	0.27
323.068	0.26
323.531	0.26
323.994	0.26
324.457	0.26
324.92	0.26
325.382	0.26
325.845	0.26
326.308	0.26
326.771	0.26
327.233	0.26
327.696	0.26
328.159	0.26
328.622	0.26
329.084	0.26
329.547	0.26
330.009	0.26
330.472	0.26
330.934	0.26
331.397	0.26
331.859	0.26
332.322	0.25
332.784	0.25
333.246	0.25
333.709	0.25
334.171	0.25
334.633	0.25
335.096	0.25
335.558	0.25
336.02	0.25
336.482	0.25
336.944	0.25
337.406	0.25
337.868	0.25
338.331	0.25
338.793	0.25
339.255	0.25
339.717	0.25
340.178	0.25
340.64	0.25
341.102	0.25
341.564	0.25
342.026	0.25
342.488	0.25
342.949	0.25
343.411	0.24
343.873	0.24
344.335	0.24
344.796	0.24
345.258	0.24
345.719	0.24
346.181	0.24
346.643	0.24
347.104	0.24
347.566	0.24
348.027	0.24
348.488	0.24
348.95	0.24
349.411	0.24
349.873	0.24
350.334	0.24
350.795	0.24
351.256	0.24
351.718	0.24
352.179	0.24
352.64	0.24
353.101	0.24
353.562	0.24
354.023	0.24
354.484	0.24
354.945	0.24
355.406	0.24
355.867	0.24
356.328	0.24
356.789	0.24
357.25	0.24
357.711	0.24
358.172	0.24
358.633	0.24
359.093	0.24
359.554	0.24
360.015	0.24
360.476	0.24
360.936	0.24
361.397	0.24
361.858	0.24
362.318	0.24
362.779	0.24
363.239	0.24
363.7	0.24
364.16	0.24
364.621	0.24
365.081	0.24
365.541	0.24
366.002	0.24
366.462	0.24
366.922	0.24
367.383	0.24
367.843	0.24
368.303	0.24
368.763	0.24
369.223	0.24
369.684	0.24
370.144	0.24
370.604	0.24
371.064	0.24
371.524	0.24
371.984	0.24
372.444	0.24
372.904	0.24
373.363	0.24
373.823	0.24
374.283	0.24
374.743	0.23
375.203	0.23
375.663	0.23
376.122	0.23
376.582	0.23
377.042	0.23
377.501	0.23
377.961	0.23
378.42	0.23
378.88	0.23
379.34	0.23
379.799	0.23
380.259	0.23
380.718	0.23
381.177	0.23
381.637	0.23
382.096	0.23
382.555	0.23
383.015	0.23
383.474	0.23
383.933	0.23
384.393	0.23
384.852	0.23
385.311	0.23
385.77	0.23
386.229	0.23
386.688	0.23
387.147	0.23
387.606	0.23
388.065	0.23
388.524	0.23
388.983	0.23
389.442	0.23
389.901	0.23
390.36	0.23
390.819	0.23
391.277	0.23
391.736	0.23
392.195	0.23
392.654	0.23
393.112	0.23
393.571	0.23
394.03	0.23
394.488	0.23
394.947	0.23
395.405	0.23
395.864	0.23
396.322	0.23
396.781	0.23
397.239	0.23
397.698	0.23
398.156	0.23
398.614	0.22
399.073	0.22
399.531	0.22
399.989	0.22
400.447	0.22
400.905	0.22
401.364	0.22
401.822	0.22
402.28	0.22
402.738	0.22
403.196	0.22
403.654	0.22
404.112	0.22
404.57	0.22
405.028	0.22
405.486	0.22
405.944	0.22
406.402	0.22
406.859	0.22
407.317	0.22
407.775	0.22
408.233	0.22
408.691	0.22
409.148	0.22
409.606	0.22
410.064	0.22
410.521	0.22
410.979	0.22
411.436	0.22
411.894	0.22
412.351	0.22
412.809	0.22
413.266	0.22
413.724	0.22
414.181	0.22
414.638	0.22
415.096	0.22
415.553	0.22
416.01	0.22
416.467	0.22
416.925	0.22
417.382	0.22
417.839	0.22
418.296	0.22
418.753	0.22
419.21	0.22
419.667	0.22
420.124	0.22
420.581	0.22
421.038	0.22
421.495	0.22
421.952	0.22
422.409	0.22
422.866	0.22
423.322	0.22
423.779	0.22
424.236	0.22
424.693	0.22
425.149	0.22
425.606	0.22
426.063	0.22
426.519	0.22
426.976	0.21
427.433	0.21
427.889	0.21
428.346	0.21
428.802	0.21
429.258	0.21
429.715	0.21
430.171	0.21
430.628	0.21
431.084	0.21
431.54	0.21
431.997	0.21
432.453	0.21
432.909	0.21
433.365	0.21
433.821	0.21
434.277	0.21
434.734	0.21
435.19	0.21
435.646	0.21
436.102	0.21
436.558	0.21
437.014	0.21
437.47	0.21
437.925	0.21
438.381	0.21
438.837	0.21
439.293	0.21
439.749	0.21
440.205	0.21
440.66	0.21
441.116	0.21
441.572	0.21
442.027	0.21
442.483	0.21
442.939	0.21
443.394	0.21
443.85	0.21
444.305	0.21
444.761	0.21
445.216	0.21
445.672	0.21
446.127	0.21
446.582	0.21
447.038	0.21
447.493	0.21
447.948	0.21
448.403	0.21
448.859	0.21
449.314	0.21
449.769	0.21
450.224	0.21
450.679	0.21
451.134	0.21
451.589	0.21
452.044	0.21
452.499	0.21
452.954	0.21
453.409	0.21
453.864	0.21
454.319	0.21
454.774	0.21
455.229	0.21
455.684	0.21
456.138	0.21
456.593	0.21
457.048	0.21
457.503	0.21
457.957	0.21
458.412	0.21
458.866	0.21
459.321	0.21
459.776	0.21
460.23	0.21
460.685	0.21
461.139	0.21
461.593	0.21
462.048	0.21
462.502	0.21
462.957	0.21
463.411	0.21
463.865	0.21
464.319	0.21
464.774	0.21
465.228	0.21
465.682	0.21
466.136	0.21
466.59	0.21
467.044	0.21
467.499	0.21
467.953	0.21
468.407	0.21
468.861	0.21
469.315	0.21
469.768	0.21
470.222	0.21
470.676	0.21
471.13	0.21
471.584	0.21
472.038	0.21
472.491	0.21
472.945	0.22
473.399	0.22
473.852	0.22
474.306	0.22
474.76	0.22
475.213	0.22
475.667	0.22
476.12	0.22
476.574	0.22
477.027	0.22
477.481	0.22
477.934	0.22
478.388	0.22
478.841	0.22
479.294	0.22
479.748	0.22
480.201	0.22
480.654	0.22
481.107	0.22
481.561	0.22
482.014	0.22
482.467	0.23
482.92	0.23
483.373	0.23
483.826	0.23
484.279	0.23
484.732	0.23
485.185	0.23
485.638	0.23
486.091	0.23
486.544	0.23
486.997	0.23
487.449	0.23
487.902	0.24
488.355	0.24
488.808	0.24
489.26	0.24
489.713	0.24
490.166	0.24
490.618	0.24
491.071	0.24
491.523	0.24
491.976	0.24
492.429	0.25
492.881	0.25
493.333	0.25
493.786	0.25
494.238	0.25
494.691	0.25
495.143	0.25
495.595	0.25
496.048	0.26
496.5	0.26
496.952	0.26
497.404	0.26
497.856	0.26
498.309	0.26
498.761	0.26
499.213	0.27
499.665	0.27
500.117	0.27
500.569	0.27
501.021	0.27
501.473	0.27
501.925	0.28
502.377	0.28
502.828	0.28
503.28	0.28
503.732	0.28
504.184	0.28
504.636	0.29
505.087	0.29
505.539	0.29
505.991	0.29
506.442	0.29
506.894	0.29
507.345	0.3
507.797	0.3
508.249	0.3
508.7	0.3
509.151	0.3
509.603	0.3
510.054	0.3
510.506	0.31
510.957	0.31
511.408	0.31
511.86	0.31
512.311	0.31
512.762	0.31
513.213	0.31
513.665	0.31
514.116	0.31
514.567	0.32
515.018	0.32
515.469	0.32
515.92	0.32
516.371	0.32
516.822	0.32
517.273	0.32
517.724	0.32
518.175	0.32
518.626	0.32
519.076	0.33
519.527	0.33
519.978	0.33
520.429	0.33
520.88	0.33
521.33	0.33
521.781	0.33
522.232	0.33
522.682	0.33
523.133	0.33
523.583	0.33
524.034	0.33
524.484	0.33
524.935	0.33
525.385	0.33
525.836	0.33
526.286	0.33
526.736	0.33
527.187	0.33
527.637	0.33
528.087	0.33
528.538	0.33
528.988	0.33
529.438	0.33
529.888	0.33
530.338	0.33
530.788	0.33
531.238	0.33
531.688	0.33
532.139	0.33
532.589	0.33
533.038	0.33
533.488	0.33
533.938	0.33
534.388	0.33
534.838	0.33
535.288	0.33
535.738	0.32
536.187	0.32
536.637	0.32
537.087	0.32
537.537	0.32
537.986	0.32
538.436	0.32
538.885	0.32
539.335	0.32
539.785	0.32
540.234	0.32
540.684	0.32
541.133	0.31
541.582	0.31
542.032	0.31
542.481	0.31
542.931	0.31
543.38	0.31
543.829	0.31
544.278	0.31
544.728	0.31
545.177	0.3
545.626	0.3
546.075	0.3
546.524	0.3
546.973	0.3
547.422	0.3
547.871	0.3
548.32	0.3
548.769	0.29
549.218	0.29
549.667	0.29
550.116	0.29
550.565	0.29
551.014	0.29
551.463	0.29
551.911	0.29
552.36	0.28
552.809	0.28
553.258	0.28
553.706	0.28
554.155	0.28
554.603	0.28
555.052	0.28
555.501	0.27
555.949	0.27
556.398	0.27
556.846	0.27
557.294	0.27
557.743	0.27
558.191	0.27
558.64	0.27
559.088	0.26
559.536	0.26
559.985	0.26
560.433	0.26
560.881	0.26
561.329	0.26
561.777	0.26
562.225	0.26
562.674	0.26
563.122	0.25
563.57	0.25
564.018	0.25
564.466	0.25
564.914	0.25
565.362	0.25
565.809	0.25
566.257	0.25
566.705	0.24
567.153	0.24
567.601	0.24
568.048	0.24
568.496	0.24
568.944	0.24
569.392	0.24
569.839	0.24
570.287	0.23
570.734	0.23
571.182	0.23
571.63	0.23
572.077	0.23
572.525	0.23
572.972	0.23
573.419	0.23
573.867	0.23
574.314	0.23
574.761	0.22
575.209	0.22
575.656	0.22
576.103	0.22
576.551	0.22
576.998	0.22
577.445	0.22
577.892	0.22
578.339	0.22
578.786	0.22
579.233	0.22
579.68	0.21
580.127	0.21
580.574	0.21
581.021	0.21
581.468	0.21
581.915	0.21
582.362	0.21
582.809	0.21
583.255	0.21
583.702	0.21
584.149	0.21
584.596	0.2
585.042	0.2
585.489	0.2
585.936	0.2
586.382	0.2
586.829	0.2
587.275	0.2
587.722	0.2
588.168	0.2
588.615	0.2
589.061	0.2
589.508	0.19
589.954	0.19
590.4	0.19
590.847	0.19
591.293	0.19
591.739	0.19
592.185	0.19
592.632	0.19
593.078	0.19
593.524	0.19
593.97	0.19
594.416	0.19
594.862	0.19
595.308	0.19
595.754	0.18
596.2	0.18
596.646	0.18
597.092	0.18
597.538	0.18
597.984	0.18
598.43	0.18
598.876	0.18
599.321	0.18
599.767	0.18
600.213	0.18
600.659	0.18
601.104	0.18
601.55	0.18
601.995	0.17
602.441	0.17
602.887	0.17
603.332	0.17
603.778	0.17
604.223	0.17
604.668	0.17
605.114	0.17
605.559	0.17
606.005	0.17
606.45	0.17
606.895	0.17
607.341	0.17
607.786	0.17
608.231	0.17
608.676	0.17
609.121	0.17
609.566	0.17
610.012	0.17
610.457	0.17
610.902	0.17
611.347	0.17
611.792	0.17
612.237	0.17
612.682	0.17
613.127	0.17
613.571	0.17
614.016	0.17
614.461	0.16
614.906	0.16
615.351	0.16
615.795	0.16
616.24	0.16
616.685	0.16
617.129	0.16
617.574	0.16
618.019	0.16
618.463	0.16
618.908	0.16
619.352	0.16
619.797	0.16
620.241	0.16
620.686	0.16
621.13	0.16
621.574	0.16
622.019	0.16
622.463	0.16
622.907	0.16
623.352	0.16
623.796	0.16
624.24	0.16
624.684	0.16
625.128	0.16
625.572	0.16
626.016	0.16
626.461	0.16
626.905	0.16
627.349	0.16
627.793	0.16
628.236	0.16
628.68	0.16
629.124	0.16
629.568	0.16
630.012	0.16
630.456	0.16
630.9	0.16
631.343	0.17
631.787	0.17
632.231	0.17
632.674	0.17
633.118	0.17
633.562	0.17
634.005	0.17
634.449	0.17
634.892	0.17
635.336	0.17
635.779	0.17
636.223	0.18
636.666	0.18
637.109	0.18
637.553	0.18
637.996	0.18
638.439	0.18
638.883	0.18
639.326	0.18
639.769	0.18
640.212	0.18
640.655	0.19
641.099	0.19
641.542	0.19
641.985	0.19
642.428	0.19
642.871	0.19
643.314	0.19
643.757	0.2
644.2	0.2
644.643	0.2
645.085	0.2
645.528	0.2
645.971	0.2
646.414	0.2
646.857	0.21
647.299	0.21
647.742	0.21
648.185	0.21
648.627	0.21
649.07	0.22
649.513	0.22
649.955	0.22
650.398	0.22
650.84	0.23
651.283	0.23
651.725	0.23
652.168	0.23
652.61	0.24
653.052	0.24
653.495	0.24
653.937	0.18
654.379	0.15
654.821	0.15
655.264	0.15
655.706	0.16
656.148	0.16
656.59	0.16
657.032	0.16
657.474	0.16
657.916	0.16
658.358	0.16
658.8	0.2
659.242	0.27
659.684	0.28
660.126	0.28
660.568	0.28
661.01	0.28
661.452	0.28
661.894	0.29
662.335	0.29
662.777	0.29
663.219	0.3
663.661	0.3
664.102	0.3
664.544	0.3
664.985	0.3
665.427	0.31
665.869	0.31
666.31	0.31
666.752	0.31
667.193	0.31
667.634	0.32
668.076	0.32
668.517	0.32
668.959	0.32
669.4	0.33
669.841	0.33
670.282	0.33
670.724	0.33
671.165	0.34
671.606	0.34
672.047	0.34
672.488	0.34
672.929	0.34
673.37	0.34
673.811	0.35
674.252	0.35
674.693	0.35
675.134	0.35
675.575	0.35
676.016	0.35
676.457	0.35
676.898	0.36
677.339	0.36
677.78	0.36
678.22	0.36
678.661	0.36
679.102	0.36
679.542	0.36
679.983	0.36
680.424	0.36
680.864	0.36
681.305	0.36
681.745	0.37
682.186	0.37
682.626	0.37
683.067	0.37
683.507	0.37
683.948	0.37
684.388	0.37
684.828	0.37
685.269	0.37
685.709	0.37
686.149	0.38
686.589	0.38
687.029	0.38
687.47	0.38
687.91	0.38
688.35	0.37
688.79	0.37
689.23	0.37
689.67	0.37
690.11	0.37
690.55	0.37
690.99	0.37
691.43	0.37
691.87	0.37
692.31	0.37
692.749	0.37
693.189	0.37
693.629	0.37
694.069	0.37
694.508	0.37
694.948	0.37
695.388	0.37
695.827	0.36
696.267	0.36
696.706	0.36
697.146	0.36
697.586	0.36
698.025	0.36
698.464	0.36
698.904	0.36
699.343	0.36
699.783	0.35
700.222	0.35
700.661	0.35
701.101	0.35
701.54	0.35
701.979	0.35
702.418	0.35
702.857	0.34
703.297	0.34
703.736	0.34
704.175	0.34
704.614	0.34
705.053	0.34
705.492	0.33
705.931	0.33
706.37	0.33
706.809	0.33
707.248	0.33
707.687	0.33
708.125	0.32
708.564	0.32
709.003	0.32
709.442	0.32
709.88	0.32
710.319	0.32
710.758	0.31
711.196	0.31
711.635	0.31
712.074	0.31
712.512	0.31
712.951	0.31
713.389	0.3
713.828	0.3
714.266	0.3
714.705	0.3
715.143	0.3
715.581	0.3
716.02	0.29
716.458	0.29
716.896	0.29
717.334	0.29
717.773	0.29
718.211	0.29
718.649	0.28
719.087	0.28
719.525	0.28
719.963	0.28
720.401	0.28
720.839	0.28
721.277	0.28
721.715	0.27
722.153	0.27
722.591	0.27
723.029	0.27
723.467	0.27
723.905	0.27
724.342	0.26
724.78	0.26
725.218	0.26
725.656	0.26
726.093	0.26
726.531	0.26
726.969	0.26
727.406	0.25
727.844	0.25
728.281	0.25
728.719	0.25
729.156	0.25
729.594	0.25
730.031	0.25
730.469	0.24
730.906	0.24
731.343	0.24
731.781	0.24
732.218	0.24
732.655	0.24
733.092	0.23
733.53	0.23
733.967	0.23
734.404	0.23
734.841	0.23
735.278	0.23
735.715	0.22
736.152	0.22
736.589	0.22
737.026	0.22
737.463	0.22
737.9	0.22
738.337	0.22
738.774	0.22
739.211	0.22
739.647	0.22
740.084	0.21
740.521	0.21
740.958	0.21
741.394	0.21
741.831	0.21
742.268	0.21
742.704	0.21
743.141	0.2
743.577	0.2
744.014	0.2
744.45	0.2
744.887	0.2
745.323	0.19
745.76	0.19
746.196	0.19
746.632	0.19
747.069	0.19
747.505	0.19
747.941	0.19
748.378	0.19
748.814	0.18
749.25	0.18
749.686	0.18
750.122	0.18
750.558	0.18
750.994	0.18
751.43	0.18
751.866	0.18
752.302	0.18
752.738	0.18
753.174	0.18
753.61	0.18
754.046	0.18
754.482	0.18
754.918	0.17
755.354	0.17
755.789	0.17
756.225	0.17
756.661	0.17
757.096	0.17
757.532	0.17
757.968	0.17
758.403	0.17
758.839	0.17
759.274	0.17
759.71	0.17
760.145	0.17
760.581	0.17
761.016	0.16
761.452	0.16
761.887	0.16
762.322	0.16
762.758	0.16
763.193	0.16
763.628	0.16
764.063	0.16
764.499	0.16
764.934	0.16
765.369	0.16
765.804	0.16
766.239	0.16
766.674	0.16
767.109	0.16
767.544	0.16
767.979	0.16
768.414	0.16
768.849	0.15
769.284	0.15
769.719	0.15
770.154	0.15
770.588	0.15
771.023	0.15
771.458	0.15
771.893	0.15
772.327	0.15
772.762	0.14
773.197	0.14
773.631	0.14
774.066	0.14
774.5	0.14
774.935	0.14
775.369	0.13
775.804	0.13
776.238	0.13
776.673	0.13
777.107	0.13
777.541	0.13
777.976	0.13
778.41	0.13
778.844	0.13
779.279	0.13
779.713	0.13
780.147	0.13
780.581	0.12
781.015	0.12
781.449	0.12
781.883	0.12
782.317	0.12
782.751	0.12
783.185	0.12
783.619	0.12
784.053	0.12
784.487	0.12
784.921	0.12
785.355	0.12
785.789	0.12
786.223	0.12
786.656	0.12
787.09	0.12
787.524	0.12
787.957	0.12
788.391	0.12
788.825	0.12
789.258	0.12
789.692	0.12
790.125	0.12
790.559	0.11
790.992	0.11
791.426	0.11
791.859	0.11
792.293	0.11
792.726	0.11
793.159	0.11
793.593	0.11
794.026	0.11
794.459	0.11
794.892	0.11
795.326	0.11
795.759	0.11
796.192	0.11
796.625	0.11
797.058	0.11
797.491	0.11
797.924	0.11
798.357	0.11
798.79	0.11
799.223	0.11
799.656	0.11
800.089	0.11
800.522	0.1
800.955	0.1
801.387	0.1
801.82	0.1
802.253	0.1
802.686	0.1
803.118	0.1
803.551	0.1
803.984	0.1
804.416	0.1
804.849	0.1
805.281	0.1
805.714	0.1
806.146	0.1
806.579	0.1
807.011	0.1
807.444	0.1
807.876	0.1
808.308	0.1
808.741	0.1
809.173	0.1
809.605	0.1
810.037	0.09
810.47	0.09
810.902	0.09
811.334	0.09
811.766	0.09
812.198	0.09
812.63	0.09
813.062	0.09
813.494	0.09
813.926	0.09
814.358	0.09
814.79	0.09
815.222	0.09
815.654	0.09
816.086	0.09
816.518	0.09
816.949	0.09
817.381	0.09
817.813	0.09
818.245	0.09
818.676	0.09
819.108	0.09
819.54	0.09
819.971	0.09
820.403	0.09
820.834	0.09
821.266	0.09
821.697	0.09
822.129	0.09
822.56	0.09
822.991	0.09
823.423	0.09
823.854	0.09
824.286	0.09
824.717	0.09
825.148	0.09
825.579	0.09
826.01	0.09
826.442	0.09
826.873	0.09
827.304	0.09
827.735	0.09
828.166	0.09
828.597	0.08
829.028	0.08
829.459	0.08
829.89	0.08
830.321	0.08
830.752	0.08
831.183	0.08
831.613	0.08
832.044	0.08
832.475	0.08
832.906	0.08
833.336	0.08
833.767	0.08
834.198	0.08
834.628	0.08
835.059	0.08
835.49	0.08
835.92	0.08
836.351	0.08
836.781	0.08
837.212	0.08
837.642	0.08
838.072	0.08
838.503	0.08
838.933	0.08
839.364	0.08
839.794	0.08
840.224	0.08
840.654	0.08
841.085	0.08
841.515	0.08
841.945	0.08
842.375	0.08
842.805	0.08
843.235	0.08
843.665	0.08
844.095	0.08
844.525	0.08
844.955	0.08
845.385	0.08
845.815	0.08
846.245	0.07
846.675	0.07
847.105	0.07
847.534	0.07
847.964	0.07
848.394	0.07
848.824	0.07
849.253	0.07
849.683	0.07
850.112	0.07
850.542	0.07
850.972	0.07
851.401	0.07
851.831	0.07
852.26	0.07
852.69	0.07
853.119	0.08
853.548	0.08
853.978	0.08
854.407	0.08
854.836	0.08
855.266	0.07
855.695	0.07
856.124	0.07
856.553	0.07
856.983	0.07
857.412	0.07
857.841	0.07
858.27	0.07
858.699	0.07
859.128	0.07
859.557	0.07
859.986	0.07
860.415	0.07
860.844	0.07
861.273	0.07
861.702	0.07
862.13	0.07
862.559	0.07
862.988	0.07
863.417	0.07
863.845	0.07
864.274	0.07
864.703	0.07
865.131	0.07
865.56	0.07
865.989	0.07
866.417	0.07
866.846	0.07
867.274	0.07
867.703	0.07
868.131	0.07
868.559	0.07
868.988	0.07
869.416	0.07
869.844	0.07
870.273	0.06
870.701	0.06
871.129	0.06
871.557	0.06
871.986	0.06
872.414	0.06
872.842	0.06
873.27	0.06
873.698	0.06
874.126	0.06
874.554	0.06
874.982	0.06
875.41	0.06
875.838	0.06
876.266	0.06
876.694	0.06
877.122	0.06
877.549	0.06
877.977	0.06
878.405	0.06
878.833	0.06
879.26	0.06
879.688	0.06
880.116	0.06
880.543	0.06
880.971	0.06
881.399	0.06
881.826	0.06
882.254	0.06
882.681	0.06
883.109	0.06
883.536	0.06
883.963	0.06
884.391	0.05
884.818	0.05
885.245	0.05
885.673	0.05
886.1	0.05
886.527	0.05
886.954	0.05
887.381	0.05
887.809	0.05
888.236	0.05
888.663	0.05
889.09	0.05
889.517	0.05
889.944	0.05
890.371	0.05
890.798	0.05
891.225	0.05
891.652	0.05
892.078	0.05
892.505	0.05
892.932	0.05
893.359	0.05
893.786	0.05
894.212	0.05
894.639	0.05
895.066	0.05
895.492	0.05
895.919	0.05
896.346	0.05
896.772	0.05
897.199	0.05
897.625	0.05
898.052	0.05
898.478	0.05
898.904	0.05
899.331	0.05
899.757	0.04
900.183	0.04
900.61	0.04
901.036	0.04
901.462	0.04
901.888	0.04
902.315	0.04
902.741	0.04
903.167	0.04
903.593	0.05
904.019	0.05
904.445	0.05
904.871	0.05
905.297	0.05
905.723	0.05
906.149	0.05
906.575	0.05
907.001	0.05
907.427	0.05
907.852	0.05
908.278	0.05
908.704	0.05
909.13	0.05
909.555	0.05
909.981	0.05
910.407	0.05
910.832	0.05
911.258	0.05
911.684	0.05
912.109	0.05
912.535	0.05
912.96	0.05
913.386	0.05
913.811	0.05
914.236	0.05
914.662	0.05
915.087	0.05
915.512	0.05
915.938	0.05
916.363	0.05
916.788	0.05
917.213	0.05
917.639	0.05
918.064	0.05
918.489	0.05
918.914	0.05
919.339	0.05
919.764	0.05
920.189	0.05
920.614	0.05
921.039	0.05
921.464	0.05
921.889	0.05
922.314	0.05
922.738	0.05
923.163	0.06
923.588	0.06
924.013	0.06
924.437	0.06
924.862	0.06
925.287	0.06
925.711	0.06
926.136	0.06
926.561	0.05
926.985	0.05
927.41	0.05
927.834	0.05
928.259	0.05
928.683	0.05
929.108	0.05
929.532	0.05
929.956	0.05
930.381	0.05
930.805	0.05
931.229	0.05
931.653	0.04
932.078	0.04
932.502	0.04
932.926	0.04
933.35	0.04
933.774	0.04
934.198	0.04
934.622	0.04
935.046	0.04
935.47	0.04
935.894	0.04
936.318	0.04
936.742	0.04
937.166	0.04
937.59	0.04
938.014	0.04
938.437	0.04
938.861	0.04
939.285	0.04
939.709	0.04
940.132	0.04
940.556	0.04
940.98	0.04
941.403	0.04
941.827	0.04
942.25	0.04
942.674	0.04
943.097	0.04
943.521	0.04
943.944	0.04
944.368	0.04
944.791	0.04
945.214	0.04
945.638	0.04
946.061	0.04
946.484	0.04
946.907	0.04
947.331	0.04
947.754	0.04
948.177	0.04
948.6	0.04
949.023	0.04
949.446	0.04
949.869	0.04
950.292	0.04
950.715	0.04
951.138	0.04
951.561	0.04
951.984	0.04
952.407	0.04
952.83	0.04
953.252	0.04
953.675	0.04
954.098	0.04
954.521	0.04
954.943	0.04
955.366	0.04
955.789	0.04
956.211	0.04
956.634	0.04
957.056	0.04
957.479	0.04
957.902	0.04
958.324	0.04
958.746	0.04
959.169	0.04
959.591	0.04
960.014	0.04
960.436	0.04
960.858	0.04
961.281	0.04
961.703	0.04
962.125	0.04
962.547	0.04
962.969	0.04
963.391	0.04
963.814	0.04
964.236	0.04
964.658	0.04
965.08	0.04
965.502	0.04
965.924	0.04
966.346	0.04
966.768	0.04
967.189	0.04
967.611	0.04
968.033	0.04
968.455	0.04
968.877	0.04
969.298	0.04
969.72	0.04
970.142	0.04
970.563	0.04
970.985	0.04
971.407	0.04
971.828	0.04
972.25	0.04
972.671	0.04
973.093	0.04
973.514	0.04
973.936	0.04
974.357	0.04
974.778	0.04
975.2	0.03
975.621	0.03
976.042	0.03
976.464	0.03
976.885	0.03
977.306	0.03
977.727	0.03
978.148	0.03
978.57	0.03
978.991	0.03
979.412	0.03
979.833	0.03
980.254	0.04
980.675	0.04
981.096	0.04
981.517	0.04
981.937	0.04
982.358	0.04
982.779	0.03
983.2	0.03
983.621	0.03
984.042	0.03
984.462	0.03
984.883	0.03
985.304	0.03
985.724	0.03
986.145	0.03
986.565	0.03
986.986	0.03
987.407	0.03
987.827	0.03
988.248	0.03
988.668	0.03
989.088	0.03
989.509	0.03
989.929	0.03
990.35	0.03
990.77	0.03
991.19	0.03
991.61	0.03
992.031	0.03
992.451	0.04
992.871	0.04
993.291	0.04
993.711	0.04
994.131	0.04
994.551	0.04
994.971	0.04
995.391	0.04
995.811	0.03
996.231	0.03
996.651	0.03
997.071	0.03
997.491	0.03
997.911	0.03
998.331	0.03
998.75	0.03
999.17	0.03
999.59	0.03
1000.009	0.03
1000.429	0.03
1000.849	0.03
1001.268	0.03
1001.688	0.03
1002.107	0.03
1002.527	0.03
1002.946	0.03
1003.366	0.03
1003.785	0.03
1004.205	0.03
1004.624	0.03
1005.044	0.03
1005.463	0.03
1005.882	0.03
1006.301	0.03
1006.721	0.03
1007.14	0.03
1007.559	0.03
1007.978	0.03
1008.397	0.03
1008.816	0.03
1009.235	0.03
1009.655	0.03
1010.074	0.03
1010.492	0.03
1010.911	0.03
1011.33	0.02
1011.749	0.02
1012.168	0.02
1012.587	0.02
1013.006	0.02
1013.425	0.02
1013.843	0.02
1014.262	0.02
1014.681	0.02
1015.099	0.02
1015.518	0.02
1015.937	0.02
1016.355	0.02
1016.774	0.02
1017.192	0.02
1017.611	0.02
1018.029	0.03
1018.448	0.03
1018.866	0.02
1019.285	0.02
1019.703	0.02
1020.121	0.02
1020.54	0.02
1020.958	0.02
1021.376	0.02
1021.794	0.02
1022.213	0.02
1022.631	0.02
1023.049	0.02
1023.467	0.02
1023.885	0.02
1024.303	0.02
1024.721	0.02
1025.139	0.02
1025.557	0.02
1025.975	0.02
1026.393	0.02
1026.811	0.02
1027.229	0.02
1027.647	0.02
1028.065	0.02
1028.482	0.02
1028.9	0.02
1029.318	0.02
1029.735	0.02
1030.153	0.02
1030.571	0.02
1030.988	0.02
1031.406	0.02
1031.823	0.02
1032.241	0.02
1032.659	0.02
1033.076	0.03
1033.493	0.03
1033.911	0.03
1034.328	0.03
1034.746	0.03
1035.163	0.03
1035.58	0.03
1035.997	0.03
1036.415	0.03
1036.832	0.03
1037.249	0.02
1037.666	0.02
1038.083	0.02
1038.501	0.02
1038.918	0.02
1039.335	0.02
1039.752	0.02
1040.169	0.02
1040.586	0.02
1041.003	0.02
1041.419	0.02
1041.836	0.02
1042.253	0.02
1042.67	0.02
1043.087	0.02
1043.504	0.02
1043.92	0.02
1044.337	0.02
1044.754	0.02
1045.17	0.02
1045.587	0.02
1046.004	0.02
1046.42	0.02
1046.837	0.02
1047.253	0.02
1047.67	0.02
1048.086	0.02
1048.503	0.02
1048.919	0.02
1049.335	0.02
1049.752	0.02
1050.168	0.02
1050.584	0.02
1051.001	0.02
1051.417	0.02
1051.833	0.02
1052.249	0.02
1052.665	0.02
1053.081	0.02
1053.497	0.02
1053.914	0.02
1054.33	0.02
1054.746	0.02
1055.162	0.02
1055.578	0.02
1055.993	0.02
1056.409	0.02
1056.825	0.02
1057.241	0.02
1057.657	0.02
1058.073	0.02
1058.488	0.02
1058.904	0.02
1059.32	0.02
1059.736	0.01
1060.151	0.01
1060.567	0.01
1060.982	0.01
1061.398	0.01
1061.813	0.01
1062.229	0.01
1062.644	0.01
1063.06	0.01
1063.475	0.01
1063.891	0.01
1064.306	0.01
1064.721	0.01
1065.137	0.01
1065.552	0.01
1065.967	0.01
1066.382	0.01
1066.798	0.01
1067.213	0.01
1067.628	0.01
1068.043	0.01
1068.458	0.01
1068.873	0.01
1069.288	0.01
1069.703	0.01
1070.118	0.01
1070.533	0.01
1070.948	0.01
1071.363	0.01
1071.778	0.01
1072.193	0.01
1072.607	0.01
1073.022	0.01
1073.437	0.01
1073.852	0.01
1074.266	0.01
1074.681	0.01
1075.096	0.01
1075.51	0.01
1075.925	0.01
1076.339	0.01
1076.754	0.01
1077.168	0.01
1077.583	0.01
1077.997	0.01
1078.412	0.01
1078.826	0.01
1079.24	0.01
1079.655	0.01
1080.069	0.01
1080.483	0.01
1080.897	0.01
1081.312	0.01
1081.726	0.01
1082.14	0.01
1082.554	0.01
1082.968	0.01
1083.382	0.01
1083.796	0.01
1084.21	0.01
1084.624	0.01
1085.038	0.01
1085.452	0.01
1085.866	0.01
1086.28	0.01
1086.694	0.01
1087.108	0.01
1087.521	0.01
1087.935	0
1088.349	0
1088.763	0
1089.176	0
1089.59	0
1090.004	0
1090.417	-0
1090.831	-0
1091.244	-0
1091.658	-0
1092.071	-0
1092.485	-0
1092.898	-0.01
1093.312	-0.01
1093.725	-0.01
1094.138	-0.01
1094.552	-0.01
1094.965	-0.01
1095.378	-0.01
1095.791	-0.01
1096.205	-0.01
1096.618	-0.01
1097.031	-0.02
1097.444	-0.02
1097.857	-0.02
1098.27	-0.02
1098.683	-0.02
1099.096	-0.02
1099.509	-0.02
1099.922	-0.02
1100.335	-0.02
1100.748	-0.02
1101.161	-0.02
1101.574	-0.02
1101.986	-0.02
1102.399	-0.02
1102.812	-0.02
1103.225	-0.02
1103.637	-0.03
1104.05	-0.03
1104.463	-0.03
1104.875	-0.03
1105.288	-0.03
1105.7	-0.03
1106.113	-0.03
1106.525	-0.04
1106.938	-0.04
1107.35	-0.04
1107.763	-0.04
1108.175	-0.04
1108.588	-0.05
1109	-0.05
1109.412	-0.05
1109.824	-0.05
1110.237	-0.05
1110.649	-0.05
1111.061	-0.05
