Data from 2024-02-06-100ns-20nr-25nacl-100h2o-7bp2-40to10hyt-dark-0_5cpm_Absorbance__125__00125.txt Node

Date: Tue Feb 06 11:14:28 CET 2024
User: Laser008
Spectrometer: MAYP115816
Trigger mode: 0
Integration Time (sec): 2.000000E-1
Scans to average: 10
Electric dark correction enabled: true
Nonlinearity correction enabled: true
Boxcar width: 5
XAxis mode: Wavelengths
Number of Pixels in Spectrum: 2068
>>>>>Begin Spectral Data<<<<<
198.914	-0.29
199.384	-0.26
199.855	-0.2
200.325	-0.16
200.796	-0.13
201.266	-0.12
201.737	-0.11
202.207	-0.1
202.677	-0.09
203.147	-0.09
203.618	-0.08
204.088	-0.07
204.558	-0.06
205.028	-0.05
205.498	-0.05
205.968	-0.05
206.439	-0.06
206.909	-0.05
207.379	-0.05
207.849	-0.06
208.319	-0.06
208.789	-0.06
209.258	-0.06
209.728	-0.06
210.198	-0.06
210.668	-0.06
211.138	-0.06
211.608	-0.06
212.077	-0.06
212.547	-0.06
213.017	-0.06
213.486	-0.06
213.956	-0.06
214.426	-0.05
214.895	-0.05
215.365	-0.05
215.834	-0.05
216.304	-0.05
216.773	-0.05
217.243	-0.05
217.712	-0.05
218.181	-0.05
218.651	-0.05
219.12	-0.04
219.589	-0.04
220.058	-0.04
220.528	-0.04
220.997	-0.04
221.466	-0.03
221.935	-0.03
222.404	-0.03
222.873	-0.03
223.342	-0.02
223.812	-0.02
224.281	-0.02
224.749	-0.01
225.218	-0.01
225.687	-0
226.156	0.01
226.625	0.02
227.094	0.02
227.563	0.04
228.031	0.05
228.5	0.06
228.969	0.08
229.438	0.09
229.906	0.11
230.375	0.13
230.844	0.15
231.312	0.17
231.781	0.19
232.249	0.21
232.718	0.23
233.186	0.25
233.655	0.27
234.123	0.29
234.591	0.31
235.06	0.32
235.528	0.34
235.996	0.36
236.465	0.37
236.933	0.38
237.401	0.39
237.869	0.4
238.337	0.41
238.805	0.42
239.274	0.43
239.742	0.43
240.21	0.44
240.678	0.44
241.146	0.45
241.614	0.45
242.081	0.46
242.549	0.46
243.017	0.46
243.485	0.47
243.953	0.47
244.421	0.47
244.888	0.48
245.356	0.48
245.824	0.48
246.291	0.48
246.759	0.49
247.227	0.49
247.694	0.49
248.162	0.49
248.629	0.5
249.097	0.5
249.564	0.5
250.032	0.5
250.499	0.5
250.967	0.51
251.434	0.51
251.901	0.51
252.369	0.51
252.836	0.51
253.303	0.51
253.77	0.52
254.237	0.52
254.705	0.52
255.172	0.52
255.639	0.52
256.106	0.52
256.573	0.52
257.04	0.52
257.507	0.52
257.974	0.52
258.441	0.52
258.908	0.52
259.375	0.52
259.841	0.52
260.308	0.52
260.775	0.52
261.242	0.52
261.709	0.52
262.175	0.52
262.642	0.52
263.109	0.52
263.575	0.52
264.042	0.52
264.508	0.52
264.975	0.52
265.441	0.51
265.908	0.51
266.374	0.51
266.841	0.51
267.307	0.51
267.773	0.5
268.24	0.5
268.706	0.5
269.172	0.5
269.639	0.5
270.105	0.49
270.571	0.49
271.037	0.49
271.503	0.49
271.969	0.48
272.435	0.48
272.902	0.48
273.368	0.47
273.834	0.47
274.3	0.47
274.765	0.47
275.231	0.46
275.697	0.46
276.163	0.46
276.629	0.45
277.095	0.45
277.56	0.45
278.026	0.44
278.492	0.44
278.958	0.44
279.423	0.43
279.889	0.43
280.354	0.43
280.82	0.42
281.286	0.42
281.751	0.42
282.217	0.41
282.682	0.41
283.147	0.41
283.613	0.4
284.078	0.4
284.544	0.4
285.009	0.4
285.474	0.39
285.939	0.39
286.405	0.39
286.87	0.39
287.335	0.38
287.8	0.38
288.265	0.38
288.73	0.38
289.195	0.37
289.66	0.37
290.125	0.37
290.59	0.37
291.055	0.36
291.52	0.36
291.985	0.36
292.45	0.36
292.915	0.36
293.38	0.35
293.844	0.35
294.309	0.35
294.774	0.35
295.239	0.35
295.703	0.35
296.168	0.34
296.632	0.34
297.097	0.34
297.562	0.34
298.026	0.34
298.491	0.34
298.955	0.34
299.419	0.33
299.884	0.33
300.348	0.33
300.813	0.33
301.277	0.33
301.741	0.33
302.205	0.33
302.67	0.33
303.134	0.33
303.598	0.32
304.062	0.32
304.526	0.32
304.99	0.32
305.454	0.32
305.919	0.32
306.383	0.32
306.847	0.32
307.31	0.32
307.774	0.32
308.238	0.31
308.702	0.31
309.166	0.31
309.63	0.31
310.094	0.31
310.557	0.31
311.021	0.31
311.485	0.31
311.948	0.31
312.412	0.31
312.876	0.31
313.339	0.31
313.803	0.3
314.266	0.3
314.73	0.3
315.193	0.3
315.657	0.3
316.12	0.3
316.584	0.3
317.047	0.3
317.51	0.3
317.973	0.3
318.437	0.3
318.9	0.29
319.363	0.29
319.826	0.29
320.29	0.29
320.753	0.29
321.216	0.29
321.679	0.29
322.142	0.29
322.605	0.29
323.068	0.29
323.531	0.29
323.994	0.29
324.457	0.29
324.92	0.28
325.382	0.28
325.845	0.28
326.308	0.28
326.771	0.28
327.233	0.28
327.696	0.28
328.159	0.28
328.622	0.28
329.084	0.28
329.547	0.28
330.009	0.28
330.472	0.28
330.934	0.28
331.397	0.28
331.859	0.27
332.322	0.27
332.784	0.27
333.246	0.27
333.709	0.27
334.171	0.27
334.633	0.27
335.096	0.27
335.558	0.27
336.02	0.27
336.482	0.27
336.944	0.27
337.406	0.27
337.868	0.27
338.331	0.27
338.793	0.27
339.255	0.27
339.717	0.26
340.178	0.26
340.64	0.26
341.102	0.26
341.564	0.26
342.026	0.26
342.488	0.26
342.949	0.26
343.411	0.26
343.873	0.26
344.335	0.26
344.796	0.26
345.258	0.26
345.719	0.26
346.181	0.26
346.643	0.26
347.104	0.26
347.566	0.26
348.027	0.26
348.488	0.26
348.95	0.26
349.411	0.26
349.873	0.26
350.334	0.26
350.795	0.26
351.256	0.26
351.718	0.26
352.179	0.26
352.64	0.26
353.101	0.26
353.562	0.26
354.023	0.26
354.484	0.26
354.945	0.26
355.406	0.26
355.867	0.25
356.328	0.25
356.789	0.25
357.25	0.25
357.711	0.25
358.172	0.25
358.633	0.25
359.093	0.25
359.554	0.25
360.015	0.25
360.476	0.25
360.936	0.25
361.397	0.25
361.858	0.25
362.318	0.25
362.779	0.25
363.239	0.25
363.7	0.25
364.16	0.25
364.621	0.25
365.081	0.25
365.541	0.25
366.002	0.25
366.462	0.25
366.922	0.25
367.383	0.25
367.843	0.25
368.303	0.25
368.763	0.25
369.223	0.25
369.684	0.25
370.144	0.25
370.604	0.25
371.064	0.25
371.524	0.25
371.984	0.25
372.444	0.25
372.904	0.25
373.363	0.25
373.823	0.25
374.283	0.25
374.743	0.25
375.203	0.25
375.663	0.25
376.122	0.25
376.582	0.24
377.042	0.24
377.501	0.24
377.961	0.24
378.42	0.24
378.88	0.24
379.34	0.24
379.799	0.24
380.259	0.24
380.718	0.24
381.177	0.24
381.637	0.24
382.096	0.24
382.555	0.24
383.015	0.24
383.474	0.24
383.933	0.24
384.393	0.24
384.852	0.24
385.311	0.24
385.77	0.24
386.229	0.24
386.688	0.24
387.147	0.24
387.606	0.24
388.065	0.24
388.524	0.24
388.983	0.24
389.442	0.24
389.901	0.24
390.36	0.24
390.819	0.24
391.277	0.24
391.736	0.24
392.195	0.24
392.654	0.23
393.112	0.23
393.571	0.23
394.03	0.23
394.488	0.23
394.947	0.23
395.405	0.23
395.864	0.23
396.322	0.23
396.781	0.23
397.239	0.23
397.698	0.23
398.156	0.23
398.614	0.23
399.073	0.23
399.531	0.23
399.989	0.23
400.447	0.23
400.905	0.23
401.364	0.23
401.822	0.23
402.28	0.23
402.738	0.23
403.196	0.23
403.654	0.23
404.112	0.23
404.57	0.23
405.028	0.23
405.486	0.23
405.944	0.23
406.402	0.23
406.859	0.23
407.317	0.23
407.775	0.23
408.233	0.23
408.691	0.23
409.148	0.22
409.606	0.22
410.064	0.22
410.521	0.22
410.979	0.22
411.436	0.22
411.894	0.22
412.351	0.22
412.809	0.22
413.266	0.22
413.724	0.22
414.181	0.22
414.638	0.22
415.096	0.22
415.553	0.22
416.01	0.22
416.467	0.22
416.925	0.22
417.382	0.22
417.839	0.22
418.296	0.22
418.753	0.22
419.21	0.22
419.667	0.22
420.124	0.22
420.581	0.22
421.038	0.22
421.495	0.22
421.952	0.22
422.409	0.22
422.866	0.22
423.322	0.22
423.779	0.22
424.236	0.22
424.693	0.22
425.149	0.22
425.606	0.22
426.063	0.22
426.519	0.22
426.976	0.22
427.433	0.22
427.889	0.22
428.346	0.22
428.802	0.22
429.258	0.22
429.715	0.22
430.171	0.22
430.628	0.22
431.084	0.22
431.54	0.22
431.997	0.22
432.453	0.22
432.909	0.22
433.365	0.22
433.821	0.22
434.277	0.22
434.734	0.22
435.19	0.22
435.646	0.22
436.102	0.22
436.558	0.22
437.014	0.21
437.47	0.21
437.925	0.21
438.381	0.21
438.837	0.21
439.293	0.21
439.749	0.21
440.205	0.21
440.66	0.21
441.116	0.21
441.572	0.21
442.027	0.21
442.483	0.21
442.939	0.21
443.394	0.21
443.85	0.21
444.305	0.21
444.761	0.21
445.216	0.21
445.672	0.21
446.127	0.21
446.582	0.21
447.038	0.21
447.493	0.21
447.948	0.21
448.403	0.21
448.859	0.21
449.314	0.21
449.769	0.21
450.224	0.21
450.679	0.21
451.134	0.21
451.589	0.21
452.044	0.21
452.499	0.21
452.954	0.21
453.409	0.21
453.864	0.21
454.319	0.21
454.774	0.21
455.229	0.21
455.684	0.21
456.138	0.21
456.593	0.21
457.048	0.21
457.503	0.21
457.957	0.21
458.412	0.22
458.866	0.22
459.321	0.22
459.776	0.22
460.23	0.22
460.685	0.22
461.139	0.22
461.593	0.22
462.048	0.22
462.502	0.22
462.957	0.22
463.411	0.22
463.865	0.22
464.319	0.22
464.774	0.22
465.228	0.22
465.682	0.22
466.136	0.22
466.59	0.22
467.044	0.22
467.499	0.22
467.953	0.22
468.407	0.22
468.861	0.22
469.315	0.22
469.768	0.22
470.222	0.22
470.676	0.22
471.13	0.22
471.584	0.22
472.038	0.22
472.491	0.22
472.945	0.22
473.399	0.23
473.852	0.23
474.306	0.23
474.76	0.23
475.213	0.23
475.667	0.23
476.12	0.23
476.574	0.23
477.027	0.23
477.481	0.23
477.934	0.23
478.388	0.23
478.841	0.23
479.294	0.23
479.748	0.23
480.201	0.24
480.654	0.24
481.107	0.24
481.561	0.24
482.014	0.24
482.467	0.24
482.92	0.24
483.373	0.24
483.826	0.24
484.279	0.24
484.732	0.25
485.185	0.25
485.638	0.25
486.091	0.25
486.544	0.25
486.997	0.25
487.449	0.25
487.902	0.25
488.355	0.25
488.808	0.26
489.26	0.26
489.713	0.26
490.166	0.26
490.618	0.26
491.071	0.26
491.523	0.27
491.976	0.27
492.429	0.27
492.881	0.27
493.333	0.27
493.786	0.27
494.238	0.28
494.691	0.28
495.143	0.28
495.595	0.28
496.048	0.28
496.5	0.28
496.952	0.28
497.404	0.29
497.856	0.29
498.309	0.29
498.761	0.29
499.213	0.29
499.665	0.3
500.117	0.3
500.569	0.3
501.021	0.3
501.473	0.31
501.925	0.31
502.377	0.31
502.828	0.31
503.28	0.31
503.732	0.32
504.184	0.32
504.636	0.32
505.087	0.32
505.539	0.32
505.991	0.32
506.442	0.33
506.894	0.33
507.345	0.33
507.797	0.33
508.249	0.33
508.7	0.34
509.151	0.34
509.603	0.34
510.054	0.34
510.506	0.34
510.957	0.34
511.408	0.35
511.86	0.35
512.311	0.35
512.762	0.35
513.213	0.35
513.665	0.35
514.116	0.35
514.567	0.36
515.018	0.36
515.469	0.36
515.92	0.36
516.371	0.36
516.822	0.36
517.273	0.36
517.724	0.36
518.175	0.36
518.626	0.36
519.076	0.36
519.527	0.36
519.978	0.36
520.429	0.37
520.88	0.37
521.33	0.37
521.781	0.37
522.232	0.37
522.682	0.37
523.133	0.37
523.583	0.37
524.034	0.37
524.484	0.37
524.935	0.37
525.385	0.37
525.836	0.37
526.286	0.37
526.736	0.37
527.187	0.37
527.637	0.37
528.087	0.36
528.538	0.36
528.988	0.36
529.438	0.36
529.888	0.36
530.338	0.36
530.788	0.36
531.238	0.36
531.688	0.36
532.139	0.35
532.589	0.35
533.038	0.35
533.488	0.35
533.938	0.35
534.388	0.35
534.838	0.34
535.288	0.34
535.738	0.34
536.187	0.34
536.637	0.34
537.087	0.33
537.537	0.33
537.986	0.33
538.436	0.33
538.885	0.33
539.335	0.32
539.785	0.32
540.234	0.32
540.684	0.32
541.133	0.32
541.582	0.31
542.032	0.31
542.481	0.31
542.931	0.31
543.38	0.3
543.829	0.3
544.278	0.3
544.728	0.3
545.177	0.29
545.626	0.29
546.075	0.29
546.524	0.28
546.973	0.28
547.422	0.28
547.871	0.28
548.32	0.27
548.769	0.27
549.218	0.27
549.667	0.27
550.116	0.26
550.565	0.26
551.014	0.26
551.463	0.25
551.911	0.25
552.36	0.25
552.809	0.25
553.258	0.24
553.706	0.24
554.155	0.24
554.603	0.23
555.052	0.23
555.501	0.23
555.949	0.23
556.398	0.22
556.846	0.22
557.294	0.22
557.743	0.22
558.191	0.21
558.64	0.21
559.088	0.21
559.536	0.21
559.985	0.2
560.433	0.2
560.881	0.2
561.329	0.2
561.777	0.2
562.225	0.19
562.674	0.19
563.122	0.19
563.57	0.19
564.018	0.18
564.466	0.18
564.914	0.18
565.362	0.18
565.809	0.18
566.257	0.17
566.705	0.17
567.153	0.17
567.601	0.17
568.048	0.16
568.496	0.16
568.944	0.16
569.392	0.16
569.839	0.16
570.287	0.15
570.734	0.15
571.182	0.15
571.63	0.15
572.077	0.15
572.525	0.14
572.972	0.14
573.419	0.14
573.867	0.14
574.314	0.14
574.761	0.14
575.209	0.14
575.656	0.13
576.103	0.13
576.551	0.13
576.998	0.13
577.445	0.13
577.892	0.13
578.339	0.13
578.786	0.13
579.233	0.12
579.68	0.12
580.127	0.12
580.574	0.12
581.021	0.12
581.468	0.12
581.915	0.12
582.362	0.12
582.809	0.12
583.255	0.11
583.702	0.11
584.149	0.11
584.596	0.11
585.042	0.11
585.489	0.11
585.936	0.11
586.382	0.11
586.829	0.11
587.275	0.11
587.722	0.1
588.168	0.1
588.615	0.1
589.061	0.1
589.508	0.1
589.954	0.1
590.4	0.1
590.847	0.1
591.293	0.1
591.739	0.1
592.185	0.1
592.632	0.1
593.078	0.1
593.524	0.1
593.97	0.1
594.416	0.1
594.862	0.1
595.308	0.1
595.754	0.1
596.2	0.1
596.646	0.1
597.092	0.09
597.538	0.09
597.984	0.09
598.43	0.09
598.876	0.09
599.321	0.09
599.767	0.09
600.213	0.09
600.659	0.09
601.104	0.09
601.55	0.09
601.995	0.09
602.441	0.09
602.887	0.09
603.332	0.09
603.778	0.09
604.223	0.09
604.668	0.09
605.114	0.09
605.559	0.09
606.005	0.09
606.45	0.09
606.895	0.09
607.341	0.09
607.786	0.09
608.231	0.09
608.676	0.09
609.121	0.09
609.566	0.09
610.012	0.09
610.457	0.09
610.902	0.09
611.347	0.09
611.792	0.09
612.237	0.09
612.682	0.09
613.127	0.09
613.571	0.09
614.016	0.09
614.461	0.09
614.906	0.09
615.351	0.09
615.795	0.09
616.24	0.09
616.685	0.1
617.129	0.1
617.574	0.1
618.019	0.1
618.463	0.1
618.908	0.1
619.352	0.1
619.797	0.1
620.241	0.1
620.686	0.1
621.13	0.1
621.574	0.1
622.019	0.1
622.463	0.1
622.907	0.1
623.352	0.1
623.796	0.1
624.24	0.1
624.684	0.1
625.128	0.1
625.572	0.11
626.016	0.11
626.461	0.11
626.905	0.11
627.349	0.11
627.793	0.11
628.236	0.11
628.68	0.11
629.124	0.11
629.568	0.11
630.012	0.11
630.456	0.11
630.9	0.11
631.343	0.12
631.787	0.12
632.231	0.12
632.674	0.12
633.118	0.12
633.562	0.12
634.005	0.12
634.449	0.13
634.892	0.13
635.336	0.13
635.779	0.13
636.223	0.13
636.666	0.14
637.109	0.14
637.553	0.14
637.996	0.14
638.439	0.14
638.883	0.15
639.326	0.15
639.769	0.15
640.212	0.15
640.655	0.15
641.099	0.16
641.542	0.16
641.985	0.16
642.428	0.16
642.871	0.16
643.314	0.16
643.757	0.17
644.2	0.17
644.643	0.17
645.085	0.17
645.528	0.17
645.971	0.18
646.414	0.18
646.857	0.18
647.299	0.18
647.742	0.19
648.185	0.19
648.627	0.19
649.07	0.2
649.513	0.2
649.955	0.2
650.398	0.2
650.84	0.21
651.283	0.21
651.725	0.21
652.168	0.22
652.61	0.22
653.052	0.22
653.495	0.23
653.937	0.18
654.379	0.14
654.821	0.15
655.264	0.15
655.706	0.15
656.148	0.15
656.59	0.15
657.032	0.16
657.474	0.16
657.916	0.16
658.358	0.15
658.8	0.2
659.242	0.26
659.684	0.27
660.126	0.27
660.568	0.27
661.01	0.28
661.452	0.28
661.894	0.28
662.335	0.29
662.777	0.29
663.219	0.3
663.661	0.3
664.102	0.3
664.544	0.3
664.985	0.31
665.427	0.31
665.869	0.31
666.31	0.32
666.752	0.32
667.193	0.32
667.634	0.32
668.076	0.33
668.517	0.33
668.959	0.33
669.4	0.34
669.841	0.34
670.282	0.34
670.724	0.34
671.165	0.35
671.606	0.35
672.047	0.35
672.488	0.35
672.929	0.35
673.37	0.36
673.811	0.36
674.252	0.36
674.693	0.36
675.134	0.37
675.575	0.37
676.016	0.37
676.457	0.37
676.898	0.37
677.339	0.37
677.78	0.38
678.22	0.38
678.661	0.38
679.102	0.38
679.542	0.38
679.983	0.38
680.424	0.38
680.864	0.38
681.305	0.38
681.745	0.39
682.186	0.39
682.626	0.39
683.067	0.39
683.507	0.39
683.948	0.39
684.388	0.39
684.828	0.39
685.269	0.39
685.709	0.39
686.149	0.39
686.589	0.39
687.029	0.39
687.47	0.39
687.91	0.39
688.35	0.39
688.79	0.39
689.23	0.39
689.67	0.39
690.11	0.39
690.55	0.39
690.99	0.38
691.43	0.38
691.87	0.38
692.31	0.38
692.749	0.38
693.189	0.38
693.629	0.38
694.069	0.38
694.508	0.37
694.948	0.37
695.388	0.37
695.827	0.37
696.267	0.37
696.706	0.36
697.146	0.36
697.586	0.36
698.025	0.36
698.464	0.36
698.904	0.36
699.343	0.35
699.783	0.35
700.222	0.35
700.661	0.35
701.101	0.34
701.54	0.34
701.979	0.34
702.418	0.34
702.857	0.34
703.297	0.33
703.736	0.33
704.175	0.33
704.614	0.33
705.053	0.32
705.492	0.32
705.931	0.32
706.37	0.32
706.809	0.31
707.248	0.31
707.687	0.31
708.125	0.31
708.564	0.31
709.003	0.3
709.442	0.3
709.88	0.3
710.319	0.3
710.758	0.29
711.196	0.29
711.635	0.29
712.074	0.28
712.512	0.28
712.951	0.28
713.389	0.28
713.828	0.27
714.266	0.27
714.705	0.27
715.143	0.27
715.581	0.27
716.02	0.26
716.458	0.26
716.896	0.26
717.334	0.26
717.773	0.25
718.211	0.25
718.649	0.25
719.087	0.25
719.525	0.24
719.963	0.24
720.401	0.24
720.839	0.24
721.277	0.23
721.715	0.23
722.153	0.23
722.591	0.23
723.029	0.23
723.467	0.22
723.905	0.22
724.342	0.22
724.78	0.21
725.218	0.21
725.656	0.21
726.093	0.21
726.531	0.2
726.969	0.2
727.406	0.2
727.844	0.2
728.281	0.19
728.719	0.19
729.156	0.19
729.594	0.19
730.031	0.19
730.469	0.18
730.906	0.18
731.343	0.18
731.781	0.18
732.218	0.18
732.655	0.17
733.092	0.17
733.53	0.17
733.967	0.17
734.404	0.17
734.841	0.16
735.278	0.16
735.715	0.16
736.152	0.16
736.589	0.16
737.026	0.15
737.463	0.15
737.9	0.15
738.337	0.15
738.774	0.15
739.211	0.15
739.647	0.14
740.084	0.14
740.521	0.14
740.958	0.14
741.394	0.14
741.831	0.14
742.268	0.13
742.704	0.13
743.141	0.13
743.577	0.13
744.014	0.13
744.45	0.13
744.887	0.12
745.323	0.12
745.76	0.12
746.196	0.12
746.632	0.12
747.069	0.11
747.505	0.11
747.941	0.11
748.378	0.11
748.814	0.11
749.25	0.11
749.686	0.11
750.122	0.11
750.558	0.11
750.994	0.1
751.43	0.1
751.866	0.1
752.302	0.1
752.738	0.1
753.174	0.1
753.61	0.1
754.046	0.1
754.482	0.1
754.918	0.09
755.354	0.09
755.789	0.09
756.225	0.09
756.661	0.09
757.096	0.09
757.532	0.09
757.968	0.09
758.403	0.09
758.839	0.09
759.274	0.09
759.71	0.09
760.145	0.09
760.581	0.09
761.016	0.09
761.452	0.09
761.887	0.09
762.322	0.08
762.758	0.08
763.193	0.08
763.628	0.08
764.063	0.08
764.499	0.08
764.934	0.08
765.369	0.08
765.804	0.08
766.239	0.08
766.674	0.08
767.109	0.08
767.544	0.08
767.979	0.07
768.414	0.07
768.849	0.07
769.284	0.07
769.719	0.07
770.154	0.07
770.588	0.07
771.023	0.06
771.458	0.06
771.893	0.06
772.327	0.06
772.762	0.06
773.197	0.06
773.631	0.06
774.066	0.06
774.5	0.06
774.935	0.06
775.369	0.05
775.804	0.05
776.238	0.05
776.673	0.05
777.107	0.05
777.541	0.05
777.976	0.05
778.41	0.05
778.844	0.05
779.279	0.05
779.713	0.05
780.147	0.05
780.581	0.05
781.015	0.05
781.449	0.05
781.883	0.05
782.317	0.05
782.751	0.05
783.185	0.05
783.619	0.04
784.053	0.04
784.487	0.04
784.921	0.04
785.355	0.04
785.789	0.04
786.223	0.04
786.656	0.04
787.09	0.04
787.524	0.04
787.957	0.04
788.391	0.04
788.825	0.04
789.258	0.04
789.692	0.04
790.125	0.04
790.559	0.04
790.992	0.04
791.426	0.04
791.859	0.04
792.293	0.04
792.726	0.04
793.159	0.04
793.593	0.04
794.026	0.04
794.459	0.04
794.892	0.04
795.326	0.04
795.759	0.04
796.192	0.04
796.625	0.04
797.058	0.04
797.491	0.04
797.924	0.04
798.357	0.04
798.79	0.03
799.223	0.03
799.656	0.03
800.089	0.03
800.522	0.03
800.955	0.03
801.387	0.03
801.82	0.03
802.253	0.03
802.686	0.03
803.118	0.03
803.551	0.03
803.984	0.03
804.416	0.03
804.849	0.03
805.281	0.03
805.714	0.03
806.146	0.03
806.579	0.03
807.011	0.03
807.444	0.03
807.876	0.03
808.308	0.03
808.741	0.03
809.173	0.03
809.605	0.03
810.037	0.03
810.47	0.03
810.902	0.03
811.334	0.03
811.766	0.03
812.198	0.02
812.63	0.02
813.062	0.02
813.494	0.02
813.926	0.02
814.358	0.02
814.79	0.02
815.222	0.02
815.654	0.02
816.086	0.02
816.518	0.02
816.949	0.02
817.381	0.02
817.813	0.02
818.245	0.02
818.676	0.02
819.108	0.02
819.54	0.02
819.971	0.02
820.403	0.02
820.834	0.02
821.266	0.02
821.697	0.02
822.129	0.02
822.56	0.02
822.991	0.02
823.423	0.02
823.854	0.02
824.286	0.03
824.717	0.03
825.148	0.03
825.579	0.03
826.01	0.03
826.442	0.03
826.873	0.03
827.304	0.03
827.735	0.03
828.166	0.03
828.597	0.03
829.028	0.03
829.459	0.02
829.89	0.02
830.321	0.02
830.752	0.02
831.183	0.02
831.613	0.02
832.044	0.02
832.475	0.02
832.906	0.02
833.336	0.02
833.767	0.02
834.198	0.02
834.628	0.02
835.059	0.02
835.49	0.02
835.92	0.02
836.351	0.02
836.781	0.02
837.212	0.02
837.642	0.02
838.072	0.02
838.503	0.02
838.933	0.02
839.364	0.02
839.794	0.02
840.224	0.02
840.654	0.02
841.085	0.02
841.515	0.02
841.945	0.02
842.375	0.02
842.805	0.02
843.235	0.01
843.665	0.01
844.095	0.01
844.525	0.01
844.955	0.01
845.385	0.01
845.815	0.01
846.245	0.01
846.675	0.01
847.105	0.01
847.534	0.01
847.964	0.01
848.394	0.01
848.824	0.01
849.253	0.01
849.683	0.01
850.112	0.01
850.542	0.01
850.972	0.01
851.401	0.02
851.831	0.02
852.26	0.02
852.69	0.02
853.119	0.02
853.548	0.02
853.978	0.02
854.407	0.02
854.836	0.02
855.266	0.02
855.695	0.02
856.124	0.02
856.553	0.02
856.983	0.02
857.412	0.02
857.841	0.02
858.27	0.02
858.699	0.02
859.128	0.02
859.557	0.02
859.986	0.02
860.415	0.02
860.844	0.02
861.273	0.02
861.702	0.02
862.13	0.02
862.559	0.02
862.988	0.02
863.417	0.02
863.845	0.02
864.274	0.02
864.703	0.02
865.131	0.02
865.56	0.02
865.989	0.02
866.417	0.02
866.846	0.02
867.274	0.02
867.703	0.02
868.131	0.02
868.559	0.02
868.988	0.02
869.416	0.02
869.844	0.02
870.273	0.02
870.701	0.02
871.129	0.02
871.557	0.02
871.986	0.02
872.414	0.02
872.842	0.02
873.27	0.01
873.698	0.01
874.126	0.01
874.554	0.01
874.982	0.01
875.41	0.01
875.838	0.01
876.266	0.01
876.694	0.01
877.122	0.01
877.549	0.01
877.977	0.01
878.405	0.01
878.833	0.02
879.26	0.02
879.688	0.01
880.116	0.01
880.543	0.01
880.971	0.01
881.399	0.01
881.826	0.01
882.254	0.01
882.681	0.01
883.109	0.01
883.536	0.01
883.963	0.01
884.391	0.01
884.818	0.01
885.245	0.01
885.673	0.01
886.1	0.01
886.527	0.01
886.954	0.01
887.381	0.01
887.809	0.01
888.236	0.01
888.663	0.01
889.09	0.01
889.517	0.01
889.944	0.01
890.371	0.01
890.798	0.01
891.225	0.01
891.652	0.01
892.078	0.01
892.505	0.01
892.932	0.01
893.359	0.01
893.786	0.01
894.212	0.01
894.639	0.01
895.066	0.01
895.492	0.01
895.919	0.01
896.346	0.01
896.772	0.01
897.199	0.01
897.625	0.01
898.052	0.01
898.478	0.01
898.904	0
899.331	0
899.757	0
900.183	0
900.61	0
901.036	0
901.462	-0
901.888	-0
902.315	-0
902.741	-0
903.167	-0
903.593	-0
904.019	-0
904.445	-0
904.871	-0
905.297	0
905.723	0
906.149	0
906.575	0
907.001	0
907.427	0.01
907.852	0.01
908.278	0.01
908.704	0.01
909.13	0.01
909.555	0.01
909.981	0.01
910.407	0.01
910.832	0.01
911.258	0.01
911.684	0.01
912.109	0.01
912.535	0.01
912.96	0.01
913.386	0.01
913.811	0.01
914.236	0.01
914.662	0.01
915.087	0.01
915.512	0.01
915.938	0.01
916.363	0.01
916.788	0.01
917.213	0.01
917.639	0.01
918.064	0.01
918.489	0.01
918.914	0.01
919.339	0.01
919.764	0.01
920.189	0.01
920.614	0.01
921.039	0.01
921.464	0.01
921.889	0.01
922.314	0.01
922.738	0.01
923.163	0.01
923.588	0.01
924.013	0.01
924.437	0.01
924.862	0.01
925.287	0.01
925.711	0.01
926.136	0.01
926.561	0.01
926.985	0.01
927.41	0.01
927.834	0.01
928.259	0.01
928.683	0.01
929.108	0.01
929.532	0.01
929.956	0
930.381	0
930.805	0
931.229	0
931.653	0
932.078	0
932.502	0
932.926	0
933.35	0
933.774	0
934.198	0
934.622	0
935.046	0
935.47	0
935.894	0
936.318	0.01
936.742	0.01
937.166	0.01
937.59	0.01
938.014	0.01
938.437	0.01
938.861	0.01
939.285	0.01
939.709	0.01
940.132	0.01
940.556	0.01
940.98	0.01
941.403	0.01
941.827	0.01
942.25	0.01
942.674	0.01
943.097	0.01
943.521	0.01
943.944	0.01
944.368	0.01
944.791	0.01
945.214	0.01
945.638	0.01
946.061	0.01
946.484	0.01
946.907	0.01
947.331	0.01
947.754	0.01
948.177	0.01
948.6	0.01
949.023	0.01
949.446	0.01
949.869	0.01
950.292	0.01
950.715	0
951.138	0
951.561	0
951.984	0
952.407	0
952.83	0
953.252	0
953.675	0
954.098	0
954.521	0
954.943	0.01
955.366	0.01
955.789	0.01
956.211	0.01
956.634	0.01
957.056	0.01
957.479	0.01
957.902	0.01
958.324	0.01
958.746	0.01
959.169	0.01
959.591	0.01
960.014	0.01
960.436	0.01
960.858	0.01
961.281	0.01
961.703	0.01
962.125	0.01
962.547	0.01
962.969	0.01
963.391	0.01
963.814	0.01
964.236	0.01
964.658	0.01
965.08	0.01
965.502	0.01
965.924	0.01
966.346	0.01
966.768	0.01
967.189	0.01
967.611	0.01
968.033	0.01
968.455	0.01
968.877	0.01
969.298	0.01
969.72	0.01
970.142	0.01
970.563	0.01
970.985	0.01
971.407	0.01
971.828	0.01
972.25	0.01
972.671	0.01
973.093	0.01
973.514	0.01
973.936	0.01
974.357	0.01
974.778	0.01
975.2	0.01
975.621	0.01
976.042	0.01
976.464	0.01
976.885	0.01
977.306	0.01
977.727	0.01
978.148	0.01
978.57	0.01
978.991	0.01
979.412	0.01
979.833	0.01
980.254	0.01
980.675	0.01
981.096	0.01
981.517	0.01
981.937	0.01
982.358	0.01
982.779	0.01
983.2	0.01
983.621	0.01
984.042	0.01
984.462	0.01
984.883	0
985.304	0
985.724	0
986.145	0
986.565	0
986.986	0
987.407	0
987.827	0
988.248	0
988.668	0
989.088	0
989.509	0
989.929	0
990.35	0.01
990.77	0.01
991.19	0.01
991.61	0.01
992.031	0.01
992.451	0.01
992.871	0.01
993.291	0.01
993.711	0.01
994.131	0.01
994.551	0.01
994.971	0.01
995.391	0.01
995.811	0.01
996.231	0.01
996.651	0
997.071	0
997.491	0
997.911	0
998.331	0
998.75	0
999.17	0
999.59	0
1000.009	0
1000.429	0
1000.849	0.01
1001.268	0.01
1001.688	0
1002.107	0
1002.527	0
1002.946	0
1003.366	0
1003.785	0
1004.205	0
1004.624	0
1005.044	0
1005.463	0
1005.882	0
1006.301	0
1006.721	0
1007.14	0
1007.559	-0
1007.978	-0
1008.397	-0
1008.816	-0
1009.235	-0
1009.655	-0
1010.074	-0
1010.492	-0
1010.911	-0
1011.33	-0
1011.749	-0
1012.168	-0
1012.587	-0
1013.006	-0
1013.425	-0
1013.843	-0
1014.262	-0
1014.681	-0
1015.099	-0
1015.518	-0
1015.937	-0
1016.355	-0
1016.774	-0
1017.192	-0
1017.611	-0
1018.029	-0
1018.448	-0
1018.866	-0
1019.285	-0
1019.703	-0
1020.121	-0
1020.54	-0
1020.958	-0
1021.376	-0
1021.794	-0
1022.213	-0
1022.631	-0
1023.049	-0
1023.467	-0
1023.885	-0
1024.303	-0
1024.721	-0
1025.139	-0
1025.557	-0
1025.975	-0
1026.393	-0
1026.811	-0
1027.229	-0
1027.647	-0
1028.065	-0
1028.482	-0
1028.9	-0
1029.318	-0
1029.735	-0
1030.153	-0
1030.571	-0
1030.988	-0
1031.406	-0
1031.823	-0
1032.241	-0
1032.659	-0
1033.076	-0
1033.493	-0
1033.911	-0
1034.328	-0
1034.746	-0
1035.163	-0
1035.58	-0
1035.997	-0
1036.415	-0
1036.832	-0
1037.249	-0
1037.666	-0
1038.083	-0
1038.501	-0
1038.918	-0
1039.335	-0
1039.752	-0
1040.169	-0
1040.586	-0
1041.003	-0
1041.419	-0
1041.836	-0
1042.253	-0
1042.67	-0
1043.087	-0
1043.504	-0
1043.92	-0
1044.337	-0
1044.754	-0
1045.17	-0
1045.587	-0
1046.004	-0
1046.42	-0
1046.837	-0
1047.253	-0
1047.67	-0
1048.086	-0.01
1048.503	-0.01
1048.919	-0.01
1049.335	-0.01
1049.752	-0.01
1050.168	-0.01
1050.584	-0.01
1051.001	-0.01
1051.417	-0.01
1051.833	-0.01
1052.249	-0.01
1052.665	-0.01
1053.081	-0.01
1053.497	-0.01
1053.914	-0.01
1054.33	-0.01
1054.746	-0.01
1055.162	-0.01
1055.578	-0.01
1055.993	-0.01
1056.409	-0.01
1056.825	-0.01
1057.241	-0.01
1057.657	-0.01
1058.073	-0.01
1058.488	-0.01
1058.904	-0.02
1059.32	-0.02
1059.736	-0.02
1060.151	-0.02
1060.567	-0.02
1060.982	-0.01
1061.398	-0.01
1061.813	-0.01
1062.229	-0.01
1062.644	-0.01
1063.06	-0.01
1063.475	-0.01
1063.891	-0.01
1064.306	-0.01
1064.721	-0.01
1065.137	-0.01
1065.552	-0.01
1065.967	-0.01
1066.382	-0.01
1066.798	-0.01
1067.213	-0.01
1067.628	-0.01
1068.043	-0.01
1068.458	-0.01
1068.873	-0.01
1069.288	-0.01
1069.703	-0.01
1070.118	-0.01
1070.533	-0.01
1070.948	-0.01
1071.363	-0.01
1071.778	-0.01
1072.193	-0.01
1072.607	-0.01
1073.022	-0.01
1073.437	-0.01
1073.852	-0.01
1074.266	-0.01
1074.681	-0.01
1075.096	-0.01
1075.51	-0.01
1075.925	-0.01
1076.339	-0.01
1076.754	-0.01
1077.168	-0.01
1077.583	-0.01
1077.997	-0.01
1078.412	-0.01
1078.826	-0.01
1079.24	-0.01
1079.655	-0.01
1080.069	-0.01
1080.483	-0.01
1080.897	-0.01
1081.312	-0.01
1081.726	-0.01
1082.14	-0.01
1082.554	-0.01
1082.968	-0.01
1083.382	-0.01
1083.796	-0.01
1084.21	-0.01
1084.624	-0.01
1085.038	-0.02
1085.452	-0.02
1085.866	-0.02
1086.28	-0.02
1086.694	-0.02
1087.108	-0.02
1087.521	-0.02
1087.935	-0.02
1088.349	-0.02
1088.763	-0.02
1089.176	-0.02
1089.59	-0.02
1090.004	-0.02
1090.417	-0.02
1090.831	-0.02
1091.244	-0.02
1091.658	-0.02
1092.071	-0.02
1092.485	-0.02
1092.898	-0.03
1093.312	-0.03
1093.725	-0.03
1094.138	-0.03
1094.552	-0.03
1094.965	-0.03
1095.378	-0.03
1095.791	-0.03
1096.205	-0.03
1096.618	-0.03
1097.031	-0.03
1097.444	-0.03
1097.857	-0.04
1098.27	-0.04
1098.683	-0.04
1099.096	-0.04
1099.509	-0.04
1099.922	-0.04
1100.335	-0.04
1100.748	-0.04
1101.161	-0.04
1101.574	-0.04
1101.986	-0.04
1102.399	-0.04
1102.812	-0.04
1103.225	-0.04
1103.637	-0.04
1104.05	-0.04
1104.463	-0.04
1104.875	-0.04
1105.288	-0.05
1105.7	-0.05
1106.113	-0.05
1106.525	-0.05
1106.938	-0.05
1107.35	-0.05
1107.763	-0.05
1108.175	-0.05
1108.588	-0.05
1109	-0.06
1109.412	-0.06
1109.824	-0.06
1110.237	-0.06
1110.649	-0.06
1111.061	-0.06
