Data from 2024-02-06-100ns-20nr-25nacl-100h2o-7bp2-40to10hyt-dark-0_5cpm_Absorbance__64__00064.txt Node

Date: Tue Feb 06 10:44:00 CET 2024
User: Laser008
Spectrometer: MAYP115816
Trigger mode: 0
Integration Time (sec): 2.000000E-1
Scans to average: 10
Electric dark correction enabled: true
Nonlinearity correction enabled: true
Boxcar width: 5
XAxis mode: Wavelengths
Number of Pixels in Spectrum: 2068
>>>>>Begin Spectral Data<<<<<
198.914	-0.27
199.384	-0.25
199.855	-0.19
200.325	-0.15
200.796	-0.12
201.266	-0.11
201.737	-0.1
202.207	-0.09
202.677	-0.09
203.147	-0.08
203.618	-0.08
204.088	-0.07
204.558	-0.06
205.028	-0.06
205.498	-0.06
205.968	-0.06
206.439	-0.06
206.909	-0.06
207.379	-0.05
207.849	-0.05
208.319	-0.06
208.789	-0.05
209.258	-0.05
209.728	-0.05
210.198	-0.05
210.668	-0.05
211.138	-0.06
211.608	-0.06
212.077	-0.06
212.547	-0.06
213.017	-0.06
213.486	-0.06
213.956	-0.06
214.426	-0.06
214.895	-0.06
215.365	-0.06
215.834	-0.06
216.304	-0.06
216.773	-0.06
217.243	-0.06
217.712	-0.06
218.181	-0.06
218.651	-0.05
219.12	-0.05
219.589	-0.05
220.058	-0.05
220.528	-0.05
220.997	-0.05
221.466	-0.05
221.935	-0.05
222.404	-0.05
222.873	-0.05
223.342	-0.04
223.812	-0.04
224.281	-0.04
224.749	-0.03
225.218	-0.03
225.687	-0.03
226.156	-0.02
226.625	-0.01
227.094	-0.01
227.563	-0
228.031	0.01
228.5	0.01
228.969	0.03
229.438	0.04
229.906	0.05
230.375	0.07
230.844	0.08
231.312	0.1
231.781	0.11
232.249	0.12
232.718	0.13
233.186	0.15
233.655	0.16
234.123	0.18
234.591	0.19
235.06	0.19
235.528	0.21
235.996	0.21
236.465	0.22
236.933	0.23
237.401	0.23
237.869	0.24
238.337	0.25
238.805	0.25
239.274	0.25
239.742	0.26
240.21	0.26
240.678	0.26
241.146	0.27
241.614	0.27
242.081	0.27
242.549	0.28
243.017	0.28
243.485	0.28
243.953	0.28
244.421	0.29
244.888	0.29
245.356	0.29
245.824	0.29
246.291	0.29
246.759	0.3
247.227	0.3
247.694	0.3
248.162	0.3
248.629	0.31
249.097	0.31
249.564	0.31
250.032	0.31
250.499	0.32
250.967	0.32
251.434	0.32
251.901	0.32
252.369	0.32
252.836	0.32
253.303	0.33
253.77	0.33
254.237	0.33
254.705	0.33
255.172	0.33
255.639	0.33
256.106	0.33
256.573	0.34
257.04	0.34
257.507	0.34
257.974	0.34
258.441	0.34
258.908	0.34
259.375	0.34
259.841	0.34
260.308	0.34
260.775	0.34
261.242	0.34
261.709	0.34
262.175	0.34
262.642	0.34
263.109	0.34
263.575	0.34
264.042	0.34
264.508	0.34
264.975	0.34
265.441	0.34
265.908	0.34
266.374	0.34
266.841	0.33
267.307	0.33
267.773	0.33
268.24	0.33
268.706	0.33
269.172	0.33
269.639	0.33
270.105	0.33
270.571	0.32
271.037	0.32
271.503	0.32
271.969	0.32
272.435	0.32
272.902	0.32
273.368	0.31
273.834	0.31
274.3	0.31
274.765	0.31
275.231	0.31
275.697	0.31
276.163	0.3
276.629	0.3
277.095	0.3
277.56	0.3
278.026	0.3
278.492	0.29
278.958	0.29
279.423	0.29
279.889	0.29
280.354	0.29
280.82	0.28
281.286	0.28
281.751	0.28
282.217	0.28
282.682	0.28
283.147	0.28
283.613	0.27
284.078	0.27
284.544	0.27
285.009	0.27
285.474	0.27
285.939	0.27
286.405	0.26
286.87	0.26
287.335	0.26
287.8	0.26
288.265	0.26
288.73	0.26
289.195	0.26
289.66	0.25
290.125	0.25
290.59	0.25
291.055	0.25
291.52	0.25
291.985	0.25
292.45	0.25
292.915	0.25
293.38	0.25
293.844	0.24
294.309	0.24
294.774	0.24
295.239	0.24
295.703	0.24
296.168	0.24
296.632	0.24
297.097	0.24
297.562	0.24
298.026	0.24
298.491	0.24
298.955	0.24
299.419	0.24
299.884	0.24
300.348	0.24
300.813	0.24
301.277	0.24
301.741	0.24
302.205	0.24
302.67	0.24
303.134	0.24
303.598	0.24
304.062	0.24
304.526	0.24
304.99	0.24
305.454	0.23
305.919	0.23
306.383	0.23
306.847	0.23
307.31	0.23
307.774	0.23
308.238	0.23
308.702	0.23
309.166	0.23
309.63	0.23
310.094	0.23
310.557	0.23
311.021	0.23
311.485	0.23
311.948	0.23
312.412	0.23
312.876	0.23
313.339	0.23
313.803	0.23
314.266	0.23
314.73	0.23
315.193	0.23
315.657	0.23
316.12	0.23
316.584	0.23
317.047	0.23
317.51	0.23
317.973	0.23
318.437	0.23
318.9	0.23
319.363	0.23
319.826	0.23
320.29	0.23
320.753	0.23
321.216	0.23
321.679	0.23
322.142	0.23
322.605	0.23
323.068	0.22
323.531	0.22
323.994	0.22
324.457	0.22
324.92	0.22
325.382	0.22
325.845	0.22
326.308	0.22
326.771	0.22
327.233	0.22
327.696	0.22
328.159	0.22
328.622	0.22
329.084	0.22
329.547	0.22
330.009	0.22
330.472	0.22
330.934	0.22
331.397	0.22
331.859	0.22
332.322	0.22
332.784	0.22
333.246	0.22
333.709	0.22
334.171	0.22
334.633	0.22
335.096	0.22
335.558	0.22
336.02	0.22
336.482	0.22
336.944	0.22
337.406	0.22
337.868	0.22
338.331	0.22
338.793	0.22
339.255	0.22
339.717	0.21
340.178	0.21
340.64	0.21
341.102	0.21
341.564	0.21
342.026	0.21
342.488	0.21
342.949	0.21
343.411	0.21
343.873	0.21
344.335	0.21
344.796	0.21
345.258	0.21
345.719	0.21
346.181	0.21
346.643	0.21
347.104	0.21
347.566	0.21
348.027	0.21
348.488	0.21
348.95	0.21
349.411	0.21
349.873	0.21
350.334	0.21
350.795	0.21
351.256	0.21
351.718	0.21
352.179	0.21
352.64	0.21
353.101	0.21
353.562	0.21
354.023	0.21
354.484	0.21
354.945	0.21
355.406	0.21
355.867	0.21
356.328	0.21
356.789	0.21
357.25	0.21
357.711	0.21
358.172	0.21
358.633	0.21
359.093	0.21
359.554	0.21
360.015	0.21
360.476	0.21
360.936	0.21
361.397	0.21
361.858	0.21
362.318	0.21
362.779	0.21
363.239	0.21
363.7	0.21
364.16	0.21
364.621	0.21
365.081	0.21
365.541	0.21
366.002	0.21
366.462	0.21
366.922	0.21
367.383	0.21
367.843	0.21
368.303	0.21
368.763	0.21
369.223	0.21
369.684	0.21
370.144	0.21
370.604	0.21
371.064	0.21
371.524	0.21
371.984	0.21
372.444	0.21
372.904	0.21
373.363	0.21
373.823	0.21
374.283	0.21
374.743	0.21
375.203	0.21
375.663	0.21
376.122	0.21
376.582	0.21
377.042	0.21
377.501	0.21
377.961	0.21
378.42	0.21
378.88	0.21
379.34	0.21
379.799	0.21
380.259	0.21
380.718	0.21
381.177	0.21
381.637	0.21
382.096	0.21
382.555	0.21
383.015	0.21
383.474	0.21
383.933	0.21
384.393	0.21
384.852	0.21
385.311	0.21
385.77	0.21
386.229	0.21
386.688	0.21
387.147	0.21
387.606	0.21
388.065	0.21
388.524	0.21
388.983	0.21
389.442	0.21
389.901	0.21
390.36	0.2
390.819	0.2
391.277	0.21
391.736	0.21
392.195	0.2
392.654	0.2
393.112	0.2
393.571	0.2
394.03	0.2
394.488	0.2
394.947	0.2
395.405	0.2
395.864	0.2
396.322	0.2
396.781	0.2
397.239	0.2
397.698	0.2
398.156	0.2
398.614	0.2
399.073	0.2
399.531	0.2
399.989	0.2
400.447	0.2
400.905	0.2
401.364	0.2
401.822	0.2
402.28	0.2
402.738	0.2
403.196	0.2
403.654	0.2
404.112	0.2
404.57	0.2
405.028	0.2
405.486	0.2
405.944	0.2
406.402	0.2
406.859	0.2
407.317	0.2
407.775	0.2
408.233	0.2
408.691	0.2
409.148	0.2
409.606	0.2
410.064	0.2
410.521	0.2
410.979	0.2
411.436	0.2
411.894	0.2
412.351	0.2
412.809	0.2
413.266	0.2
413.724	0.2
414.181	0.2
414.638	0.2
415.096	0.2
415.553	0.2
416.01	0.2
416.467	0.2
416.925	0.2
417.382	0.2
417.839	0.2
418.296	0.2
418.753	0.2
419.21	0.2
419.667	0.2
420.124	0.2
420.581	0.2
421.038	0.2
421.495	0.2
421.952	0.2
422.409	0.2
422.866	0.2
423.322	0.2
423.779	0.2
424.236	0.2
424.693	0.2
425.149	0.2
425.606	0.2
426.063	0.2
426.519	0.2
426.976	0.2
427.433	0.2
427.889	0.2
428.346	0.19
428.802	0.19
429.258	0.19
429.715	0.19
430.171	0.19
430.628	0.19
431.084	0.19
431.54	0.19
431.997	0.19
432.453	0.19
432.909	0.19
433.365	0.19
433.821	0.19
434.277	0.19
434.734	0.19
435.19	0.19
435.646	0.19
436.102	0.19
436.558	0.19
437.014	0.19
437.47	0.19
437.925	0.19
438.381	0.19
438.837	0.19
439.293	0.19
439.749	0.19
440.205	0.19
440.66	0.19
441.116	0.19
441.572	0.19
442.027	0.19
442.483	0.19
442.939	0.19
443.394	0.19
443.85	0.19
444.305	0.19
444.761	0.19
445.216	0.19
445.672	0.19
446.127	0.19
446.582	0.19
447.038	0.19
447.493	0.19
447.948	0.19
448.403	0.19
448.859	0.19
449.314	0.19
449.769	0.19
450.224	0.19
450.679	0.19
451.134	0.19
451.589	0.19
452.044	0.19
452.499	0.19
452.954	0.19
453.409	0.19
453.864	0.19
454.319	0.19
454.774	0.19
455.229	0.19
455.684	0.19
456.138	0.19
456.593	0.19
457.048	0.19
457.503	0.19
457.957	0.19
458.412	0.19
458.866	0.19
459.321	0.19
459.776	0.19
460.23	0.19
460.685	0.19
461.139	0.19
461.593	0.19
462.048	0.19
462.502	0.19
462.957	0.19
463.411	0.19
463.865	0.19
464.319	0.19
464.774	0.19
465.228	0.19
465.682	0.19
466.136	0.19
466.59	0.19
467.044	0.19
467.499	0.19
467.953	0.19
468.407	0.19
468.861	0.19
469.315	0.19
469.768	0.19
470.222	0.19
470.676	0.19
471.13	0.19
471.584	0.19
472.038	0.19
472.491	0.19
472.945	0.19
473.399	0.19
473.852	0.19
474.306	0.19
474.76	0.19
475.213	0.19
475.667	0.19
476.12	0.19
476.574	0.19
477.027	0.19
477.481	0.19
477.934	0.19
478.388	0.19
478.841	0.19
479.294	0.19
479.748	0.19
480.201	0.19
480.654	0.19
481.107	0.19
481.561	0.19
482.014	0.19
482.467	0.19
482.92	0.19
483.373	0.19
483.826	0.19
484.279	0.19
484.732	0.19
485.185	0.19
485.638	0.19
486.091	0.2
486.544	0.2
486.997	0.2
487.449	0.2
487.902	0.2
488.355	0.2
488.808	0.2
489.26	0.2
489.713	0.2
490.166	0.2
490.618	0.2
491.071	0.2
491.523	0.2
491.976	0.2
492.429	0.2
492.881	0.2
493.333	0.2
493.786	0.21
494.238	0.21
494.691	0.21
495.143	0.21
495.595	0.21
496.048	0.21
496.5	0.21
496.952	0.21
497.404	0.21
497.856	0.21
498.309	0.21
498.761	0.21
499.213	0.21
499.665	0.22
500.117	0.22
500.569	0.22
501.021	0.22
501.473	0.22
501.925	0.22
502.377	0.22
502.828	0.22
503.28	0.22
503.732	0.23
504.184	0.23
504.636	0.23
505.087	0.23
505.539	0.23
505.991	0.23
506.442	0.23
506.894	0.23
507.345	0.23
507.797	0.23
508.249	0.24
508.7	0.24
509.151	0.24
509.603	0.24
510.054	0.24
510.506	0.24
510.957	0.24
511.408	0.24
511.86	0.24
512.311	0.24
512.762	0.24
513.213	0.25
513.665	0.25
514.116	0.25
514.567	0.25
515.018	0.25
515.469	0.25
515.92	0.25
516.371	0.25
516.822	0.25
517.273	0.25
517.724	0.26
518.175	0.26
518.626	0.26
519.076	0.26
519.527	0.26
519.978	0.26
520.429	0.26
520.88	0.26
521.33	0.26
521.781	0.26
522.232	0.26
522.682	0.26
523.133	0.27
523.583	0.27
524.034	0.27
524.484	0.27
524.935	0.27
525.385	0.27
525.836	0.27
526.286	0.27
526.736	0.27
527.187	0.27
527.637	0.27
528.087	0.27
528.538	0.27
528.988	0.28
529.438	0.28
529.888	0.28
530.338	0.28
530.788	0.28
531.238	0.28
531.688	0.28
532.139	0.28
532.589	0.28
533.038	0.28
533.488	0.28
533.938	0.28
534.388	0.28
534.838	0.28
535.288	0.28
535.738	0.28
536.187	0.28
536.637	0.29
537.087	0.29
537.537	0.29
537.986	0.29
538.436	0.29
538.885	0.29
539.335	0.29
539.785	0.29
540.234	0.29
540.684	0.29
541.133	0.29
541.582	0.29
542.032	0.29
542.481	0.29
542.931	0.29
543.38	0.29
543.829	0.29
544.278	0.29
544.728	0.29
545.177	0.29
545.626	0.29
546.075	0.29
546.524	0.3
546.973	0.3
547.422	0.3
547.871	0.3
548.32	0.3
548.769	0.3
549.218	0.3
549.667	0.3
550.116	0.3
550.565	0.3
551.014	0.3
551.463	0.3
551.911	0.3
552.36	0.3
552.809	0.3
553.258	0.3
553.706	0.3
554.155	0.3
554.603	0.3
555.052	0.3
555.501	0.3
555.949	0.3
556.398	0.3
556.846	0.3
557.294	0.3
557.743	0.3
558.191	0.3
558.64	0.3
559.088	0.3
559.536	0.3
559.985	0.3
560.433	0.31
560.881	0.31
561.329	0.31
561.777	0.31
562.225	0.31
562.674	0.31
563.122	0.31
563.57	0.3
564.018	0.3
564.466	0.3
564.914	0.3
565.362	0.3
565.809	0.3
566.257	0.3
566.705	0.3
567.153	0.3
567.601	0.3
568.048	0.3
568.496	0.3
568.944	0.3
569.392	0.3
569.839	0.3
570.287	0.3
570.734	0.3
571.182	0.3
571.63	0.3
572.077	0.3
572.525	0.3
572.972	0.3
573.419	0.3
573.867	0.3
574.314	0.3
574.761	0.3
575.209	0.3
575.656	0.3
576.103	0.3
576.551	0.3
576.998	0.3
577.445	0.3
577.892	0.3
578.339	0.3
578.786	0.3
579.233	0.3
579.68	0.3
580.127	0.29
580.574	0.29
581.021	0.29
581.468	0.29
581.915	0.29
582.362	0.29
582.809	0.29
583.255	0.29
583.702	0.29
584.149	0.29
584.596	0.29
585.042	0.29
585.489	0.29
585.936	0.29
586.382	0.28
586.829	0.28
587.275	0.28
587.722	0.28
588.168	0.28
588.615	0.28
589.061	0.28
589.508	0.28
589.954	0.28
590.4	0.28
590.847	0.28
591.293	0.27
591.739	0.27
592.185	0.27
592.632	0.27
593.078	0.27
593.524	0.27
593.97	0.27
594.416	0.27
594.862	0.27
595.308	0.27
595.754	0.27
596.2	0.26
596.646	0.26
597.092	0.26
597.538	0.26
597.984	0.26
598.43	0.26
598.876	0.26
599.321	0.26
599.767	0.26
600.213	0.26
600.659	0.26
601.104	0.25
601.55	0.25
601.995	0.25
602.441	0.25
602.887	0.25
603.332	0.25
603.778	0.25
604.223	0.25
604.668	0.25
605.114	0.25
605.559	0.24
606.005	0.24
606.45	0.24
606.895	0.24
607.341	0.24
607.786	0.24
608.231	0.24
608.676	0.24
609.121	0.24
609.566	0.24
610.012	0.23
610.457	0.23
610.902	0.23
611.347	0.23
611.792	0.23
612.237	0.23
612.682	0.23
613.127	0.23
613.571	0.23
614.016	0.23
614.461	0.23
614.906	0.23
615.351	0.23
615.795	0.23
616.24	0.22
616.685	0.22
617.129	0.22
617.574	0.22
618.019	0.22
618.463	0.22
618.908	0.22
619.352	0.22
619.797	0.22
620.241	0.22
620.686	0.22
621.13	0.21
621.574	0.21
622.019	0.21
622.463	0.21
622.907	0.21
623.352	0.21
623.796	0.21
624.24	0.21
624.684	0.21
625.128	0.21
625.572	0.21
626.016	0.21
626.461	0.21
626.905	0.21
627.349	0.21
627.793	0.21
628.236	0.21
628.68	0.2
629.124	0.2
629.568	0.2
630.012	0.2
630.456	0.2
630.9	0.2
631.343	0.2
631.787	0.2
632.231	0.2
632.674	0.2
633.118	0.2
633.562	0.2
634.005	0.2
634.449	0.2
634.892	0.2
635.336	0.2
635.779	0.2
636.223	0.2
636.666	0.2
637.109	0.2
637.553	0.2
637.996	0.2
638.439	0.2
638.883	0.2
639.326	0.2
639.769	0.2
640.212	0.2
640.655	0.2
641.099	0.2
641.542	0.2
641.985	0.2
642.428	0.21
642.871	0.21
643.314	0.21
643.757	0.21
644.2	0.21
644.643	0.21
645.085	0.21
645.528	0.21
645.971	0.21
646.414	0.21
646.857	0.21
647.299	0.21
647.742	0.21
648.185	0.22
648.627	0.22
649.07	0.22
649.513	0.22
649.955	0.22
650.398	0.22
650.84	0.22
651.283	0.22
651.725	0.23
652.168	0.23
652.61	0.23
653.052	0.23
653.495	0.23
653.937	0.18
654.379	0.14
654.821	0.14
655.264	0.15
655.706	0.15
656.148	0.15
656.59	0.15
657.032	0.15
657.474	0.15
657.916	0.15
658.358	0.15
658.8	0.19
659.242	0.25
659.684	0.25
660.126	0.25
660.568	0.25
661.01	0.25
661.452	0.26
661.894	0.26
662.335	0.26
662.777	0.26
663.219	0.26
663.661	0.26
664.102	0.27
664.544	0.27
664.985	0.27
665.427	0.27
665.869	0.27
666.31	0.27
666.752	0.28
667.193	0.28
667.634	0.28
668.076	0.28
668.517	0.28
668.959	0.28
669.4	0.29
669.841	0.29
670.282	0.29
670.724	0.29
671.165	0.29
671.606	0.29
672.047	0.29
672.488	0.3
672.929	0.3
673.37	0.3
673.811	0.3
674.252	0.3
674.693	0.3
675.134	0.3
675.575	0.3
676.016	0.31
676.457	0.31
676.898	0.31
677.339	0.31
677.78	0.31
678.22	0.31
678.661	0.31
679.102	0.31
679.542	0.32
679.983	0.32
680.424	0.32
680.864	0.32
681.305	0.32
681.745	0.32
682.186	0.32
682.626	0.32
683.067	0.33
683.507	0.33
683.948	0.33
684.388	0.33
684.828	0.33
685.269	0.33
685.709	0.33
686.149	0.33
686.589	0.33
687.029	0.33
687.47	0.33
687.91	0.33
688.35	0.33
688.79	0.33
689.23	0.33
689.67	0.33
690.11	0.33
690.55	0.34
690.99	0.34
691.43	0.34
691.87	0.34
692.31	0.34
692.749	0.34
693.189	0.34
693.629	0.34
694.069	0.34
694.508	0.34
694.948	0.34
695.388	0.34
695.827	0.34
696.267	0.34
696.706	0.34
697.146	0.34
697.586	0.34
698.025	0.34
698.464	0.34
698.904	0.34
699.343	0.34
699.783	0.34
700.222	0.34
700.661	0.34
701.101	0.34
701.54	0.34
701.979	0.34
702.418	0.34
702.857	0.34
703.297	0.34
703.736	0.33
704.175	0.33
704.614	0.33
705.053	0.33
705.492	0.33
705.931	0.33
706.37	0.33
706.809	0.33
707.248	0.33
707.687	0.33
708.125	0.33
708.564	0.33
709.003	0.33
709.442	0.33
709.88	0.33
710.319	0.33
710.758	0.33
711.196	0.33
711.635	0.33
712.074	0.33
712.512	0.33
712.951	0.33
713.389	0.33
713.828	0.33
714.266	0.33
714.705	0.33
715.143	0.33
715.581	0.33
716.02	0.32
716.458	0.32
716.896	0.32
717.334	0.32
717.773	0.32
718.211	0.32
718.649	0.32
719.087	0.32
719.525	0.32
719.963	0.32
720.401	0.32
720.839	0.32
721.277	0.32
721.715	0.32
722.153	0.32
722.591	0.32
723.029	0.32
723.467	0.32
723.905	0.32
724.342	0.32
724.78	0.32
725.218	0.32
725.656	0.32
726.093	0.32
726.531	0.32
726.969	0.31
727.406	0.31
727.844	0.31
728.281	0.31
728.719	0.31
729.156	0.31
729.594	0.31
730.031	0.31
730.469	0.31
730.906	0.31
731.343	0.31
731.781	0.31
732.218	0.31
732.655	0.31
733.092	0.31
733.53	0.3
733.967	0.3
734.404	0.3
734.841	0.3
735.278	0.3
735.715	0.3
736.152	0.3
736.589	0.3
737.026	0.3
737.463	0.3
737.9	0.3
738.337	0.3
738.774	0.3
739.211	0.3
739.647	0.3
740.084	0.29
740.521	0.29
740.958	0.29
741.394	0.29
741.831	0.29
742.268	0.29
742.704	0.29
743.141	0.29
743.577	0.29
744.014	0.29
744.45	0.28
744.887	0.28
745.323	0.28
745.76	0.28
746.196	0.28
746.632	0.28
747.069	0.28
747.505	0.28
747.941	0.28
748.378	0.28
748.814	0.27
749.25	0.27
749.686	0.27
750.122	0.27
750.558	0.27
750.994	0.27
751.43	0.27
751.866	0.27
752.302	0.27
752.738	0.27
753.174	0.27
753.61	0.27
754.046	0.27
754.482	0.27
754.918	0.27
755.354	0.27
755.789	0.26
756.225	0.26
756.661	0.26
757.096	0.26
757.532	0.26
757.968	0.26
758.403	0.26
758.839	0.26
759.274	0.26
759.71	0.26
760.145	0.26
760.581	0.26
761.016	0.26
761.452	0.26
761.887	0.26
762.322	0.26
762.758	0.26
763.193	0.26
763.628	0.26
764.063	0.26
764.499	0.26
764.934	0.26
765.369	0.26
765.804	0.26
766.239	0.26
766.674	0.26
767.109	0.26
767.544	0.25
767.979	0.25
768.414	0.25
768.849	0.25
769.284	0.25
769.719	0.25
770.154	0.25
770.588	0.25
771.023	0.25
771.458	0.25
771.893	0.25
772.327	0.25
772.762	0.24
773.197	0.24
773.631	0.24
774.066	0.24
774.5	0.24
774.935	0.24
775.369	0.23
775.804	0.23
776.238	0.23
776.673	0.23
777.107	0.23
777.541	0.23
777.976	0.23
778.41	0.23
778.844	0.23
779.279	0.23
779.713	0.23
780.147	0.23
780.581	0.23
781.015	0.23
781.449	0.22
781.883	0.22
782.317	0.22
782.751	0.22
783.185	0.22
783.619	0.22
784.053	0.22
784.487	0.22
784.921	0.22
785.355	0.22
785.789	0.22
786.223	0.22
786.656	0.21
787.09	0.21
787.524	0.21
787.957	0.21
788.391	0.21
788.825	0.21
789.258	0.21
789.692	0.21
790.125	0.21
790.559	0.21
790.992	0.21
791.426	0.21
791.859	0.21
792.293	0.21
792.726	0.21
793.159	0.21
793.593	0.21
794.026	0.21
794.459	0.21
794.892	0.21
795.326	0.21
795.759	0.21
796.192	0.2
796.625	0.2
797.058	0.2
797.491	0.2
797.924	0.2
798.357	0.2
798.79	0.2
799.223	0.2
799.656	0.2
800.089	0.2
800.522	0.19
800.955	0.19
801.387	0.19
801.82	0.19
802.253	0.19
802.686	0.19
803.118	0.19
803.551	0.19
803.984	0.19
804.416	0.18
804.849	0.18
805.281	0.18
805.714	0.18
806.146	0.18
806.579	0.19
807.011	0.19
807.444	0.19
807.876	0.19
808.308	0.18
808.741	0.18
809.173	0.18
809.605	0.18
810.037	0.18
810.47	0.18
810.902	0.18
811.334	0.18
811.766	0.17
812.198	0.17
812.63	0.17
813.062	0.17
813.494	0.17
813.926	0.17
814.358	0.17
814.79	0.17
815.222	0.17
815.654	0.17
816.086	0.17
816.518	0.17
816.949	0.17
817.381	0.17
817.813	0.17
818.245	0.17
818.676	0.17
819.108	0.17
819.54	0.17
819.971	0.17
820.403	0.17
820.834	0.17
821.266	0.17
821.697	0.17
822.129	0.17
822.56	0.16
822.991	0.16
823.423	0.16
823.854	0.16
824.286	0.16
824.717	0.16
825.148	0.16
825.579	0.16
826.01	0.16
826.442	0.16
826.873	0.16
827.304	0.16
827.735	0.16
828.166	0.16
828.597	0.16
829.028	0.16
829.459	0.16
829.89	0.16
830.321	0.16
830.752	0.16
831.183	0.16
831.613	0.16
832.044	0.15
832.475	0.15
832.906	0.15
833.336	0.15
833.767	0.15
834.198	0.15
834.628	0.15
835.059	0.15
835.49	0.15
835.92	0.15
836.351	0.15
836.781	0.15
837.212	0.15
837.642	0.15
838.072	0.15
838.503	0.15
838.933	0.15
839.364	0.15
839.794	0.15
840.224	0.15
840.654	0.15
841.085	0.15
841.515	0.15
841.945	0.15
842.375	0.15
842.805	0.14
843.235	0.14
843.665	0.14
844.095	0.14
844.525	0.14
844.955	0.14
845.385	0.14
845.815	0.14
846.245	0.14
846.675	0.14
847.105	0.14
847.534	0.14
847.964	0.14
848.394	0.14
848.824	0.14
849.253	0.14
849.683	0.14
850.112	0.14
850.542	0.14
850.972	0.14
851.401	0.14
851.831	0.14
852.26	0.14
852.69	0.14
853.119	0.14
853.548	0.14
853.978	0.14
854.407	0.14
854.836	0.14
855.266	0.14
855.695	0.14
856.124	0.14
856.553	0.14
856.983	0.14
857.412	0.14
857.841	0.14
858.27	0.14
858.699	0.14
859.128	0.14
859.557	0.14
859.986	0.14
860.415	0.14
860.844	0.13
861.273	0.13
861.702	0.13
862.13	0.13
862.559	0.13
862.988	0.13
863.417	0.13
863.845	0.13
864.274	0.13
864.703	0.13
865.131	0.13
865.56	0.13
865.989	0.13
866.417	0.13
866.846	0.13
867.274	0.13
867.703	0.13
868.131	0.13
868.559	0.13
868.988	0.13
869.416	0.13
869.844	0.13
870.273	0.13
870.701	0.12
871.129	0.12
871.557	0.12
871.986	0.12
872.414	0.12
872.842	0.12
873.27	0.12
873.698	0.12
874.126	0.11
874.554	0.11
874.982	0.11
875.41	0.11
875.838	0.11
876.266	0.11
876.694	0.11
877.122	0.11
877.549	0.11
877.977	0.11
878.405	0.11
878.833	0.11
879.26	0.11
879.688	0.11
880.116	0.11
880.543	0.11
880.971	0.11
881.399	0.11
881.826	0.11
882.254	0.11
882.681	0.11
883.109	0.11
883.536	0.11
883.963	0.11
884.391	0.11
884.818	0.11
885.245	0.11
885.673	0.11
886.1	0.11
886.527	0.11
886.954	0.11
887.381	0.11
887.809	0.11
888.236	0.11
888.663	0.11
889.09	0.11
889.517	0.11
889.944	0.11
890.371	0.11
890.798	0.11
891.225	0.11
891.652	0.11
892.078	0.11
892.505	0.1
892.932	0.1
893.359	0.1
893.786	0.1
894.212	0.1
894.639	0.1
895.066	0.1
895.492	0.1
895.919	0.1
896.346	0.1
896.772	0.1
897.199	0.1
897.625	0.1
898.052	0.1
898.478	0.09
898.904	0.09
899.331	0.09
899.757	0.09
900.183	0.09
900.61	0.09
901.036	0.09
901.462	0.09
901.888	0.09
902.315	0.09
902.741	0.09
903.167	0.09
903.593	0.09
904.019	0.09
904.445	0.09
904.871	0.09
905.297	0.09
905.723	0.09
906.149	0.09
906.575	0.09
907.001	0.09
907.427	0.09
907.852	0.09
908.278	0.09
908.704	0.09
909.13	0.09
909.555	0.09
909.981	0.09
910.407	0.09
910.832	0.09
911.258	0.09
911.684	0.09
912.109	0.09
912.535	0.09
912.96	0.09
913.386	0.09
913.811	0.09
914.236	0.09
914.662	0.09
915.087	0.09
915.512	0.09
915.938	0.09
916.363	0.09
916.788	0.09
917.213	0.09
917.639	0.09
918.064	0.09
918.489	0.09
918.914	0.09
919.339	0.09
919.764	0.09
920.189	0.09
920.614	0.09
921.039	0.09
921.464	0.09
921.889	0.09
922.314	0.09
922.738	0.09
923.163	0.09
923.588	0.1
924.013	0.1
924.437	0.1
924.862	0.1
925.287	0.1
925.711	0.1
926.136	0.09
926.561	0.09
926.985	0.09
927.41	0.09
927.834	0.09
928.259	0.09
928.683	0.09
929.108	0.09
929.532	0.09
929.956	0.09
930.381	0.09
930.805	0.09
931.229	0.09
931.653	0.09
932.078	0.09
932.502	0.09
932.926	0.08
933.35	0.08
933.774	0.08
934.198	0.08
934.622	0.08
935.046	0.08
935.47	0.08
935.894	0.08
936.318	0.08
936.742	0.08
937.166	0.08
937.59	0.08
938.014	0.08
938.437	0.08
938.861	0.08
939.285	0.08
939.709	0.08
940.132	0.08
940.556	0.08
940.98	0.08
941.403	0.08
941.827	0.07
942.25	0.07
942.674	0.07
943.097	0.07
943.521	0.07
943.944	0.07
944.368	0.07
944.791	0.07
945.214	0.07
945.638	0.07
946.061	0.07
946.484	0.07
946.907	0.07
947.331	0.07
947.754	0.07
948.177	0.07
948.6	0.07
949.023	0.07
949.446	0.07
949.869	0.07
950.292	0.07
950.715	0.07
951.138	0.07
951.561	0.07
951.984	0.07
952.407	0.07
952.83	0.07
953.252	0.07
953.675	0.07
954.098	0.07
954.521	0.07
954.943	0.07
955.366	0.07
955.789	0.07
956.211	0.07
956.634	0.07
957.056	0.07
957.479	0.07
957.902	0.07
958.324	0.07
958.746	0.07
959.169	0.07
959.591	0.07
960.014	0.07
960.436	0.07
960.858	0.07
961.281	0.07
961.703	0.07
962.125	0.07
962.547	0.07
962.969	0.07
963.391	0.07
963.814	0.07
964.236	0.07
964.658	0.07
965.08	0.07
965.502	0.07
965.924	0.07
966.346	0.06
966.768	0.06
967.189	0.06
967.611	0.06
968.033	0.06
968.455	0.06
968.877	0.06
969.298	0.06
969.72	0.06
970.142	0.07
970.563	0.07
970.985	0.07
971.407	0.07
971.828	0.07
972.25	0.07
972.671	0.07
973.093	0.07
973.514	0.07
973.936	0.07
974.357	0.07
974.778	0.07
975.2	0.07
975.621	0.07
976.042	0.07
976.464	0.07
976.885	0.07
977.306	0.07
977.727	0.07
978.148	0.07
978.57	0.07
978.991	0.07
979.412	0.07
979.833	0.07
980.254	0.07
980.675	0.07
981.096	0.07
981.517	0.07
981.937	0.07
982.358	0.07
982.779	0.07
983.2	0.07
983.621	0.07
984.042	0.07
984.462	0.07
984.883	0.07
985.304	0.07
985.724	0.07
986.145	0.07
986.565	0.07
986.986	0.07
987.407	0.06
987.827	0.06
988.248	0.06
988.668	0.06
989.088	0.06
989.509	0.06
989.929	0.06
990.35	0.06
990.77	0.06
991.19	0.06
991.61	0.07
992.031	0.07
992.451	0.07
992.871	0.07
993.291	0.07
993.711	0.07
994.131	0.07
994.551	0.07
994.971	0.07
995.391	0.07
995.811	0.06
996.231	0.06
996.651	0.06
997.071	0.06
997.491	0.06
997.911	0.06
998.331	0.06
998.75	0.06
999.17	0.06
999.59	0.06
1000.009	0.06
1000.429	0.06
1000.849	0.06
1001.268	0.06
1001.688	0.06
1002.107	0.06
1002.527	0.06
1002.946	0.06
1003.366	0.06
1003.785	0.06
1004.205	0.06
1004.624	0.06
1005.044	0.06
1005.463	0.06
1005.882	0.06
1006.301	0.06
1006.721	0.06
1007.14	0.06
1007.559	0.06
1007.978	0.06
1008.397	0.06
1008.816	0.06
1009.235	0.06
1009.655	0.06
1010.074	0.06
1010.492	0.06
1010.911	0.06
1011.33	0.06
1011.749	0.06
1012.168	0.06
1012.587	0.06
1013.006	0.06
1013.425	0.06
1013.843	0.06
1014.262	0.06
1014.681	0.06
1015.099	0.06
1015.518	0.06
1015.937	0.06
1016.355	0.06
1016.774	0.06
1017.192	0.06
1017.611	0.06
1018.029	0.06
1018.448	0.06
1018.866	0.05
1019.285	0.05
1019.703	0.06
1020.121	0.06
1020.54	0.06
1020.958	0.06
1021.376	0.06
1021.794	0.06
1022.213	0.06
1022.631	0.06
1023.049	0.06
1023.467	0.06
1023.885	0.06
1024.303	0.05
1024.721	0.05
1025.139	0.05
1025.557	0.05
1025.975	0.05
1026.393	0.05
1026.811	0.05
1027.229	0.05
1027.647	0.05
1028.065	0.05
1028.482	0.05
1028.9	0.05
1029.318	0.05
1029.735	0.05
1030.153	0.05
1030.571	0.05
1030.988	0.05
1031.406	0.06
1031.823	0.06
1032.241	0.06
1032.659	0.06
1033.076	0.06
1033.493	0.06
1033.911	0.06
1034.328	0.06
1034.746	0.06
1035.163	0.06
1035.58	0.06
1035.997	0.06
1036.415	0.06
1036.832	0.06
1037.249	0.05
1037.666	0.05
1038.083	0.05
1038.501	0.05
1038.918	0.05
1039.335	0.05
1039.752	0.05
1040.169	0.05
1040.586	0.05
1041.003	0.05
1041.419	0.05
1041.836	0.05
1042.253	0.05
1042.67	0.05
1043.087	0.05
1043.504	0.05
1043.92	0.05
1044.337	0.05
1044.754	0.05
1045.17	0.05
1045.587	0.05
1046.004	0.05
1046.42	0.05
1046.837	0.05
1047.253	0.05
1047.67	0.05
1048.086	0.05
1048.503	0.05
1048.919	0.05
1049.335	0.05
1049.752	0.05
1050.168	0.05
1050.584	0.05
1051.001	0.05
1051.417	0.05
1051.833	0.05
1052.249	0.05
1052.665	0.05
1053.081	0.05
1053.497	0.05
1053.914	0.05
1054.33	0.05
1054.746	0.05
1055.162	0.05
1055.578	0.05
1055.993	0.05
1056.409	0.04
1056.825	0.04
1057.241	0.04
1057.657	0.04
1058.073	0.04
1058.488	0.04
1058.904	0.04
1059.32	0.04
1059.736	0.04
1060.151	0.04
1060.567	0.04
1060.982	0.04
1061.398	0.04
1061.813	0.04
1062.229	0.04
1062.644	0.04
1063.06	0.04
1063.475	0.04
1063.891	0.04
1064.306	0.04
1064.721	0.03
1065.137	0.03
1065.552	0.03
1065.967	0.03
1066.382	0.03
1066.798	0.03
1067.213	0.03
1067.628	0.03
1068.043	0.03
1068.458	0.03
1068.873	0.03
1069.288	0.03
1069.703	0.03
1070.118	0.03
1070.533	0.03
1070.948	0.03
1071.363	0.03
1071.778	0.03
1072.193	0.03
1072.607	0.03
1073.022	0.03
1073.437	0.03
1073.852	0.03
1074.266	0.03
1074.681	0.03
1075.096	0.03
1075.51	0.03
1075.925	0.03
1076.339	0.03
1076.754	0.03
1077.168	0.03
1077.583	0.03
1077.997	0.03
1078.412	0.03
1078.826	0.03
1079.24	0.03
1079.655	0.03
1080.069	0.03
1080.483	0.03
1080.897	0.03
1081.312	0.03
1081.726	0.03
1082.14	0.03
1082.554	0.03
1082.968	0.03
1083.382	0.03
1083.796	0.03
1084.21	0.03
1084.624	0.03
1085.038	0.03
1085.452	0.03
1085.866	0.03
1086.28	0.03
1086.694	0.03
1087.108	0.03
1087.521	0.03
1087.935	0.03
1088.349	0.03
1088.763	0.02
1089.176	0.02
1089.59	0.02
1090.004	0.02
1090.417	0.02
1090.831	0.02
1091.244	0.02
1091.658	0.02
1092.071	0.02
1092.485	0.02
1092.898	0.02
1093.312	0.02
1093.725	0.02
1094.138	0.02
1094.552	0.01
1094.965	0.01
1095.378	0.01
1095.791	0.01
1096.205	0.01
1096.618	0.01
1097.031	0.01
1097.444	0
1097.857	0
1098.27	0
1098.683	0
1099.096	0
1099.509	0
1099.922	-0
1100.335	-0
1100.748	-0
1101.161	-0
1101.574	-0
1101.986	-0.01
1102.399	-0.01
1102.812	-0.01
1103.225	-0.01
1103.637	-0.01
1104.05	-0.01
1104.463	-0.01
1104.875	-0.01
1105.288	-0.01
1105.7	-0.01
1106.113	-0.02
1106.525	-0.02
1106.938	-0.02
1107.35	-0.02
1107.763	-0.02
1108.175	-0.02
1108.588	-0.03
1109	-0.03
1109.412	-0.03
1109.824	-0.03
1110.237	-0.03
1110.649	-0.03
1111.061	-0.03
