Data from 2024-02-06-100ns-20nr-25nacl-100h2o-7bp2-40to10hyt-dark-0_5cpm_Absorbance__5__00005.txt Node

Date: Tue Feb 06 10:14:27 CET 2024
User: Laser008
Spectrometer: MAYP115816
Trigger mode: 0
Integration Time (sec): 2.000000E-1
Scans to average: 10
Electric dark correction enabled: true
Nonlinearity correction enabled: true
Boxcar width: 5
XAxis mode: Wavelengths
Number of Pixels in Spectrum: 2068
>>>>>Begin Spectral Data<<<<<
198.914	-0.17
199.384	-0.14
199.855	-0.09
200.325	-0.05
200.796	-0.03
201.266	-0.01
201.737	-0
202.207	0
202.677	0
203.147	0.01
203.618	0.02
204.088	0.03
204.558	0.04
205.028	0.04
205.498	0.04
205.968	0.04
206.439	0.04
206.909	0.04
207.379	0.04
207.849	0.04
208.319	0.04
208.789	0.04
209.258	0.04
209.728	0.04
210.198	0.04
210.668	0.04
211.138	0.04
211.608	0.04
212.077	0.04
212.547	0.04
213.017	0.04
213.486	0.04
213.956	0.04
214.426	0.05
214.895	0.05
215.365	0.05
215.834	0.05
216.304	0.05
216.773	0.06
217.243	0.06
217.712	0.06
218.181	0.06
218.651	0.07
219.12	0.07
219.589	0.07
220.058	0.07
220.528	0.08
220.997	0.07
221.466	0.08
221.935	0.08
222.404	0.08
222.873	0.08
223.342	0.09
223.812	0.09
224.281	0.09
224.749	0.1
225.218	0.1
225.687	0.1
226.156	0.11
226.625	0.12
227.094	0.13
227.563	0.14
228.031	0.14
228.5	0.15
228.969	0.17
229.438	0.18
229.906	0.2
230.375	0.22
230.844	0.24
231.312	0.25
231.781	0.27
232.249	0.29
232.718	0.3
233.186	0.32
233.655	0.33
234.123	0.35
234.591	0.37
235.06	0.38
235.528	0.39
235.996	0.4
236.465	0.41
236.933	0.42
237.401	0.43
237.869	0.44
238.337	0.44
238.805	0.45
239.274	0.46
239.742	0.46
240.21	0.47
240.678	0.47
241.146	0.47
241.614	0.48
242.081	0.48
242.549	0.49
243.017	0.49
243.485	0.49
243.953	0.5
244.421	0.5
244.888	0.5
245.356	0.5
245.824	0.51
246.291	0.51
246.759	0.51
247.227	0.51
247.694	0.52
248.162	0.52
248.629	0.52
249.097	0.52
249.564	0.53
250.032	0.53
250.499	0.53
250.967	0.53
251.434	0.53
251.901	0.54
252.369	0.54
252.836	0.54
253.303	0.54
253.77	0.54
254.237	0.54
254.705	0.55
255.172	0.55
255.639	0.55
256.106	0.55
256.573	0.55
257.04	0.55
257.507	0.55
257.974	0.55
258.441	0.55
258.908	0.55
259.375	0.55
259.841	0.55
260.308	0.55
260.775	0.55
261.242	0.55
261.709	0.55
262.175	0.55
262.642	0.55
263.109	0.55
263.575	0.55
264.042	0.55
264.508	0.54
264.975	0.54
265.441	0.54
265.908	0.54
266.374	0.54
266.841	0.54
267.307	0.53
267.773	0.53
268.24	0.53
268.706	0.53
269.172	0.52
269.639	0.52
270.105	0.52
270.571	0.52
271.037	0.51
271.503	0.51
271.969	0.51
272.435	0.51
272.902	0.5
273.368	0.5
273.834	0.5
274.3	0.49
274.765	0.49
275.231	0.49
275.697	0.48
276.163	0.48
276.629	0.48
277.095	0.48
277.56	0.47
278.026	0.47
278.492	0.46
278.958	0.46
279.423	0.46
279.889	0.45
280.354	0.45
280.82	0.45
281.286	0.44
281.751	0.44
282.217	0.44
282.682	0.43
283.147	0.43
283.613	0.43
284.078	0.43
284.544	0.42
285.009	0.42
285.474	0.42
285.939	0.41
286.405	0.41
286.87	0.41
287.335	0.41
287.8	0.4
288.265	0.4
288.73	0.4
289.195	0.4
289.66	0.39
290.125	0.39
290.59	0.39
291.055	0.39
291.52	0.39
291.985	0.38
292.45	0.38
292.915	0.38
293.38	0.38
293.844	0.38
294.309	0.37
294.774	0.37
295.239	0.37
295.703	0.37
296.168	0.37
296.632	0.37
297.097	0.36
297.562	0.36
298.026	0.36
298.491	0.36
298.955	0.36
299.419	0.36
299.884	0.36
300.348	0.35
300.813	0.35
301.277	0.35
301.741	0.35
302.205	0.35
302.67	0.35
303.134	0.35
303.598	0.35
304.062	0.35
304.526	0.34
304.99	0.34
305.454	0.34
305.919	0.34
306.383	0.34
306.847	0.34
307.31	0.34
307.774	0.34
308.238	0.34
308.702	0.34
309.166	0.33
309.63	0.33
310.094	0.33
310.557	0.33
311.021	0.33
311.485	0.33
311.948	0.33
312.412	0.33
312.876	0.33
313.339	0.33
313.803	0.33
314.266	0.32
314.73	0.32
315.193	0.32
315.657	0.32
316.12	0.32
316.584	0.32
317.047	0.32
317.51	0.32
317.973	0.32
318.437	0.32
318.9	0.32
319.363	0.32
319.826	0.31
320.29	0.31
320.753	0.31
321.216	0.31
321.679	0.31
322.142	0.31
322.605	0.31
323.068	0.31
323.531	0.31
323.994	0.31
324.457	0.31
324.92	0.31
325.382	0.3
325.845	0.3
326.308	0.3
326.771	0.3
327.233	0.3
327.696	0.3
328.159	0.3
328.622	0.3
329.084	0.3
329.547	0.3
330.009	0.3
330.472	0.3
330.934	0.3
331.397	0.3
331.859	0.29
332.322	0.29
332.784	0.29
333.246	0.29
333.709	0.29
334.171	0.29
334.633	0.29
335.096	0.29
335.558	0.29
336.02	0.29
336.482	0.29
336.944	0.29
337.406	0.29
337.868	0.29
338.331	0.29
338.793	0.29
339.255	0.29
339.717	0.28
340.178	0.28
340.64	0.28
341.102	0.28
341.564	0.28
342.026	0.28
342.488	0.28
342.949	0.28
343.411	0.28
343.873	0.28
344.335	0.28
344.796	0.28
345.258	0.28
345.719	0.28
346.181	0.28
346.643	0.28
347.104	0.28
347.566	0.28
348.027	0.28
348.488	0.28
348.95	0.28
349.411	0.28
349.873	0.28
350.334	0.28
350.795	0.28
351.256	0.28
351.718	0.28
352.179	0.28
352.64	0.28
353.101	0.28
353.562	0.28
354.023	0.28
354.484	0.28
354.945	0.28
355.406	0.27
355.867	0.27
356.328	0.27
356.789	0.27
357.25	0.27
357.711	0.27
358.172	0.27
358.633	0.27
359.093	0.27
359.554	0.27
360.015	0.27
360.476	0.27
360.936	0.27
361.397	0.27
361.858	0.27
362.318	0.27
362.779	0.27
363.239	0.27
363.7	0.27
364.16	0.27
364.621	0.27
365.081	0.27
365.541	0.27
366.002	0.27
366.462	0.27
366.922	0.27
367.383	0.27
367.843	0.27
368.303	0.27
368.763	0.27
369.223	0.27
369.684	0.27
370.144	0.27
370.604	0.27
371.064	0.27
371.524	0.27
371.984	0.27
372.444	0.27
372.904	0.27
373.363	0.27
373.823	0.27
374.283	0.27
374.743	0.27
375.203	0.27
375.663	0.26
376.122	0.26
376.582	0.26
377.042	0.26
377.501	0.26
377.961	0.26
378.42	0.26
378.88	0.26
379.34	0.26
379.799	0.26
380.259	0.26
380.718	0.26
381.177	0.26
381.637	0.26
382.096	0.26
382.555	0.26
383.015	0.26
383.474	0.26
383.933	0.26
384.393	0.26
384.852	0.26
385.311	0.26
385.77	0.26
386.229	0.26
386.688	0.26
387.147	0.26
387.606	0.26
388.065	0.26
388.524	0.26
388.983	0.26
389.442	0.26
389.901	0.26
390.36	0.26
390.819	0.26
391.277	0.26
391.736	0.25
392.195	0.25
392.654	0.25
393.112	0.25
393.571	0.25
394.03	0.25
394.488	0.25
394.947	0.25
395.405	0.25
395.864	0.25
396.322	0.25
396.781	0.25
397.239	0.25
397.698	0.25
398.156	0.25
398.614	0.25
399.073	0.25
399.531	0.25
399.989	0.25
400.447	0.25
400.905	0.25
401.364	0.25
401.822	0.25
402.28	0.25
402.738	0.25
403.196	0.25
403.654	0.25
404.112	0.25
404.57	0.25
405.028	0.25
405.486	0.25
405.944	0.25
406.402	0.25
406.859	0.25
407.317	0.25
407.775	0.25
408.233	0.25
408.691	0.24
409.148	0.24
409.606	0.24
410.064	0.24
410.521	0.24
410.979	0.24
411.436	0.24
411.894	0.24
412.351	0.24
412.809	0.24
413.266	0.24
413.724	0.24
414.181	0.24
414.638	0.24
415.096	0.24
415.553	0.24
416.01	0.24
416.467	0.24
416.925	0.24
417.382	0.24
417.839	0.24
418.296	0.24
418.753	0.24
419.21	0.24
419.667	0.24
420.124	0.24
420.581	0.24
421.038	0.24
421.495	0.24
421.952	0.24
422.409	0.24
422.866	0.24
423.322	0.24
423.779	0.24
424.236	0.24
424.693	0.24
425.149	0.24
425.606	0.24
426.063	0.24
426.519	0.24
426.976	0.24
427.433	0.24
427.889	0.24
428.346	0.24
428.802	0.24
429.258	0.24
429.715	0.24
430.171	0.24
430.628	0.24
431.084	0.23
431.54	0.23
431.997	0.23
432.453	0.23
432.909	0.23
433.365	0.23
433.821	0.23
434.277	0.23
434.734	0.23
435.19	0.23
435.646	0.23
436.102	0.23
436.558	0.23
437.014	0.23
437.47	0.23
437.925	0.23
438.381	0.23
438.837	0.23
439.293	0.23
439.749	0.23
440.205	0.23
440.66	0.23
441.116	0.23
441.572	0.23
442.027	0.23
442.483	0.23
442.939	0.23
443.394	0.23
443.85	0.23
444.305	0.23
444.761	0.23
445.216	0.23
445.672	0.23
446.127	0.23
446.582	0.23
447.038	0.23
447.493	0.23
447.948	0.23
448.403	0.23
448.859	0.23
449.314	0.23
449.769	0.23
450.224	0.23
450.679	0.23
451.134	0.23
451.589	0.23
452.044	0.23
452.499	0.23
452.954	0.23
453.409	0.23
453.864	0.23
454.319	0.23
454.774	0.23
455.229	0.23
455.684	0.23
456.138	0.23
456.593	0.23
457.048	0.23
457.503	0.23
457.957	0.23
458.412	0.23
458.866	0.24
459.321	0.24
459.776	0.24
460.23	0.24
460.685	0.24
461.139	0.24
461.593	0.24
462.048	0.24
462.502	0.24
462.957	0.24
463.411	0.24
463.865	0.24
464.319	0.24
464.774	0.24
465.228	0.24
465.682	0.24
466.136	0.24
466.59	0.24
467.044	0.24
467.499	0.24
467.953	0.24
468.407	0.24
468.861	0.24
469.315	0.24
469.768	0.24
470.222	0.24
470.676	0.24
471.13	0.24
471.584	0.24
472.038	0.24
472.491	0.25
472.945	0.25
473.399	0.25
473.852	0.25
474.306	0.25
474.76	0.25
475.213	0.25
475.667	0.25
476.12	0.25
476.574	0.25
477.027	0.25
477.481	0.25
477.934	0.25
478.388	0.25
478.841	0.25
479.294	0.26
479.748	0.26
480.201	0.26
480.654	0.26
481.107	0.26
481.561	0.26
482.014	0.26
482.467	0.26
482.92	0.26
483.373	0.26
483.826	0.27
484.279	0.27
484.732	0.27
485.185	0.27
485.638	0.27
486.091	0.27
486.544	0.27
486.997	0.27
487.449	0.28
487.902	0.28
488.355	0.28
488.808	0.28
489.26	0.28
489.713	0.28
490.166	0.29
490.618	0.29
491.071	0.29
491.523	0.29
491.976	0.29
492.429	0.29
492.881	0.3
493.333	0.3
493.786	0.3
494.238	0.3
494.691	0.3
495.143	0.31
495.595	0.31
496.048	0.31
496.5	0.31
496.952	0.31
497.404	0.31
497.856	0.32
498.309	0.32
498.761	0.32
499.213	0.32
499.665	0.32
500.117	0.33
500.569	0.33
501.021	0.33
501.473	0.33
501.925	0.34
502.377	0.34
502.828	0.34
503.28	0.34
503.732	0.35
504.184	0.35
504.636	0.35
505.087	0.35
505.539	0.35
505.991	0.36
506.442	0.36
506.894	0.36
507.345	0.36
507.797	0.36
508.249	0.37
508.7	0.37
509.151	0.37
509.603	0.37
510.054	0.37
510.506	0.38
510.957	0.38
511.408	0.38
511.86	0.38
512.311	0.38
512.762	0.38
513.213	0.39
513.665	0.39
514.116	0.39
514.567	0.39
515.018	0.39
515.469	0.39
515.92	0.39
516.371	0.39
516.822	0.4
517.273	0.4
517.724	0.4
518.175	0.4
518.626	0.4
519.076	0.4
519.527	0.4
519.978	0.4
520.429	0.4
520.88	0.4
521.33	0.4
521.781	0.4
522.232	0.4
522.682	0.4
523.133	0.4
523.583	0.4
524.034	0.4
524.484	0.4
524.935	0.4
525.385	0.4
525.836	0.4
526.286	0.4
526.736	0.4
527.187	0.4
527.637	0.4
528.087	0.4
528.538	0.4
528.988	0.4
529.438	0.4
529.888	0.4
530.338	0.4
530.788	0.39
531.238	0.39
531.688	0.39
532.139	0.39
532.589	0.39
533.038	0.39
533.488	0.38
533.938	0.38
534.388	0.38
534.838	0.38
535.288	0.38
535.738	0.37
536.187	0.37
536.637	0.37
537.087	0.37
537.537	0.37
537.986	0.36
538.436	0.36
538.885	0.36
539.335	0.36
539.785	0.35
540.234	0.35
540.684	0.35
541.133	0.35
541.582	0.34
542.032	0.34
542.481	0.34
542.931	0.34
543.38	0.33
543.829	0.33
544.278	0.33
544.728	0.32
545.177	0.32
545.626	0.32
546.075	0.32
546.524	0.31
546.973	0.31
547.422	0.31
547.871	0.3
548.32	0.3
548.769	0.3
549.218	0.3
549.667	0.29
550.116	0.29
550.565	0.29
551.014	0.28
551.463	0.28
551.911	0.28
552.36	0.27
552.809	0.27
553.258	0.27
553.706	0.27
554.155	0.26
554.603	0.26
555.052	0.26
555.501	0.25
555.949	0.25
556.398	0.25
556.846	0.25
557.294	0.24
557.743	0.24
558.191	0.24
558.64	0.23
559.088	0.23
559.536	0.23
559.985	0.23
560.433	0.22
560.881	0.22
561.329	0.22
561.777	0.22
562.225	0.22
562.674	0.21
563.122	0.21
563.57	0.21
564.018	0.21
564.466	0.2
564.914	0.2
565.362	0.2
565.809	0.19
566.257	0.19
566.705	0.19
567.153	0.19
567.601	0.18
568.048	0.18
568.496	0.18
568.944	0.18
569.392	0.18
569.839	0.17
570.287	0.17
570.734	0.17
571.182	0.17
571.63	0.17
572.077	0.16
572.525	0.16
572.972	0.16
573.419	0.16
573.867	0.16
574.314	0.16
574.761	0.15
575.209	0.15
575.656	0.15
576.103	0.15
576.551	0.15
576.998	0.15
577.445	0.14
577.892	0.14
578.339	0.14
578.786	0.14
579.233	0.14
579.68	0.14
580.127	0.14
580.574	0.13
581.021	0.13
581.468	0.13
581.915	0.13
582.362	0.13
582.809	0.13
583.255	0.13
583.702	0.13
584.149	0.13
584.596	0.12
585.042	0.12
585.489	0.12
585.936	0.12
586.382	0.12
586.829	0.12
587.275	0.12
587.722	0.12
588.168	0.12
588.615	0.12
589.061	0.12
589.508	0.11
589.954	0.11
590.4	0.11
590.847	0.11
591.293	0.11
591.739	0.11
592.185	0.11
592.632	0.11
593.078	0.11
593.524	0.11
593.97	0.11
594.416	0.11
594.862	0.11
595.308	0.11
595.754	0.11
596.2	0.11
596.646	0.11
597.092	0.1
597.538	0.1
597.984	0.1
598.43	0.1
598.876	0.1
599.321	0.1
599.767	0.1
600.213	0.1
600.659	0.1
601.104	0.1
601.55	0.1
601.995	0.1
602.441	0.1
602.887	0.1
603.332	0.1
603.778	0.1
604.223	0.1
604.668	0.1
605.114	0.1
605.559	0.1
606.005	0.1
606.45	0.1
606.895	0.1
607.341	0.1
607.786	0.1
608.231	0.1
608.676	0.1
609.121	0.1
609.566	0.1
610.012	0.1
610.457	0.1
610.902	0.1
611.347	0.1
611.792	0.1
612.237	0.1
612.682	0.1
613.127	0.1
613.571	0.1
614.016	0.1
614.461	0.1
614.906	0.1
615.351	0.1
615.795	0.1
616.24	0.1
616.685	0.1
617.129	0.11
617.574	0.11
618.019	0.11
618.463	0.11
618.908	0.11
619.352	0.11
619.797	0.11
620.241	0.11
620.686	0.11
621.13	0.11
621.574	0.11
622.019	0.11
622.463	0.11
622.907	0.11
623.352	0.11
623.796	0.11
624.24	0.11
624.684	0.12
625.128	0.12
625.572	0.12
626.016	0.12
626.461	0.12
626.905	0.12
627.349	0.12
627.793	0.12
628.236	0.12
628.68	0.12
629.124	0.12
629.568	0.12
630.012	0.13
630.456	0.13
630.9	0.13
631.343	0.13
631.787	0.13
632.231	0.13
632.674	0.13
633.118	0.14
633.562	0.14
634.005	0.14
634.449	0.14
634.892	0.15
635.336	0.15
635.779	0.15
636.223	0.15
636.666	0.15
637.109	0.16
637.553	0.16
637.996	0.16
638.439	0.16
638.883	0.16
639.326	0.16
639.769	0.16
640.212	0.17
640.655	0.17
641.099	0.17
641.542	0.17
641.985	0.17
642.428	0.18
642.871	0.18
643.314	0.18
643.757	0.18
644.2	0.19
644.643	0.19
645.085	0.19
645.528	0.19
645.971	0.2
646.414	0.2
646.857	0.2
647.299	0.2
647.742	0.21
648.185	0.21
648.627	0.21
649.07	0.22
649.513	0.22
649.955	0.22
650.398	0.22
650.84	0.23
651.283	0.23
651.725	0.23
652.168	0.24
652.61	0.24
653.052	0.24
653.495	0.24
653.937	0.19
654.379	0.15
654.821	0.16
655.264	0.16
655.706	0.16
656.148	0.16
656.59	0.17
657.032	0.17
657.474	0.17
657.916	0.17
658.358	0.17
658.8	0.22
659.242	0.29
659.684	0.29
660.126	0.3
660.568	0.3
661.01	0.3
661.452	0.31
661.894	0.31
662.335	0.31
662.777	0.32
663.219	0.32
663.661	0.32
664.102	0.33
664.544	0.33
664.985	0.34
665.427	0.34
665.869	0.34
666.31	0.35
666.752	0.35
667.193	0.35
667.634	0.36
668.076	0.36
668.517	0.36
668.959	0.36
669.4	0.37
669.841	0.37
670.282	0.37
670.724	0.38
671.165	0.38
671.606	0.38
672.047	0.38
672.488	0.38
672.929	0.39
673.37	0.39
673.811	0.39
674.252	0.39
674.693	0.4
675.134	0.4
675.575	0.4
676.016	0.4
676.457	0.41
676.898	0.41
677.339	0.41
677.78	0.41
678.22	0.41
678.661	0.41
679.102	0.42
679.542	0.42
679.983	0.42
680.424	0.42
680.864	0.42
681.305	0.42
681.745	0.42
682.186	0.42
682.626	0.43
683.067	0.43
683.507	0.43
683.948	0.43
684.388	0.43
684.828	0.43
685.269	0.43
685.709	0.43
686.149	0.43
686.589	0.43
687.029	0.43
687.47	0.43
687.91	0.43
688.35	0.43
688.79	0.43
689.23	0.43
689.67	0.43
690.11	0.42
690.55	0.42
690.99	0.42
691.43	0.42
691.87	0.42
692.31	0.42
692.749	0.42
693.189	0.42
693.629	0.42
694.069	0.41
694.508	0.41
694.948	0.41
695.388	0.41
695.827	0.41
696.267	0.4
696.706	0.4
697.146	0.4
697.586	0.4
698.025	0.4
698.464	0.39
698.904	0.39
699.343	0.39
699.783	0.39
700.222	0.39
700.661	0.38
701.101	0.38
701.54	0.38
701.979	0.38
702.418	0.37
702.857	0.37
703.297	0.37
703.736	0.37
704.175	0.36
704.614	0.36
705.053	0.36
705.492	0.35
705.931	0.35
706.37	0.35
706.809	0.35
707.248	0.34
707.687	0.34
708.125	0.34
708.564	0.34
709.003	0.33
709.442	0.33
709.88	0.33
710.319	0.33
710.758	0.32
711.196	0.32
711.635	0.32
712.074	0.31
712.512	0.31
712.951	0.31
713.389	0.31
713.828	0.3
714.266	0.3
714.705	0.3
715.143	0.3
715.581	0.29
716.02	0.29
716.458	0.29
716.896	0.29
717.334	0.28
717.773	0.28
718.211	0.28
718.649	0.28
719.087	0.27
719.525	0.27
719.963	0.27
720.401	0.26
720.839	0.26
721.277	0.26
721.715	0.26
722.153	0.25
722.591	0.25
723.029	0.25
723.467	0.24
723.905	0.24
724.342	0.24
724.78	0.24
725.218	0.23
725.656	0.23
726.093	0.23
726.531	0.23
726.969	0.22
727.406	0.22
727.844	0.22
728.281	0.22
728.719	0.21
729.156	0.21
729.594	0.21
730.031	0.21
730.469	0.21
730.906	0.2
731.343	0.2
731.781	0.2
732.218	0.2
732.655	0.2
733.092	0.19
733.53	0.19
733.967	0.19
734.404	0.19
734.841	0.19
735.278	0.18
735.715	0.18
736.152	0.18
736.589	0.18
737.026	0.17
737.463	0.17
737.9	0.17
738.337	0.17
738.774	0.17
739.211	0.16
739.647	0.16
740.084	0.16
740.521	0.16
740.958	0.16
741.394	0.16
741.831	0.15
742.268	0.15
742.704	0.15
743.141	0.15
743.577	0.15
744.014	0.14
744.45	0.14
744.887	0.14
745.323	0.14
745.76	0.13
746.196	0.13
746.632	0.13
747.069	0.13
747.505	0.13
747.941	0.13
748.378	0.13
748.814	0.12
749.25	0.12
749.686	0.12
750.122	0.12
750.558	0.12
750.994	0.12
751.43	0.12
751.866	0.12
752.302	0.12
752.738	0.11
753.174	0.11
753.61	0.11
754.046	0.11
754.482	0.11
754.918	0.11
755.354	0.1
755.789	0.1
756.225	0.1
756.661	0.1
757.096	0.1
757.532	0.1
757.968	0.1
758.403	0.1
758.839	0.1
759.274	0.1
759.71	0.1
760.145	0.1
760.581	0.1
761.016	0.1
761.452	0.1
761.887	0.1
762.322	0.1
762.758	0.09
763.193	0.09
763.628	0.09
764.063	0.09
764.499	0.09
764.934	0.09
765.369	0.09
765.804	0.09
766.239	0.09
766.674	0.09
767.109	0.09
767.544	0.09
767.979	0.09
768.414	0.09
768.849	0.08
769.284	0.08
769.719	0.08
770.154	0.08
770.588	0.08
771.023	0.08
771.458	0.08
771.893	0.08
772.327	0.08
772.762	0.08
773.197	0.07
773.631	0.07
774.066	0.07
774.5	0.07
774.935	0.07
775.369	0.07
775.804	0.07
776.238	0.07
776.673	0.07
777.107	0.07
777.541	0.07
777.976	0.07
778.41	0.07
778.844	0.07
779.279	0.06
779.713	0.06
780.147	0.06
780.581	0.06
781.015	0.06
781.449	0.06
781.883	0.06
782.317	0.06
782.751	0.06
783.185	0.06
783.619	0.05
784.053	0.05
784.487	0.05
784.921	0.05
785.355	0.05
785.789	0.05
786.223	0.05
786.656	0.05
787.09	0.05
787.524	0.05
787.957	0.05
788.391	0.05
788.825	0.05
789.258	0.05
789.692	0.05
790.125	0.05
790.559	0.05
790.992	0.05
791.426	0.05
791.859	0.05
792.293	0.05
792.726	0.05
793.159	0.05
793.593	0.05
794.026	0.05
794.459	0.05
794.892	0.05
795.326	0.05
795.759	0.05
796.192	0.05
796.625	0.05
797.058	0.05
797.491	0.04
797.924	0.04
798.357	0.04
798.79	0.04
799.223	0.04
799.656	0.04
800.089	0.04
800.522	0.04
800.955	0.04
801.387	0.04
801.82	0.04
802.253	0.04
802.686	0.04
803.118	0.03
803.551	0.03
803.984	0.03
804.416	0.03
804.849	0.03
805.281	0.03
805.714	0.03
806.146	0.03
806.579	0.04
807.011	0.04
807.444	0.04
807.876	0.04
808.308	0.04
808.741	0.04
809.173	0.04
809.605	0.04
810.037	0.04
810.47	0.04
810.902	0.03
811.334	0.03
811.766	0.03
812.198	0.03
812.63	0.03
813.062	0.03
813.494	0.03
813.926	0.03
814.358	0.03
814.79	0.03
815.222	0.03
815.654	0.03
816.086	0.03
816.518	0.03
816.949	0.03
817.381	0.03
817.813	0.03
818.245	0.03
818.676	0.03
819.108	0.03
819.54	0.03
819.971	0.03
820.403	0.03
820.834	0.03
821.266	0.03
821.697	0.03
822.129	0.03
822.56	0.03
822.991	0.03
823.423	0.03
823.854	0.03
824.286	0.03
824.717	0.03
825.148	0.03
825.579	0.03
826.01	0.03
826.442	0.03
826.873	0.03
827.304	0.03
827.735	0.03
828.166	0.03
828.597	0.03
829.028	0.03
829.459	0.03
829.89	0.03
830.321	0.03
830.752	0.03
831.183	0.03
831.613	0.03
832.044	0.03
832.475	0.03
832.906	0.03
833.336	0.03
833.767	0.03
834.198	0.03
834.628	0.03
835.059	0.03
835.49	0.03
835.92	0.03
836.351	0.03
836.781	0.03
837.212	0.03
837.642	0.03
838.072	0.03
838.503	0.03
838.933	0.03
839.364	0.03
839.794	0.03
840.224	0.03
840.654	0.03
841.085	0.03
841.515	0.03
841.945	0.03
842.375	0.03
842.805	0.02
843.235	0.02
843.665	0.02
844.095	0.02
844.525	0.02
844.955	0.02
845.385	0.02
845.815	0.02
846.245	0.02
846.675	0.02
847.105	0.02
847.534	0.02
847.964	0.02
848.394	0.02
848.824	0.02
849.253	0.02
849.683	0.02
850.112	0.02
850.542	0.02
850.972	0.02
851.401	0.02
851.831	0.02
852.26	0.02
852.69	0.02
853.119	0.03
853.548	0.03
853.978	0.03
854.407	0.03
854.836	0.03
855.266	0.03
855.695	0.03
856.124	0.03
856.553	0.03
856.983	0.03
857.412	0.03
857.841	0.03
858.27	0.02
858.699	0.02
859.128	0.02
859.557	0.02
859.986	0.02
860.415	0.02
860.844	0.02
861.273	0.02
861.702	0.02
862.13	0.02
862.559	0.02
862.988	0.02
863.417	0.02
863.845	0.02
864.274	0.02
864.703	0.02
865.131	0.02
865.56	0.02
865.989	0.02
866.417	0.02
866.846	0.02
867.274	0.02
867.703	0.02
868.131	0.02
868.559	0.02
868.988	0.02
869.416	0.02
869.844	0.02
870.273	0.02
870.701	0.02
871.129	0.02
871.557	0.02
871.986	0.02
872.414	0.02
872.842	0.02
873.27	0.02
873.698	0.02
874.126	0.02
874.554	0.02
874.982	0.01
875.41	0.01
875.838	0.01
876.266	0.01
876.694	0.01
877.122	0.01
877.549	0.01
877.977	0.01
878.405	0.02
878.833	0.02
879.26	0.02
879.688	0.02
880.116	0.02
880.543	0.02
880.971	0.02
881.399	0.02
881.826	0.02
882.254	0.02
882.681	0.02
883.109	0.02
883.536	0.02
883.963	0.02
884.391	0.02
884.818	0.02
885.245	0.02
885.673	0.02
886.1	0.02
886.527	0.02
886.954	0.02
887.381	0.02
887.809	0.02
888.236	0.02
888.663	0.02
889.09	0.02
889.517	0.02
889.944	0.02
890.371	0.02
890.798	0.02
891.225	0.02
891.652	0.02
892.078	0.02
892.505	0.02
892.932	0.02
893.359	0.02
893.786	0.02
894.212	0.02
894.639	0.02
895.066	0.02
895.492	0.02
895.919	0.02
896.346	0.02
896.772	0.02
897.199	0.02
897.625	0.01
898.052	0.01
898.478	0.01
898.904	0.01
899.331	0.01
899.757	0.01
900.183	0.01
900.61	0.01
901.036	0
901.462	0
901.888	0
902.315	0
902.741	0
903.167	0
903.593	0
904.019	0
904.445	0.01
904.871	0.01
905.297	0.01
905.723	0.01
906.149	0.01
906.575	0.01
907.001	0.01
907.427	0.01
907.852	0.01
908.278	0.01
908.704	0.01
909.13	0.01
909.555	0.01
909.981	0.01
910.407	0.01
910.832	0.01
911.258	0.01
911.684	0.01
912.109	0.01
912.535	0.01
912.96	0.01
913.386	0.01
913.811	0.01
914.236	0.01
914.662	0.01
915.087	0.01
915.512	0.01
915.938	0.01
916.363	0.01
916.788	0.01
917.213	0.01
917.639	0.01
918.064	0.01
918.489	0.01
918.914	0.01
919.339	0.01
919.764	0.01
920.189	0.01
920.614	0.01
921.039	0.01
921.464	0.01
921.889	0.02
922.314	0.02
922.738	0.02
923.163	0.02
923.588	0.02
924.013	0.02
924.437	0.02
924.862	0.02
925.287	0.02
925.711	0.02
926.136	0.02
926.561	0.02
926.985	0.02
927.41	0.02
927.834	0.02
928.259	0.02
928.683	0.02
929.108	0.02
929.532	0.02
929.956	0.02
930.381	0.02
930.805	0.02
931.229	0.02
931.653	0.02
932.078	0.01
932.502	0.01
932.926	0.01
933.35	0.01
933.774	0.01
934.198	0.01
934.622	0.01
935.046	0.01
935.47	0.01
935.894	0.01
936.318	0.01
936.742	0.01
937.166	0.01
937.59	0.01
938.014	0.01
938.437	0.01
938.861	0.01
939.285	0.01
939.709	0.01
940.132	0.01
940.556	0.01
940.98	0.01
941.403	0.01
941.827	0.01
942.25	0.01
942.674	0.01
943.097	0.01
943.521	0.01
943.944	0.01
944.368	0.01
944.791	0.01
945.214	0.01
945.638	0.01
946.061	0.01
946.484	0.01
946.907	0.01
947.331	0.01
947.754	0.01
948.177	0.01
948.6	0.01
949.023	0.01
949.446	0.01
949.869	0.01
950.292	0.01
950.715	0.01
951.138	0.01
951.561	0.01
951.984	0.01
952.407	0.01
952.83	0.01
953.252	0.01
953.675	0.01
954.098	0.01
954.521	0.01
954.943	0.01
955.366	0.01
955.789	0.01
956.211	0.01
956.634	0.01
957.056	0.01
957.479	0.01
957.902	0.01
958.324	0.01
958.746	0.01
959.169	0.01
959.591	0.01
960.014	0.01
960.436	0.01
960.858	0.01
961.281	0.01
961.703	0.01
962.125	0.01
962.547	0.01
962.969	0.02
963.391	0.02
963.814	0.02
964.236	0.02
964.658	0.02
965.08	0.02
965.502	0.02
965.924	0.02
966.346	0.02
966.768	0.02
967.189	0.02
967.611	0.02
968.033	0.02
968.455	0.02
968.877	0.02
969.298	0.02
969.72	0.02
970.142	0.02
970.563	0.02
970.985	0.02
971.407	0.02
971.828	0.02
972.25	0.02
972.671	0.02
973.093	0.02
973.514	0.02
973.936	0.02
974.357	0.02
974.778	0.02
975.2	0.02
975.621	0.02
976.042	0.02
976.464	0.02
976.885	0.02
977.306	0.02
977.727	0.02
978.148	0.02
978.57	0.02
978.991	0.02
979.412	0.02
979.833	0.02
980.254	0.02
980.675	0.02
981.096	0.02
981.517	0.02
981.937	0.02
982.358	0.02
982.779	0.02
983.2	0.02
983.621	0.02
984.042	0.02
984.462	0.02
984.883	0.02
985.304	0.02
985.724	0.02
986.145	0.02
986.565	0.02
986.986	0.02
987.407	0.02
987.827	0.01
988.248	0.01
988.668	0.01
989.088	0.01
989.509	0.01
989.929	0.02
990.35	0.02
990.77	0.02
991.19	0.02
991.61	0.02
992.031	0.02
992.451	0.02
992.871	0.02
993.291	0.02
993.711	0.02
994.131	0.02
994.551	0.02
994.971	0.02
995.391	0.02
995.811	0.02
996.231	0.02
996.651	0.02
997.071	0.01
997.491	0.01
997.911	0.01
998.331	0.01
998.75	0.01
999.17	0.01
999.59	0.01
1000.009	0.01
1000.429	0.01
1000.849	0.01
1001.268	0.01
1001.688	0.01
1002.107	0.01
1002.527	0.01
1002.946	0.01
1003.366	0.01
1003.785	0.01
1004.205	0.01
1004.624	0.01
1005.044	0.01
1005.463	0.01
1005.882	0.01
1006.301	0.01
1006.721	0.01
1007.14	0.01
1007.559	0.01
1007.978	0.01
1008.397	0.01
1008.816	0.01
1009.235	0.01
1009.655	0.01
1010.074	0.01
1010.492	0.01
1010.911	0.01
1011.33	0.01
1011.749	0.01
1012.168	0.01
1012.587	0.01
1013.006	0.01
1013.425	0.01
1013.843	0.01
1014.262	0.01
1014.681	0.01
1015.099	0.01
1015.518	0.01
1015.937	0.01
1016.355	0.01
1016.774	0.01
1017.192	0
1017.611	0
1018.029	0
1018.448	0
1018.866	0
1019.285	0
1019.703	0
1020.121	0
1020.54	0
1020.958	0
1021.376	0
1021.794	0
1022.213	0
1022.631	0
1023.049	0
1023.467	0
1023.885	0
1024.303	0
1024.721	0
1025.139	0
1025.557	0
1025.975	0
1026.393	0.01
1026.811	0.01
1027.229	0.01
1027.647	0.01
1028.065	0.01
1028.482	0.01
1028.9	0.01
1029.318	0.01
1029.735	0.01
1030.153	0.01
1030.571	0.01
1030.988	0.01
1031.406	0.01
1031.823	0.01
1032.241	0.01
1032.659	0.01
1033.076	0.01
1033.493	0.01
1033.911	0.01
1034.328	0.01
1034.746	0.01
1035.163	0.01
1035.58	0.01
1035.997	0.01
1036.415	0.01
1036.832	0.01
1037.249	0.01
1037.666	0.01
1038.083	0.01
1038.501	0.01
1038.918	0.01
1039.335	0.01
1039.752	0.01
1040.169	0.01
1040.586	0.01
1041.003	0.01
1041.419	0.01
1041.836	0.01
1042.253	0.01
1042.67	0.01
1043.087	0.01
1043.504	0.01
1043.92	0.01
1044.337	0.01
1044.754	0.01
1045.17	0.01
1045.587	0.01
1046.004	0.01
1046.42	0.01
1046.837	0.01
1047.253	0.01
1047.67	0.01
1048.086	0.01
1048.503	0.01
1048.919	0.01
1049.335	0.01
1049.752	0.01
1050.168	0.01
1050.584	0.01
1051.001	0.01
1051.417	0.01
1051.833	0.01
1052.249	0.01
1052.665	0.01
1053.081	0.01
1053.497	0.01
1053.914	0.01
1054.33	0.01
1054.746	0.01
1055.162	0
1055.578	0
1055.993	0
1056.409	0
1056.825	0
1057.241	0
1057.657	0
1058.073	0
1058.488	0
1058.904	0
1059.32	0
1059.736	0
1060.151	0
1060.567	0
1060.982	0
1061.398	0
1061.813	0
1062.229	0
1062.644	0
1063.06	0
1063.475	0
1063.891	0
1064.306	0
1064.721	0
1065.137	0
1065.552	0
1065.967	0
1066.382	0
1066.798	0
1067.213	0
1067.628	0
1068.043	0
1068.458	0
1068.873	0
1069.288	0
1069.703	0
1070.118	0
1070.533	0
1070.948	0
1071.363	0
1071.778	0
1072.193	0
1072.607	0
1073.022	0
1073.437	0
1073.852	0
1074.266	0
1074.681	0
1075.096	0
1075.51	-0
1075.925	-0
1076.339	-0
1076.754	-0
1077.168	-0
1077.583	-0
1077.997	-0
1078.412	-0
1078.826	-0
1079.24	-0
1079.655	-0
1080.069	-0
1080.483	-0
1080.897	-0
1081.312	-0
1081.726	-0
1082.14	-0
1082.554	-0
1082.968	-0
1083.382	-0
1083.796	-0
1084.21	-0
1084.624	-0
1085.038	-0
1085.452	-0
1085.866	-0
1086.28	-0
1086.694	-0
1087.108	-0
1087.521	-0
1087.935	-0
1088.349	-0
1088.763	-0
1089.176	-0.01
1089.59	-0.01
1090.004	-0.01
1090.417	-0.01
1090.831	-0.01
1091.244	-0.01
1091.658	-0.01
1092.071	-0.01
1092.485	-0.01
1092.898	-0.01
1093.312	-0.01
1093.725	-0.01
1094.138	-0.01
1094.552	-0.01
1094.965	-0.01
1095.378	-0.01
1095.791	-0.01
1096.205	-0.01
1096.618	-0.01
1097.031	-0.01
1097.444	-0.01
1097.857	-0.01
1098.27	-0.01
1098.683	-0.02
1099.096	-0.01
1099.509	-0.02
1099.922	-0.02
1100.335	-0.02
1100.748	-0.02
1101.161	-0.02
1101.574	-0.02
1101.986	-0.02
1102.399	-0.02
1102.812	-0.02
1103.225	-0.02
1103.637	-0.02
1104.05	-0.02
1104.463	-0.02
1104.875	-0.02
1105.288	-0.02
1105.7	-0.02
1106.113	-0.02
1106.525	-0.02
1106.938	-0.02
1107.35	-0.02
1107.763	-0.02
1108.175	-0.03
1108.588	-0.03
1109	-0.03
1109.412	-0.03
1109.824	-0.03
1110.237	-0.03
1110.649	-0.03
1111.061	-0.03
