Data from 2024-02-06-100ns-20nr-25nacl-100h2o-7bp2-40to10hyt-dark-0_5cpm_Absorbance__59__00059.txt Node

Date: Tue Feb 06 10:41:29 CET 2024
User: Laser008
Spectrometer: MAYP115816
Trigger mode: 0
Integration Time (sec): 2.000000E-1
Scans to average: 10
Electric dark correction enabled: true
Nonlinearity correction enabled: true
Boxcar width: 5
XAxis mode: Wavelengths
Number of Pixels in Spectrum: 2068
>>>>>Begin Spectral Data<<<<<
198.914	-0.27
199.384	-0.23
199.855	-0.18
200.325	-0.14
200.796	-0.12
201.266	-0.1
201.737	-0.09
202.207	-0.08
202.677	-0.08
203.147	-0.08
203.618	-0.07
204.088	-0.06
204.558	-0.05
205.028	-0.05
205.498	-0.05
205.968	-0.05
206.439	-0.05
206.909	-0.05
207.379	-0.05
207.849	-0.05
208.319	-0.05
208.789	-0.05
209.258	-0.05
209.728	-0.05
210.198	-0.05
210.668	-0.06
211.138	-0.06
211.608	-0.06
212.077	-0.06
212.547	-0.06
213.017	-0.06
213.486	-0.06
213.956	-0.06
214.426	-0.06
214.895	-0.05
215.365	-0.05
215.834	-0.05
216.304	-0.05
216.773	-0.05
217.243	-0.05
217.712	-0.05
218.181	-0.05
218.651	-0.04
219.12	-0.04
219.589	-0.04
220.058	-0.04
220.528	-0.04
220.997	-0.04
221.466	-0.04
221.935	-0.04
222.404	-0.04
222.873	-0.03
223.342	-0.03
223.812	-0.03
224.281	-0.03
224.749	-0.02
225.218	-0.02
225.687	-0.02
226.156	-0.01
226.625	-0
227.094	0
227.563	0.01
228.031	0.02
228.5	0.03
228.969	0.04
229.438	0.05
229.906	0.06
230.375	0.08
230.844	0.09
231.312	0.11
231.781	0.12
232.249	0.14
232.718	0.15
233.186	0.17
233.655	0.18
234.123	0.19
234.591	0.21
235.06	0.22
235.528	0.23
235.996	0.23
236.465	0.24
236.933	0.25
237.401	0.26
237.869	0.26
238.337	0.27
238.805	0.27
239.274	0.28
239.742	0.28
240.21	0.29
240.678	0.29
241.146	0.29
241.614	0.3
242.081	0.3
242.549	0.3
243.017	0.31
243.485	0.31
243.953	0.31
244.421	0.31
244.888	0.32
245.356	0.32
245.824	0.32
246.291	0.32
246.759	0.32
247.227	0.33
247.694	0.33
248.162	0.33
248.629	0.33
249.097	0.34
249.564	0.34
250.032	0.34
250.499	0.34
250.967	0.34
251.434	0.35
251.901	0.35
252.369	0.35
252.836	0.35
253.303	0.35
253.77	0.35
254.237	0.36
254.705	0.36
255.172	0.36
255.639	0.36
256.106	0.36
256.573	0.36
257.04	0.36
257.507	0.36
257.974	0.37
258.441	0.37
258.908	0.37
259.375	0.37
259.841	0.37
260.308	0.37
260.775	0.37
261.242	0.37
261.709	0.37
262.175	0.37
262.642	0.37
263.109	0.37
263.575	0.37
264.042	0.37
264.508	0.37
264.975	0.36
265.441	0.36
265.908	0.36
266.374	0.36
266.841	0.36
267.307	0.36
267.773	0.36
268.24	0.36
268.706	0.36
269.172	0.35
269.639	0.35
270.105	0.35
270.571	0.35
271.037	0.35
271.503	0.35
271.969	0.34
272.435	0.34
272.902	0.34
273.368	0.34
273.834	0.34
274.3	0.34
274.765	0.33
275.231	0.33
275.697	0.33
276.163	0.33
276.629	0.33
277.095	0.33
277.56	0.32
278.026	0.32
278.492	0.32
278.958	0.32
279.423	0.31
279.889	0.31
280.354	0.31
280.82	0.31
281.286	0.31
281.751	0.3
282.217	0.3
282.682	0.3
283.147	0.3
283.613	0.3
284.078	0.29
284.544	0.29
285.009	0.29
285.474	0.29
285.939	0.29
286.405	0.29
286.87	0.28
287.335	0.28
287.8	0.28
288.265	0.28
288.73	0.28
289.195	0.28
289.66	0.28
290.125	0.27
290.59	0.27
291.055	0.27
291.52	0.27
291.985	0.27
292.45	0.27
292.915	0.27
293.38	0.27
293.844	0.27
294.309	0.26
294.774	0.26
295.239	0.26
295.703	0.26
296.168	0.26
296.632	0.26
297.097	0.26
297.562	0.26
298.026	0.26
298.491	0.26
298.955	0.26
299.419	0.26
299.884	0.26
300.348	0.26
300.813	0.26
301.277	0.26
301.741	0.26
302.205	0.26
302.67	0.26
303.134	0.25
303.598	0.25
304.062	0.25
304.526	0.25
304.99	0.25
305.454	0.25
305.919	0.25
306.383	0.25
306.847	0.25
307.31	0.25
307.774	0.25
308.238	0.25
308.702	0.25
309.166	0.25
309.63	0.25
310.094	0.25
310.557	0.25
311.021	0.25
311.485	0.25
311.948	0.25
312.412	0.25
312.876	0.25
313.339	0.25
313.803	0.25
314.266	0.25
314.73	0.25
315.193	0.25
315.657	0.25
316.12	0.25
316.584	0.25
317.047	0.25
317.51	0.24
317.973	0.24
318.437	0.24
318.9	0.24
319.363	0.24
319.826	0.24
320.29	0.24
320.753	0.24
321.216	0.24
321.679	0.24
322.142	0.24
322.605	0.24
323.068	0.24
323.531	0.24
323.994	0.24
324.457	0.24
324.92	0.24
325.382	0.24
325.845	0.24
326.308	0.24
326.771	0.24
327.233	0.24
327.696	0.24
328.159	0.24
328.622	0.24
329.084	0.24
329.547	0.24
330.009	0.24
330.472	0.24
330.934	0.23
331.397	0.23
331.859	0.23
332.322	0.23
332.784	0.23
333.246	0.23
333.709	0.23
334.171	0.23
334.633	0.23
335.096	0.23
335.558	0.23
336.02	0.23
336.482	0.23
336.944	0.23
337.406	0.23
337.868	0.23
338.331	0.23
338.793	0.23
339.255	0.23
339.717	0.23
340.178	0.23
340.64	0.23
341.102	0.23
341.564	0.23
342.026	0.23
342.488	0.23
342.949	0.23
343.411	0.23
343.873	0.23
344.335	0.23
344.796	0.23
345.258	0.23
345.719	0.23
346.181	0.23
346.643	0.23
347.104	0.23
347.566	0.23
348.027	0.22
348.488	0.22
348.95	0.22
349.411	0.22
349.873	0.22
350.334	0.22
350.795	0.22
351.256	0.22
351.718	0.22
352.179	0.22
352.64	0.22
353.101	0.22
353.562	0.22
354.023	0.22
354.484	0.22
354.945	0.22
355.406	0.22
355.867	0.22
356.328	0.22
356.789	0.22
357.25	0.22
357.711	0.22
358.172	0.22
358.633	0.22
359.093	0.22
359.554	0.22
360.015	0.22
360.476	0.22
360.936	0.22
361.397	0.22
361.858	0.22
362.318	0.22
362.779	0.22
363.239	0.22
363.7	0.22
364.16	0.22
364.621	0.22
365.081	0.22
365.541	0.22
366.002	0.22
366.462	0.22
366.922	0.22
367.383	0.22
367.843	0.22
368.303	0.22
368.763	0.22
369.223	0.22
369.684	0.22
370.144	0.22
370.604	0.22
371.064	0.22
371.524	0.22
371.984	0.22
372.444	0.22
372.904	0.22
373.363	0.22
373.823	0.22
374.283	0.22
374.743	0.22
375.203	0.22
375.663	0.22
376.122	0.22
376.582	0.22
377.042	0.22
377.501	0.22
377.961	0.22
378.42	0.22
378.88	0.22
379.34	0.22
379.799	0.22
380.259	0.22
380.718	0.22
381.177	0.22
381.637	0.22
382.096	0.22
382.555	0.22
383.015	0.22
383.474	0.22
383.933	0.22
384.393	0.22
384.852	0.22
385.311	0.22
385.77	0.22
386.229	0.22
386.688	0.22
387.147	0.22
387.606	0.22
388.065	0.22
388.524	0.22
388.983	0.22
389.442	0.22
389.901	0.22
390.36	0.22
390.819	0.22
391.277	0.22
391.736	0.22
392.195	0.22
392.654	0.22
393.112	0.22
393.571	0.22
394.03	0.22
394.488	0.22
394.947	0.22
395.405	0.22
395.864	0.22
396.322	0.21
396.781	0.21
397.239	0.21
397.698	0.21
398.156	0.21
398.614	0.21
399.073	0.21
399.531	0.21
399.989	0.21
400.447	0.21
400.905	0.21
401.364	0.21
401.822	0.21
402.28	0.21
402.738	0.21
403.196	0.21
403.654	0.21
404.112	0.21
404.57	0.21
405.028	0.21
405.486	0.21
405.944	0.21
406.402	0.21
406.859	0.21
407.317	0.21
407.775	0.21
408.233	0.21
408.691	0.21
409.148	0.21
409.606	0.21
410.064	0.21
410.521	0.21
410.979	0.21
411.436	0.21
411.894	0.21
412.351	0.21
412.809	0.21
413.266	0.21
413.724	0.21
414.181	0.21
414.638	0.21
415.096	0.21
415.553	0.21
416.01	0.21
416.467	0.21
416.925	0.21
417.382	0.21
417.839	0.21
418.296	0.21
418.753	0.21
419.21	0.21
419.667	0.21
420.124	0.21
420.581	0.21
421.038	0.21
421.495	0.21
421.952	0.21
422.409	0.21
422.866	0.21
423.322	0.21
423.779	0.21
424.236	0.21
424.693	0.21
425.149	0.21
425.606	0.21
426.063	0.21
426.519	0.2
426.976	0.2
427.433	0.2
427.889	0.2
428.346	0.2
428.802	0.2
429.258	0.2
429.715	0.2
430.171	0.2
430.628	0.2
431.084	0.2
431.54	0.2
431.997	0.2
432.453	0.2
432.909	0.2
433.365	0.2
433.821	0.2
434.277	0.2
434.734	0.2
435.19	0.2
435.646	0.2
436.102	0.2
436.558	0.2
437.014	0.2
437.47	0.2
437.925	0.2
438.381	0.2
438.837	0.2
439.293	0.2
439.749	0.2
440.205	0.2
440.66	0.2
441.116	0.2
441.572	0.2
442.027	0.2
442.483	0.2
442.939	0.2
443.394	0.2
443.85	0.2
444.305	0.2
444.761	0.2
445.216	0.2
445.672	0.2
446.127	0.2
446.582	0.2
447.038	0.2
447.493	0.2
447.948	0.2
448.403	0.2
448.859	0.2
449.314	0.2
449.769	0.2
450.224	0.2
450.679	0.2
451.134	0.2
451.589	0.2
452.044	0.2
452.499	0.2
452.954	0.2
453.409	0.2
453.864	0.2
454.319	0.2
454.774	0.2
455.229	0.2
455.684	0.2
456.138	0.2
456.593	0.2
457.048	0.2
457.503	0.2
457.957	0.2
458.412	0.2
458.866	0.2
459.321	0.2
459.776	0.2
460.23	0.2
460.685	0.2
461.139	0.2
461.593	0.2
462.048	0.2
462.502	0.2
462.957	0.2
463.411	0.2
463.865	0.2
464.319	0.2
464.774	0.2
465.228	0.2
465.682	0.2
466.136	0.2
466.59	0.2
467.044	0.2
467.499	0.2
467.953	0.2
468.407	0.2
468.861	0.2
469.315	0.2
469.768	0.2
470.222	0.2
470.676	0.2
471.13	0.2
471.584	0.2
472.038	0.2
472.491	0.2
472.945	0.2
473.399	0.2
473.852	0.2
474.306	0.2
474.76	0.2
475.213	0.2
475.667	0.2
476.12	0.2
476.574	0.2
477.027	0.2
477.481	0.2
477.934	0.2
478.388	0.2
478.841	0.2
479.294	0.2
479.748	0.2
480.201	0.2
480.654	0.2
481.107	0.2
481.561	0.2
482.014	0.2
482.467	0.2
482.92	0.2
483.373	0.21
483.826	0.21
484.279	0.21
484.732	0.21
485.185	0.21
485.638	0.21
486.091	0.21
486.544	0.21
486.997	0.21
487.449	0.21
487.902	0.21
488.355	0.21
488.808	0.21
489.26	0.21
489.713	0.21
490.166	0.21
490.618	0.21
491.071	0.21
491.523	0.22
491.976	0.22
492.429	0.22
492.881	0.22
493.333	0.22
493.786	0.22
494.238	0.22
494.691	0.22
495.143	0.22
495.595	0.22
496.048	0.22
496.5	0.23
496.952	0.23
497.404	0.23
497.856	0.23
498.309	0.23
498.761	0.23
499.213	0.23
499.665	0.23
500.117	0.23
500.569	0.23
501.021	0.24
501.473	0.24
501.925	0.24
502.377	0.24
502.828	0.24
503.28	0.24
503.732	0.24
504.184	0.24
504.636	0.25
505.087	0.25
505.539	0.25
505.991	0.25
506.442	0.25
506.894	0.25
507.345	0.25
507.797	0.25
508.249	0.26
508.7	0.26
509.151	0.26
509.603	0.26
510.054	0.26
510.506	0.26
510.957	0.26
511.408	0.26
511.86	0.27
512.311	0.27
512.762	0.27
513.213	0.27
513.665	0.27
514.116	0.27
514.567	0.27
515.018	0.27
515.469	0.27
515.92	0.27
516.371	0.27
516.822	0.28
517.273	0.28
517.724	0.28
518.175	0.28
518.626	0.28
519.076	0.28
519.527	0.28
519.978	0.28
520.429	0.28
520.88	0.28
521.33	0.29
521.781	0.29
522.232	0.29
522.682	0.29
523.133	0.29
523.583	0.29
524.034	0.29
524.484	0.29
524.935	0.29
525.385	0.29
525.836	0.29
526.286	0.29
526.736	0.29
527.187	0.29
527.637	0.3
528.087	0.3
528.538	0.3
528.988	0.3
529.438	0.3
529.888	0.3
530.338	0.3
530.788	0.3
531.238	0.3
531.688	0.3
532.139	0.3
532.589	0.3
533.038	0.3
533.488	0.3
533.938	0.3
534.388	0.3
534.838	0.3
535.288	0.3
535.738	0.31
536.187	0.31
536.637	0.31
537.087	0.31
537.537	0.31
537.986	0.31
538.436	0.31
538.885	0.31
539.335	0.31
539.785	0.31
540.234	0.31
540.684	0.31
541.133	0.31
541.582	0.31
542.032	0.31
542.481	0.31
542.931	0.31
543.38	0.31
543.829	0.31
544.278	0.31
544.728	0.31
545.177	0.31
545.626	0.32
546.075	0.32
546.524	0.32
546.973	0.32
547.422	0.32
547.871	0.32
548.32	0.32
548.769	0.32
549.218	0.32
549.667	0.32
550.116	0.32
550.565	0.32
551.014	0.32
551.463	0.32
551.911	0.32
552.36	0.32
552.809	0.32
553.258	0.32
553.706	0.32
554.155	0.32
554.603	0.32
555.052	0.32
555.501	0.32
555.949	0.32
556.398	0.32
556.846	0.32
557.294	0.32
557.743	0.32
558.191	0.32
558.64	0.32
559.088	0.32
559.536	0.32
559.985	0.32
560.433	0.32
560.881	0.32
561.329	0.32
561.777	0.32
562.225	0.32
562.674	0.32
563.122	0.32
563.57	0.32
564.018	0.32
564.466	0.32
564.914	0.32
565.362	0.32
565.809	0.32
566.257	0.32
566.705	0.32
567.153	0.32
567.601	0.32
568.048	0.32
568.496	0.32
568.944	0.31
569.392	0.31
569.839	0.31
570.287	0.31
570.734	0.31
571.182	0.31
571.63	0.31
572.077	0.31
572.525	0.31
572.972	0.31
573.419	0.31
573.867	0.31
574.314	0.31
574.761	0.31
575.209	0.31
575.656	0.31
576.103	0.31
576.551	0.31
576.998	0.3
577.445	0.3
577.892	0.3
578.339	0.3
578.786	0.3
579.233	0.3
579.68	0.3
580.127	0.3
580.574	0.3
581.021	0.3
581.468	0.3
581.915	0.3
582.362	0.3
582.809	0.3
583.255	0.3
583.702	0.29
584.149	0.29
584.596	0.29
585.042	0.29
585.489	0.29
585.936	0.29
586.382	0.29
586.829	0.29
587.275	0.29
587.722	0.28
588.168	0.28
588.615	0.28
589.061	0.28
589.508	0.28
589.954	0.28
590.4	0.28
590.847	0.28
591.293	0.28
591.739	0.28
592.185	0.28
592.632	0.27
593.078	0.27
593.524	0.27
593.97	0.27
594.416	0.27
594.862	0.27
595.308	0.27
595.754	0.27
596.2	0.27
596.646	0.27
597.092	0.26
597.538	0.26
597.984	0.26
598.43	0.26
598.876	0.26
599.321	0.26
599.767	0.26
600.213	0.26
600.659	0.26
601.104	0.25
601.55	0.25
601.995	0.25
602.441	0.25
602.887	0.25
603.332	0.25
603.778	0.25
604.223	0.25
604.668	0.25
605.114	0.24
605.559	0.24
606.005	0.24
606.45	0.24
606.895	0.24
607.341	0.24
607.786	0.24
608.231	0.24
608.676	0.24
609.121	0.24
609.566	0.24
610.012	0.23
610.457	0.23
610.902	0.23
611.347	0.23
611.792	0.23
612.237	0.23
612.682	0.23
613.127	0.23
613.571	0.23
614.016	0.23
614.461	0.23
614.906	0.23
615.351	0.23
615.795	0.23
616.24	0.22
616.685	0.22
617.129	0.22
617.574	0.22
618.019	0.22
618.463	0.22
618.908	0.22
619.352	0.22
619.797	0.22
620.241	0.22
620.686	0.22
621.13	0.22
621.574	0.22
622.019	0.22
622.463	0.22
622.907	0.22
623.352	0.22
623.796	0.21
624.24	0.21
624.684	0.21
625.128	0.21
625.572	0.21
626.016	0.21
626.461	0.21
626.905	0.21
627.349	0.21
627.793	0.21
628.236	0.21
628.68	0.21
629.124	0.21
629.568	0.21
630.012	0.21
630.456	0.21
630.9	0.21
631.343	0.21
631.787	0.21
632.231	0.21
632.674	0.21
633.118	0.21
633.562	0.21
634.005	0.21
634.449	0.21
634.892	0.21
635.336	0.21
635.779	0.21
636.223	0.21
636.666	0.21
637.109	0.22
637.553	0.22
637.996	0.22
638.439	0.22
638.883	0.22
639.326	0.22
639.769	0.22
640.212	0.22
640.655	0.22
641.099	0.22
641.542	0.22
641.985	0.22
642.428	0.22
642.871	0.22
643.314	0.22
643.757	0.22
644.2	0.22
644.643	0.23
645.085	0.23
645.528	0.23
645.971	0.23
646.414	0.23
646.857	0.23
647.299	0.23
647.742	0.23
648.185	0.23
648.627	0.24
649.07	0.24
649.513	0.24
649.955	0.24
650.398	0.24
650.84	0.24
651.283	0.24
651.725	0.25
652.168	0.25
652.61	0.25
653.052	0.25
653.495	0.25
653.937	0.19
654.379	0.15
654.821	0.16
655.264	0.16
655.706	0.16
656.148	0.16
656.59	0.16
657.032	0.16
657.474	0.17
657.916	0.16
658.358	0.16
658.8	0.21
659.242	0.27
659.684	0.28
660.126	0.28
660.568	0.28
661.01	0.28
661.452	0.29
661.894	0.29
662.335	0.29
662.777	0.29
663.219	0.29
663.661	0.3
664.102	0.3
664.544	0.3
664.985	0.3
665.427	0.3
665.869	0.31
666.31	0.31
666.752	0.31
667.193	0.31
667.634	0.31
668.076	0.32
668.517	0.32
668.959	0.32
669.4	0.32
669.841	0.32
670.282	0.32
670.724	0.33
671.165	0.33
671.606	0.33
672.047	0.33
672.488	0.33
672.929	0.33
673.37	0.34
673.811	0.34
674.252	0.34
674.693	0.34
675.134	0.34
675.575	0.35
676.016	0.35
676.457	0.35
676.898	0.35
677.339	0.35
677.78	0.35
678.22	0.35
678.661	0.35
679.102	0.36
679.542	0.36
679.983	0.36
680.424	0.36
680.864	0.36
681.305	0.36
681.745	0.36
682.186	0.37
682.626	0.37
683.067	0.37
683.507	0.37
683.948	0.37
684.388	0.37
684.828	0.37
685.269	0.37
685.709	0.37
686.149	0.37
686.589	0.37
687.029	0.37
687.47	0.37
687.91	0.37
688.35	0.37
688.79	0.37
689.23	0.37
689.67	0.37
690.11	0.38
690.55	0.38
690.99	0.38
691.43	0.38
691.87	0.38
692.31	0.38
692.749	0.38
693.189	0.38
693.629	0.38
694.069	0.38
694.508	0.38
694.948	0.38
695.388	0.38
695.827	0.38
696.267	0.38
696.706	0.37
697.146	0.37
697.586	0.37
698.025	0.37
698.464	0.37
698.904	0.37
699.343	0.37
699.783	0.37
700.222	0.37
700.661	0.37
701.101	0.37
701.54	0.37
701.979	0.37
702.418	0.37
702.857	0.37
703.297	0.37
703.736	0.37
704.175	0.37
704.614	0.37
705.053	0.36
705.492	0.36
705.931	0.36
706.37	0.36
706.809	0.36
707.248	0.36
707.687	0.36
708.125	0.36
708.564	0.36
709.003	0.36
709.442	0.36
709.88	0.36
710.319	0.35
710.758	0.35
711.196	0.35
711.635	0.35
712.074	0.35
712.512	0.35
712.951	0.35
713.389	0.35
713.828	0.35
714.266	0.35
714.705	0.35
715.143	0.35
715.581	0.35
716.02	0.34
716.458	0.34
716.896	0.34
717.334	0.34
717.773	0.34
718.211	0.34
718.649	0.34
719.087	0.34
719.525	0.34
719.963	0.34
720.401	0.33
720.839	0.33
721.277	0.33
721.715	0.33
722.153	0.33
722.591	0.33
723.029	0.33
723.467	0.33
723.905	0.33
724.342	0.32
724.78	0.32
725.218	0.32
725.656	0.32
726.093	0.32
726.531	0.32
726.969	0.32
727.406	0.32
727.844	0.31
728.281	0.31
728.719	0.31
729.156	0.31
729.594	0.31
730.031	0.31
730.469	0.31
730.906	0.31
731.343	0.31
731.781	0.31
732.218	0.31
732.655	0.3
733.092	0.3
733.53	0.3
733.967	0.3
734.404	0.3
734.841	0.3
735.278	0.3
735.715	0.3
736.152	0.29
736.589	0.29
737.026	0.29
737.463	0.29
737.9	0.29
738.337	0.29
738.774	0.29
739.211	0.29
739.647	0.29
740.084	0.29
740.521	0.29
740.958	0.28
741.394	0.28
741.831	0.28
742.268	0.28
742.704	0.28
743.141	0.28
743.577	0.28
744.014	0.28
744.45	0.27
744.887	0.27
745.323	0.27
745.76	0.27
746.196	0.27
746.632	0.27
747.069	0.27
747.505	0.27
747.941	0.26
748.378	0.26
748.814	0.26
749.25	0.26
749.686	0.26
750.122	0.26
750.558	0.26
750.994	0.26
751.43	0.26
751.866	0.26
752.302	0.26
752.738	0.26
753.174	0.25
753.61	0.25
754.046	0.25
754.482	0.25
754.918	0.25
755.354	0.25
755.789	0.25
756.225	0.25
756.661	0.25
757.096	0.25
757.532	0.25
757.968	0.25
758.403	0.25
758.839	0.25
759.274	0.25
759.71	0.25
760.145	0.25
760.581	0.25
761.016	0.24
761.452	0.24
761.887	0.24
762.322	0.24
762.758	0.24
763.193	0.24
763.628	0.24
764.063	0.24
764.499	0.24
764.934	0.24
765.369	0.24
765.804	0.24
766.239	0.24
766.674	0.24
767.109	0.23
767.544	0.23
767.979	0.23
768.414	0.23
768.849	0.23
769.284	0.23
769.719	0.23
770.154	0.23
770.588	0.23
771.023	0.23
771.458	0.22
771.893	0.22
772.327	0.22
772.762	0.22
773.197	0.22
773.631	0.22
774.066	0.22
774.5	0.22
774.935	0.21
775.369	0.21
775.804	0.21
776.238	0.21
776.673	0.21
777.107	0.21
777.541	0.21
777.976	0.21
778.41	0.21
778.844	0.21
779.279	0.21
779.713	0.21
780.147	0.21
780.581	0.21
781.015	0.2
781.449	0.2
781.883	0.2
782.317	0.2
782.751	0.2
783.185	0.2
783.619	0.2
784.053	0.2
784.487	0.2
784.921	0.19
785.355	0.19
785.789	0.19
786.223	0.19
786.656	0.19
787.09	0.19
787.524	0.19
787.957	0.19
788.391	0.19
788.825	0.19
789.258	0.19
789.692	0.19
790.125	0.19
790.559	0.19
790.992	0.19
791.426	0.18
791.859	0.18
792.293	0.18
792.726	0.18
793.159	0.18
793.593	0.18
794.026	0.18
794.459	0.18
794.892	0.18
795.326	0.18
795.759	0.18
796.192	0.18
796.625	0.18
797.058	0.18
797.491	0.18
797.924	0.17
798.357	0.17
798.79	0.17
799.223	0.17
799.656	0.17
800.089	0.17
800.522	0.17
800.955	0.17
801.387	0.17
801.82	0.17
802.253	0.16
802.686	0.16
803.118	0.16
803.551	0.16
803.984	0.16
804.416	0.16
804.849	0.16
805.281	0.16
805.714	0.16
806.146	0.16
806.579	0.16
807.011	0.16
807.444	0.16
807.876	0.16
808.308	0.16
808.741	0.16
809.173	0.16
809.605	0.16
810.037	0.16
810.47	0.15
810.902	0.15
811.334	0.15
811.766	0.15
812.198	0.15
812.63	0.15
813.062	0.14
813.494	0.14
813.926	0.14
814.358	0.14
814.79	0.14
815.222	0.14
815.654	0.14
816.086	0.14
816.518	0.14
816.949	0.14
817.381	0.14
817.813	0.14
818.245	0.14
818.676	0.14
819.108	0.14
819.54	0.14
819.971	0.14
820.403	0.14
820.834	0.14
821.266	0.14
821.697	0.14
822.129	0.14
822.56	0.14
822.991	0.14
823.423	0.14
823.854	0.14
824.286	0.14
824.717	0.14
825.148	0.14
825.579	0.14
826.01	0.14
826.442	0.14
826.873	0.14
827.304	0.14
827.735	0.14
828.166	0.14
828.597	0.14
829.028	0.14
829.459	0.14
829.89	0.14
830.321	0.14
830.752	0.14
831.183	0.13
831.613	0.13
832.044	0.13
832.475	0.13
832.906	0.13
833.336	0.13
833.767	0.13
834.198	0.13
834.628	0.13
835.059	0.13
835.49	0.13
835.92	0.13
836.351	0.13
836.781	0.13
837.212	0.13
837.642	0.13
838.072	0.13
838.503	0.13
838.933	0.13
839.364	0.13
839.794	0.13
840.224	0.13
840.654	0.13
841.085	0.13
841.515	0.12
841.945	0.12
842.375	0.12
842.805	0.12
843.235	0.12
843.665	0.12
844.095	0.12
844.525	0.12
844.955	0.12
845.385	0.12
845.815	0.12
846.245	0.12
846.675	0.12
847.105	0.12
847.534	0.12
847.964	0.11
848.394	0.11
848.824	0.11
849.253	0.11
849.683	0.11
850.112	0.12
850.542	0.12
850.972	0.12
851.401	0.12
851.831	0.12
852.26	0.12
852.69	0.12
853.119	0.12
853.548	0.12
853.978	0.12
854.407	0.12
854.836	0.12
855.266	0.12
855.695	0.12
856.124	0.12
856.553	0.12
856.983	0.12
857.412	0.12
857.841	0.12
858.27	0.12
858.699	0.11
859.128	0.11
859.557	0.11
859.986	0.11
860.415	0.11
860.844	0.11
861.273	0.11
861.702	0.11
862.13	0.11
862.559	0.11
862.988	0.11
863.417	0.11
863.845	0.11
864.274	0.11
864.703	0.11
865.131	0.11
865.56	0.11
865.989	0.11
866.417	0.11
866.846	0.11
867.274	0.11
867.703	0.11
868.131	0.11
868.559	0.11
868.988	0.11
869.416	0.11
869.844	0.11
870.273	0.11
870.701	0.11
871.129	0.11
871.557	0.11
871.986	0.1
872.414	0.1
872.842	0.1
873.27	0.1
873.698	0.1
874.126	0.1
874.554	0.1
874.982	0.1
875.41	0.1
875.838	0.1
876.266	0.1
876.694	0.1
877.122	0.1
877.549	0.1
877.977	0.1
878.405	0.1
878.833	0.09
879.26	0.09
879.688	0.09
880.116	0.09
880.543	0.09
880.971	0.09
881.399	0.09
881.826	0.09
882.254	0.09
882.681	0.09
883.109	0.09
883.536	0.09
883.963	0.09
884.391	0.09
884.818	0.09
885.245	0.09
885.673	0.09
886.1	0.09
886.527	0.09
886.954	0.09
887.381	0.09
887.809	0.09
888.236	0.09
888.663	0.09
889.09	0.09
889.517	0.09
889.944	0.09
890.371	0.09
890.798	0.09
891.225	0.09
891.652	0.09
892.078	0.09
892.505	0.09
892.932	0.09
893.359	0.09
893.786	0.09
894.212	0.09
894.639	0.09
895.066	0.09
895.492	0.09
895.919	0.09
896.346	0.09
896.772	0.09
897.199	0.09
897.625	0.08
898.052	0.08
898.478	0.08
898.904	0.08
899.331	0.08
899.757	0.08
900.183	0.08
900.61	0.08
901.036	0.08
901.462	0.08
901.888	0.07
902.315	0.07
902.741	0.07
903.167	0.07
903.593	0.07
904.019	0.07
904.445	0.07
904.871	0.07
905.297	0.07
905.723	0.07
906.149	0.07
906.575	0.07
907.001	0.08
907.427	0.08
907.852	0.08
908.278	0.08
908.704	0.08
909.13	0.08
909.555	0.08
909.981	0.08
910.407	0.08
910.832	0.08
911.258	0.08
911.684	0.08
912.109	0.08
912.535	0.07
912.96	0.07
913.386	0.07
913.811	0.07
914.236	0.07
914.662	0.07
915.087	0.07
915.512	0.07
915.938	0.07
916.363	0.07
916.788	0.07
917.213	0.08
917.639	0.08
918.064	0.08
918.489	0.08
918.914	0.08
919.339	0.08
919.764	0.08
920.189	0.08
920.614	0.08
921.039	0.08
921.464	0.08
921.889	0.08
922.314	0.08
922.738	0.08
923.163	0.08
923.588	0.08
924.013	0.08
924.437	0.08
924.862	0.08
925.287	0.08
925.711	0.08
926.136	0.08
926.561	0.08
926.985	0.08
927.41	0.08
927.834	0.08
928.259	0.08
928.683	0.08
929.108	0.08
929.532	0.08
929.956	0.08
930.381	0.08
930.805	0.08
931.229	0.08
931.653	0.08
932.078	0.07
932.502	0.07
932.926	0.07
933.35	0.07
933.774	0.07
934.198	0.07
934.622	0.07
935.046	0.07
935.47	0.07
935.894	0.07
936.318	0.07
936.742	0.07
937.166	0.07
937.59	0.07
938.014	0.07
938.437	0.06
938.861	0.06
939.285	0.06
939.709	0.06
940.132	0.06
940.556	0.06
940.98	0.06
941.403	0.06
941.827	0.06
942.25	0.06
942.674	0.06
943.097	0.06
943.521	0.06
943.944	0.06
944.368	0.06
944.791	0.06
945.214	0.06
945.638	0.06
946.061	0.06
946.484	0.06
946.907	0.06
947.331	0.06
947.754	0.06
948.177	0.06
948.6	0.06
949.023	0.06
949.446	0.06
949.869	0.06
950.292	0.06
950.715	0.06
951.138	0.06
951.561	0.06
951.984	0.06
952.407	0.06
952.83	0.06
953.252	0.06
953.675	0.06
954.098	0.06
954.521	0.06
954.943	0.06
955.366	0.06
955.789	0.06
956.211	0.06
956.634	0.06
957.056	0.06
957.479	0.06
957.902	0.06
958.324	0.06
958.746	0.06
959.169	0.06
959.591	0.06
960.014	0.06
960.436	0.06
960.858	0.06
961.281	0.06
961.703	0.06
962.125	0.06
962.547	0.06
962.969	0.06
963.391	0.06
963.814	0.06
964.236	0.06
964.658	0.06
965.08	0.06
965.502	0.06
965.924	0.06
966.346	0.06
966.768	0.06
967.189	0.06
967.611	0.06
968.033	0.06
968.455	0.06
968.877	0.06
969.298	0.06
969.72	0.06
970.142	0.06
970.563	0.06
970.985	0.06
971.407	0.06
971.828	0.06
972.25	0.06
972.671	0.06
973.093	0.06
973.514	0.06
973.936	0.06
974.357	0.06
974.778	0.06
975.2	0.06
975.621	0.06
976.042	0.06
976.464	0.06
976.885	0.06
977.306	0.06
977.727	0.06
978.148	0.06
978.57	0.06
978.991	0.06
979.412	0.06
979.833	0.06
980.254	0.06
980.675	0.06
981.096	0.06
981.517	0.06
981.937	0.06
982.358	0.06
982.779	0.06
983.2	0.06
983.621	0.06
984.042	0.06
984.462	0.06
984.883	0.06
985.304	0.06
985.724	0.06
986.145	0.06
986.565	0.06
986.986	0.06
987.407	0.06
987.827	0.06
988.248	0.06
988.668	0.06
989.088	0.06
989.509	0.06
989.929	0.06
990.35	0.06
990.77	0.06
991.19	0.06
991.61	0.06
992.031	0.06
992.451	0.06
992.871	0.06
993.291	0.06
993.711	0.06
994.131	0.06
994.551	0.06
994.971	0.06
995.391	0.06
995.811	0.06
996.231	0.06
996.651	0.06
997.071	0.06
997.491	0.06
997.911	0.06
998.331	0.06
998.75	0.06
999.17	0.06
999.59	0.06
1000.009	0.06
1000.429	0.06
1000.849	0.06
1001.268	0.06
1001.688	0.06
1002.107	0.06
1002.527	0.06
1002.946	0.06
1003.366	0.06
1003.785	0.06
1004.205	0.06
1004.624	0.06
1005.044	0.06
1005.463	0.05
1005.882	0.05
1006.301	0.05
1006.721	0.05
1007.14	0.05
1007.559	0.05
1007.978	0.05
1008.397	0.05
1008.816	0.05
1009.235	0.05
1009.655	0.05
1010.074	0.05
1010.492	0.05
1010.911	0.05
1011.33	0.05
1011.749	0.05
1012.168	0.05
1012.587	0.05
1013.006	0.05
1013.425	0.05
1013.843	0.05
1014.262	0.05
1014.681	0.05
1015.099	0.05
1015.518	0.05
1015.937	0.04
1016.355	0.04
1016.774	0.04
1017.192	0.04
1017.611	0.04
1018.029	0.04
1018.448	0.04
1018.866	0.04
1019.285	0.04
1019.703	0.04
1020.121	0.04
1020.54	0.04
1020.958	0.04
1021.376	0.04
1021.794	0.04
1022.213	0.04
1022.631	0.04
1023.049	0.04
1023.467	0.04
1023.885	0.04
1024.303	0.04
1024.721	0.04
1025.139	0.04
1025.557	0.04
1025.975	0.04
1026.393	0.04
1026.811	0.04
1027.229	0.04
1027.647	0.04
1028.065	0.04
1028.482	0.04
1028.9	0.05
1029.318	0.05
1029.735	0.05
1030.153	0.05
1030.571	0.05
1030.988	0.05
1031.406	0.05
1031.823	0.05
1032.241	0.05
1032.659	0.05
1033.076	0.05
1033.493	0.05
1033.911	0.05
1034.328	0.05
1034.746	0.05
1035.163	0.05
1035.58	0.05
1035.997	0.05
1036.415	0.05
1036.832	0.05
1037.249	0.05
1037.666	0.05
1038.083	0.05
1038.501	0.05
1038.918	0.05
1039.335	0.05
1039.752	0.04
1040.169	0.04
1040.586	0.04
1041.003	0.04
1041.419	0.04
1041.836	0.04
1042.253	0.04
1042.67	0.04
1043.087	0.04
1043.504	0.04
1043.92	0.04
1044.337	0.04
1044.754	0.04
1045.17	0.04
1045.587	0.04
1046.004	0.04
1046.42	0.04
1046.837	0.04
1047.253	0.04
1047.67	0.04
1048.086	0.04
1048.503	0.04
1048.919	0.04
1049.335	0.04
1049.752	0.04
1050.168	0.04
1050.584	0.04
1051.001	0.04
1051.417	0.04
1051.833	0.04
1052.249	0.04
1052.665	0.04
1053.081	0.04
1053.497	0.04
1053.914	0.04
1054.33	0.04
1054.746	0.04
1055.162	0.04
1055.578	0.04
1055.993	0.03
1056.409	0.03
1056.825	0.03
1057.241	0.03
1057.657	0.03
1058.073	0.03
1058.488	0.03
1058.904	0.03
1059.32	0.03
1059.736	0.03
1060.151	0.03
1060.567	0.03
1060.982	0.03
1061.398	0.03
1061.813	0.03
1062.229	0.03
1062.644	0.03
1063.06	0.03
1063.475	0.03
1063.891	0.03
1064.306	0.03
1064.721	0.03
1065.137	0.03
1065.552	0.03
1065.967	0.03
1066.382	0.03
1066.798	0.03
1067.213	0.03
1067.628	0.03
1068.043	0.03
1068.458	0.03
1068.873	0.03
1069.288	0.03
1069.703	0.03
1070.118	0.03
1070.533	0.03
1070.948	0.03
1071.363	0.03
1071.778	0.03
1072.193	0.03
1072.607	0.03
1073.022	0.03
1073.437	0.03
1073.852	0.03
1074.266	0.03
1074.681	0.03
1075.096	0.03
1075.51	0.03
1075.925	0.03
1076.339	0.03
1076.754	0.03
1077.168	0.03
1077.583	0.02
1077.997	0.02
1078.412	0.02
1078.826	0.02
1079.24	0.02
1079.655	0.02
1080.069	0.02
1080.483	0.02
1080.897	0.02
1081.312	0.02
1081.726	0.02
1082.14	0.02
1082.554	0.02
1082.968	0.02
1083.382	0.02
1083.796	0.02
1084.21	0.02
1084.624	0.02
1085.038	0.02
1085.452	0.02
1085.866	0.02
1086.28	0.02
1086.694	0.02
1087.108	0.02
1087.521	0.02
1087.935	0.02
1088.349	0.02
1088.763	0.02
1089.176	0.02
1089.59	0.02
1090.004	0.02
1090.417	0.02
1090.831	0.02
1091.244	0.01
1091.658	0.01
1092.071	0.01
1092.485	0.01
1092.898	0.01
1093.312	0.01
1093.725	0.01
1094.138	0.01
1094.552	0.01
1094.965	0.01
1095.378	0.01
1095.791	0.01
1096.205	0.01
1096.618	0.01
1097.031	0
1097.444	0
1097.857	0
1098.27	0
1098.683	0
1099.096	0
1099.509	-0
1099.922	-0
1100.335	-0
1100.748	-0
1101.161	-0.01
1101.574	-0.01
1101.986	-0.01
1102.399	-0.01
1102.812	-0.01
1103.225	-0.01
1103.637	-0.01
1104.05	-0.01
1104.463	-0.01
1104.875	-0.01
1105.288	-0.01
1105.7	-0.01
1106.113	-0.01
1106.525	-0.02
1106.938	-0.02
1107.35	-0.02
1107.763	-0.02
1108.175	-0.02
1108.588	-0.02
1109	-0.02
1109.412	-0.02
1109.824	-0.03
1110.237	-0.02
1110.649	-0.03
1111.061	-0.02
