Data from 2024-02-06-100ns-20nr-25nacl-100h2o-7bp2-40to10hyt-dark-0_5cpm_Absorbance__62__00062.txt Node

Date: Tue Feb 06 10:42:59 CET 2024
User: Laser008
Spectrometer: MAYP115816
Trigger mode: 0
Integration Time (sec): 2.000000E-1
Scans to average: 10
Electric dark correction enabled: true
Nonlinearity correction enabled: true
Boxcar width: 5
XAxis mode: Wavelengths
Number of Pixels in Spectrum: 2068
>>>>>Begin Spectral Data<<<<<
198.914	-0.28
199.384	-0.24
199.855	-0.18
200.325	-0.14
200.796	-0.12
201.266	-0.1
201.737	-0.09
202.207	-0.08
202.677	-0.08
203.147	-0.08
203.618	-0.07
204.088	-0.05
204.558	-0.05
205.028	-0.04
205.498	-0.04
205.968	-0.04
206.439	-0.05
206.909	-0.05
207.379	-0.05
207.849	-0.05
208.319	-0.05
208.789	-0.05
209.258	-0.05
209.728	-0.06
210.198	-0.06
210.668	-0.06
211.138	-0.06
211.608	-0.05
212.077	-0.06
212.547	-0.06
213.017	-0.06
213.486	-0.06
213.956	-0.06
214.426	-0.06
214.895	-0.05
215.365	-0.06
215.834	-0.06
216.304	-0.06
216.773	-0.06
217.243	-0.06
217.712	-0.05
218.181	-0.05
218.651	-0.05
219.12	-0.05
219.589	-0.05
220.058	-0.05
220.528	-0.05
220.997	-0.05
221.466	-0.04
221.935	-0.04
222.404	-0.04
222.873	-0.04
223.342	-0.04
223.812	-0.04
224.281	-0.03
224.749	-0.03
225.218	-0.03
225.687	-0.02
226.156	-0.02
226.625	-0.01
227.094	-0
227.563	0
228.031	0.01
228.5	0.02
228.969	0.03
229.438	0.05
229.906	0.06
230.375	0.07
230.844	0.09
231.312	0.1
231.781	0.11
232.249	0.13
232.718	0.14
233.186	0.16
233.655	0.17
234.123	0.18
234.591	0.19
235.06	0.2
235.528	0.21
235.996	0.22
236.465	0.23
236.933	0.24
237.401	0.24
237.869	0.25
238.337	0.25
238.805	0.26
239.274	0.26
239.742	0.27
240.21	0.27
240.678	0.27
241.146	0.28
241.614	0.28
242.081	0.28
242.549	0.28
243.017	0.29
243.485	0.29
243.953	0.29
244.421	0.29
244.888	0.3
245.356	0.3
245.824	0.3
246.291	0.3
246.759	0.3
247.227	0.31
247.694	0.31
248.162	0.31
248.629	0.31
249.097	0.32
249.564	0.32
250.032	0.32
250.499	0.32
250.967	0.32
251.434	0.33
251.901	0.33
252.369	0.33
252.836	0.33
253.303	0.33
253.77	0.33
254.237	0.34
254.705	0.34
255.172	0.34
255.639	0.34
256.106	0.34
256.573	0.34
257.04	0.34
257.507	0.34
257.974	0.35
258.441	0.35
258.908	0.35
259.375	0.35
259.841	0.35
260.308	0.35
260.775	0.35
261.242	0.35
261.709	0.35
262.175	0.35
262.642	0.35
263.109	0.35
263.575	0.35
264.042	0.35
264.508	0.35
264.975	0.35
265.441	0.34
265.908	0.34
266.374	0.34
266.841	0.34
267.307	0.34
267.773	0.34
268.24	0.34
268.706	0.34
269.172	0.34
269.639	0.33
270.105	0.33
270.571	0.33
271.037	0.33
271.503	0.33
271.969	0.33
272.435	0.32
272.902	0.32
273.368	0.32
273.834	0.32
274.3	0.32
274.765	0.32
275.231	0.31
275.697	0.31
276.163	0.31
276.629	0.31
277.095	0.31
277.56	0.31
278.026	0.3
278.492	0.3
278.958	0.3
279.423	0.3
279.889	0.3
280.354	0.29
280.82	0.29
281.286	0.29
281.751	0.29
282.217	0.29
282.682	0.28
283.147	0.28
283.613	0.28
284.078	0.28
284.544	0.28
285.009	0.28
285.474	0.27
285.939	0.27
286.405	0.27
286.87	0.27
287.335	0.27
287.8	0.27
288.265	0.26
288.73	0.26
289.195	0.26
289.66	0.26
290.125	0.26
290.59	0.26
291.055	0.26
291.52	0.26
291.985	0.26
292.45	0.25
292.915	0.25
293.38	0.25
293.844	0.25
294.309	0.25
294.774	0.25
295.239	0.25
295.703	0.25
296.168	0.25
296.632	0.25
297.097	0.25
297.562	0.25
298.026	0.25
298.491	0.24
298.955	0.24
299.419	0.24
299.884	0.24
300.348	0.24
300.813	0.24
301.277	0.24
301.741	0.24
302.205	0.24
302.67	0.24
303.134	0.24
303.598	0.24
304.062	0.24
304.526	0.24
304.99	0.24
305.454	0.24
305.919	0.24
306.383	0.24
306.847	0.24
307.31	0.24
307.774	0.24
308.238	0.24
308.702	0.24
309.166	0.24
309.63	0.24
310.094	0.24
310.557	0.24
311.021	0.24
311.485	0.24
311.948	0.24
312.412	0.24
312.876	0.24
313.339	0.24
313.803	0.23
314.266	0.23
314.73	0.23
315.193	0.23
315.657	0.23
316.12	0.23
316.584	0.23
317.047	0.23
317.51	0.23
317.973	0.23
318.437	0.23
318.9	0.23
319.363	0.23
319.826	0.23
320.29	0.23
320.753	0.23
321.216	0.23
321.679	0.23
322.142	0.23
322.605	0.23
323.068	0.23
323.531	0.23
323.994	0.23
324.457	0.23
324.92	0.23
325.382	0.23
325.845	0.23
326.308	0.23
326.771	0.23
327.233	0.23
327.696	0.23
328.159	0.23
328.622	0.23
329.084	0.23
329.547	0.23
330.009	0.23
330.472	0.23
330.934	0.22
331.397	0.22
331.859	0.22
332.322	0.22
332.784	0.22
333.246	0.22
333.709	0.22
334.171	0.22
334.633	0.22
335.096	0.22
335.558	0.22
336.02	0.22
336.482	0.22
336.944	0.22
337.406	0.22
337.868	0.22
338.331	0.22
338.793	0.22
339.255	0.22
339.717	0.22
340.178	0.22
340.64	0.22
341.102	0.22
341.564	0.22
342.026	0.22
342.488	0.22
342.949	0.22
343.411	0.22
343.873	0.22
344.335	0.22
344.796	0.22
345.258	0.22
345.719	0.22
346.181	0.22
346.643	0.22
347.104	0.22
347.566	0.22
348.027	0.22
348.488	0.22
348.95	0.22
349.411	0.21
349.873	0.21
350.334	0.21
350.795	0.21
351.256	0.21
351.718	0.21
352.179	0.21
352.64	0.21
353.101	0.21
353.562	0.21
354.023	0.21
354.484	0.21
354.945	0.21
355.406	0.21
355.867	0.21
356.328	0.21
356.789	0.21
357.25	0.21
357.711	0.21
358.172	0.21
358.633	0.21
359.093	0.21
359.554	0.21
360.015	0.21
360.476	0.21
360.936	0.21
361.397	0.21
361.858	0.21
362.318	0.21
362.779	0.21
363.239	0.21
363.7	0.21
364.16	0.21
364.621	0.21
365.081	0.21
365.541	0.21
366.002	0.21
366.462	0.21
366.922	0.21
367.383	0.21
367.843	0.21
368.303	0.21
368.763	0.21
369.223	0.21
369.684	0.21
370.144	0.21
370.604	0.21
371.064	0.21
371.524	0.21
371.984	0.21
372.444	0.21
372.904	0.21
373.363	0.21
373.823	0.21
374.283	0.21
374.743	0.21
375.203	0.21
375.663	0.21
376.122	0.21
376.582	0.21
377.042	0.21
377.501	0.21
377.961	0.21
378.42	0.21
378.88	0.21
379.34	0.21
379.799	0.21
380.259	0.21
380.718	0.21
381.177	0.21
381.637	0.21
382.096	0.21
382.555	0.21
383.015	0.21
383.474	0.21
383.933	0.21
384.393	0.21
384.852	0.21
385.311	0.21
385.77	0.21
386.229	0.21
386.688	0.21
387.147	0.21
387.606	0.21
388.065	0.21
388.524	0.21
388.983	0.21
389.442	0.21
389.901	0.21
390.36	0.21
390.819	0.21
391.277	0.21
391.736	0.21
392.195	0.21
392.654	0.21
393.112	0.21
393.571	0.21
394.03	0.21
394.488	0.21
394.947	0.21
395.405	0.21
395.864	0.21
396.322	0.21
396.781	0.21
397.239	0.21
397.698	0.21
398.156	0.21
398.614	0.21
399.073	0.21
399.531	0.21
399.989	0.21
400.447	0.21
400.905	0.21
401.364	0.21
401.822	0.21
402.28	0.21
402.738	0.21
403.196	0.21
403.654	0.21
404.112	0.21
404.57	0.21
405.028	0.21
405.486	0.21
405.944	0.21
406.402	0.21
406.859	0.2
407.317	0.2
407.775	0.2
408.233	0.2
408.691	0.2
409.148	0.2
409.606	0.2
410.064	0.2
410.521	0.2
410.979	0.2
411.436	0.2
411.894	0.2
412.351	0.2
412.809	0.2
413.266	0.2
413.724	0.2
414.181	0.2
414.638	0.2
415.096	0.2
415.553	0.2
416.01	0.2
416.467	0.2
416.925	0.2
417.382	0.2
417.839	0.2
418.296	0.2
418.753	0.2
419.21	0.2
419.667	0.2
420.124	0.2
420.581	0.2
421.038	0.2
421.495	0.2
421.952	0.2
422.409	0.2
422.866	0.2
423.322	0.2
423.779	0.2
424.236	0.2
424.693	0.2
425.149	0.2
425.606	0.2
426.063	0.2
426.519	0.2
426.976	0.2
427.433	0.2
427.889	0.2
428.346	0.2
428.802	0.2
429.258	0.2
429.715	0.2
430.171	0.2
430.628	0.2
431.084	0.2
431.54	0.2
431.997	0.2
432.453	0.2
432.909	0.2
433.365	0.2
433.821	0.2
434.277	0.2
434.734	0.2
435.19	0.2
435.646	0.2
436.102	0.2
436.558	0.2
437.014	0.2
437.47	0.2
437.925	0.2
438.381	0.2
438.837	0.2
439.293	0.2
439.749	0.2
440.205	0.2
440.66	0.19
441.116	0.19
441.572	0.19
442.027	0.19
442.483	0.19
442.939	0.19
443.394	0.19
443.85	0.19
444.305	0.19
444.761	0.19
445.216	0.19
445.672	0.19
446.127	0.19
446.582	0.19
447.038	0.19
447.493	0.19
447.948	0.19
448.403	0.19
448.859	0.19
449.314	0.19
449.769	0.19
450.224	0.19
450.679	0.19
451.134	0.19
451.589	0.19
452.044	0.19
452.499	0.19
452.954	0.19
453.409	0.19
453.864	0.19
454.319	0.19
454.774	0.19
455.229	0.19
455.684	0.19
456.138	0.19
456.593	0.19
457.048	0.19
457.503	0.19
457.957	0.19
458.412	0.19
458.866	0.19
459.321	0.19
459.776	0.19
460.23	0.19
460.685	0.19
461.139	0.19
461.593	0.19
462.048	0.19
462.502	0.19
462.957	0.19
463.411	0.19
463.865	0.19
464.319	0.19
464.774	0.19
465.228	0.19
465.682	0.19
466.136	0.19
466.59	0.19
467.044	0.19
467.499	0.19
467.953	0.19
468.407	0.19
468.861	0.19
469.315	0.19
469.768	0.19
470.222	0.19
470.676	0.19
471.13	0.19
471.584	0.19
472.038	0.19
472.491	0.19
472.945	0.19
473.399	0.19
473.852	0.19
474.306	0.19
474.76	0.19
475.213	0.19
475.667	0.19
476.12	0.19
476.574	0.19
477.027	0.19
477.481	0.19
477.934	0.19
478.388	0.19
478.841	0.19
479.294	0.19
479.748	0.19
480.201	0.19
480.654	0.2
481.107	0.2
481.561	0.2
482.014	0.2
482.467	0.2
482.92	0.2
483.373	0.2
483.826	0.2
484.279	0.2
484.732	0.2
485.185	0.2
485.638	0.2
486.091	0.2
486.544	0.2
486.997	0.2
487.449	0.2
487.902	0.2
488.355	0.2
488.808	0.2
489.26	0.2
489.713	0.2
490.166	0.2
490.618	0.2
491.071	0.21
491.523	0.21
491.976	0.21
492.429	0.21
492.881	0.21
493.333	0.21
493.786	0.21
494.238	0.21
494.691	0.21
495.143	0.21
495.595	0.21
496.048	0.21
496.5	0.21
496.952	0.22
497.404	0.22
497.856	0.22
498.309	0.22
498.761	0.22
499.213	0.22
499.665	0.22
500.117	0.22
500.569	0.22
501.021	0.22
501.473	0.23
501.925	0.23
502.377	0.23
502.828	0.23
503.28	0.23
503.732	0.23
504.184	0.23
504.636	0.23
505.087	0.23
505.539	0.24
505.991	0.24
506.442	0.24
506.894	0.24
507.345	0.24
507.797	0.24
508.249	0.24
508.7	0.24
509.151	0.24
509.603	0.24
510.054	0.25
510.506	0.25
510.957	0.25
511.408	0.25
511.86	0.25
512.311	0.25
512.762	0.25
513.213	0.25
513.665	0.25
514.116	0.25
514.567	0.25
515.018	0.26
515.469	0.26
515.92	0.26
516.371	0.26
516.822	0.26
517.273	0.26
517.724	0.26
518.175	0.26
518.626	0.26
519.076	0.26
519.527	0.27
519.978	0.27
520.429	0.27
520.88	0.27
521.33	0.27
521.781	0.27
522.232	0.27
522.682	0.27
523.133	0.27
523.583	0.27
524.034	0.27
524.484	0.27
524.935	0.28
525.385	0.28
525.836	0.28
526.286	0.28
526.736	0.28
527.187	0.28
527.637	0.28
528.087	0.28
528.538	0.28
528.988	0.28
529.438	0.28
529.888	0.28
530.338	0.28
530.788	0.28
531.238	0.28
531.688	0.29
532.139	0.29
532.589	0.29
533.038	0.29
533.488	0.29
533.938	0.29
534.388	0.29
534.838	0.29
535.288	0.29
535.738	0.29
536.187	0.29
536.637	0.29
537.087	0.29
537.537	0.29
537.986	0.29
538.436	0.29
538.885	0.29
539.335	0.29
539.785	0.3
540.234	0.3
540.684	0.3
541.133	0.3
541.582	0.3
542.032	0.3
542.481	0.3
542.931	0.3
543.38	0.3
543.829	0.3
544.278	0.3
544.728	0.3
545.177	0.3
545.626	0.3
546.075	0.3
546.524	0.3
546.973	0.3
547.422	0.3
547.871	0.3
548.32	0.3
548.769	0.3
549.218	0.3
549.667	0.3
550.116	0.3
550.565	0.3
551.014	0.3
551.463	0.31
551.911	0.31
552.36	0.31
552.809	0.31
553.258	0.31
553.706	0.31
554.155	0.31
554.603	0.31
555.052	0.31
555.501	0.31
555.949	0.31
556.398	0.31
556.846	0.31
557.294	0.31
557.743	0.31
558.191	0.31
558.64	0.31
559.088	0.31
559.536	0.31
559.985	0.31
560.433	0.31
560.881	0.31
561.329	0.31
561.777	0.31
562.225	0.31
562.674	0.31
563.122	0.31
563.57	0.31
564.018	0.31
564.466	0.31
564.914	0.31
565.362	0.31
565.809	0.31
566.257	0.31
566.705	0.31
567.153	0.31
567.601	0.31
568.048	0.31
568.496	0.31
568.944	0.31
569.392	0.31
569.839	0.31
570.287	0.31
570.734	0.31
571.182	0.31
571.63	0.31
572.077	0.31
572.525	0.31
572.972	0.3
573.419	0.3
573.867	0.3
574.314	0.3
574.761	0.3
575.209	0.3
575.656	0.3
576.103	0.3
576.551	0.3
576.998	0.3
577.445	0.3
577.892	0.3
578.339	0.3
578.786	0.3
579.233	0.3
579.68	0.3
580.127	0.3
580.574	0.3
581.021	0.3
581.468	0.3
581.915	0.3
582.362	0.3
582.809	0.29
583.255	0.29
583.702	0.29
584.149	0.29
584.596	0.29
585.042	0.29
585.489	0.29
585.936	0.29
586.382	0.29
586.829	0.29
587.275	0.29
587.722	0.28
588.168	0.28
588.615	0.28
589.061	0.28
589.508	0.28
589.954	0.28
590.4	0.28
590.847	0.28
591.293	0.28
591.739	0.28
592.185	0.28
592.632	0.27
593.078	0.27
593.524	0.27
593.97	0.27
594.416	0.27
594.862	0.27
595.308	0.27
595.754	0.27
596.2	0.27
596.646	0.27
597.092	0.26
597.538	0.26
597.984	0.26
598.43	0.26
598.876	0.26
599.321	0.26
599.767	0.26
600.213	0.26
600.659	0.26
601.104	0.26
601.55	0.26
601.995	0.25
602.441	0.25
602.887	0.25
603.332	0.25
603.778	0.25
604.223	0.25
604.668	0.25
605.114	0.25
605.559	0.25
606.005	0.24
606.45	0.24
606.895	0.24
607.341	0.24
607.786	0.24
608.231	0.24
608.676	0.24
609.121	0.24
609.566	0.24
610.012	0.24
610.457	0.23
610.902	0.23
611.347	0.23
611.792	0.23
612.237	0.23
612.682	0.23
613.127	0.23
613.571	0.23
614.016	0.23
614.461	0.23
614.906	0.23
615.351	0.23
615.795	0.23
616.24	0.23
616.685	0.22
617.129	0.22
617.574	0.22
618.019	0.22
618.463	0.22
618.908	0.22
619.352	0.22
619.797	0.22
620.241	0.22
620.686	0.22
621.13	0.22
621.574	0.22
622.019	0.21
622.463	0.21
622.907	0.21
623.352	0.21
623.796	0.21
624.24	0.21
624.684	0.21
625.128	0.21
625.572	0.21
626.016	0.21
626.461	0.21
626.905	0.21
627.349	0.21
627.793	0.21
628.236	0.21
628.68	0.21
629.124	0.21
629.568	0.21
630.012	0.2
630.456	0.2
630.9	0.2
631.343	0.2
631.787	0.2
632.231	0.2
632.674	0.2
633.118	0.2
633.562	0.2
634.005	0.2
634.449	0.21
634.892	0.21
635.336	0.21
635.779	0.21
636.223	0.21
636.666	0.21
637.109	0.21
637.553	0.21
637.996	0.21
638.439	0.21
638.883	0.21
639.326	0.21
639.769	0.21
640.212	0.21
640.655	0.21
641.099	0.21
641.542	0.21
641.985	0.21
642.428	0.21
642.871	0.21
643.314	0.21
643.757	0.21
644.2	0.21
644.643	0.21
645.085	0.21
645.528	0.22
645.971	0.22
646.414	0.22
646.857	0.22
647.299	0.22
647.742	0.22
648.185	0.22
648.627	0.22
649.07	0.22
649.513	0.23
649.955	0.23
650.398	0.23
650.84	0.23
651.283	0.23
651.725	0.23
652.168	0.23
652.61	0.23
653.052	0.24
653.495	0.23
653.937	0.18
654.379	0.14
654.821	0.15
655.264	0.15
655.706	0.15
656.148	0.15
656.59	0.15
657.032	0.15
657.474	0.16
657.916	0.15
658.358	0.15
658.8	0.19
659.242	0.26
659.684	0.26
660.126	0.26
660.568	0.26
661.01	0.26
661.452	0.26
661.894	0.27
662.335	0.27
662.777	0.27
663.219	0.27
663.661	0.27
664.102	0.28
664.544	0.28
664.985	0.28
665.427	0.28
665.869	0.28
666.31	0.28
666.752	0.29
667.193	0.29
667.634	0.29
668.076	0.29
668.517	0.29
668.959	0.29
669.4	0.3
669.841	0.3
670.282	0.3
670.724	0.3
671.165	0.3
671.606	0.3
672.047	0.31
672.488	0.31
672.929	0.31
673.37	0.31
673.811	0.31
674.252	0.31
674.693	0.31
675.134	0.32
675.575	0.32
676.016	0.32
676.457	0.32
676.898	0.32
677.339	0.32
677.78	0.32
678.22	0.33
678.661	0.33
679.102	0.33
679.542	0.33
679.983	0.33
680.424	0.33
680.864	0.33
681.305	0.33
681.745	0.33
682.186	0.34
682.626	0.34
683.067	0.34
683.507	0.34
683.948	0.34
684.388	0.34
684.828	0.34
685.269	0.34
685.709	0.35
686.149	0.35
686.589	0.35
687.029	0.35
687.47	0.35
687.91	0.35
688.35	0.35
688.79	0.35
689.23	0.35
689.67	0.35
690.11	0.35
690.55	0.35
690.99	0.35
691.43	0.35
691.87	0.35
692.31	0.35
692.749	0.35
693.189	0.35
693.629	0.35
694.069	0.35
694.508	0.35
694.948	0.35
695.388	0.35
695.827	0.35
696.267	0.35
696.706	0.35
697.146	0.35
697.586	0.35
698.025	0.35
698.464	0.35
698.904	0.35
699.343	0.35
699.783	0.35
700.222	0.35
700.661	0.35
701.101	0.35
701.54	0.35
701.979	0.35
702.418	0.35
702.857	0.35
703.297	0.35
703.736	0.34
704.175	0.34
704.614	0.34
705.053	0.34
705.492	0.34
705.931	0.34
706.37	0.34
706.809	0.34
707.248	0.34
707.687	0.34
708.125	0.34
708.564	0.34
709.003	0.34
709.442	0.34
709.88	0.34
710.319	0.34
710.758	0.34
711.196	0.34
711.635	0.34
712.074	0.34
712.512	0.34
712.951	0.33
713.389	0.33
713.828	0.33
714.266	0.33
714.705	0.33
715.143	0.33
715.581	0.33
716.02	0.33
716.458	0.33
716.896	0.33
717.334	0.33
717.773	0.33
718.211	0.33
718.649	0.33
719.087	0.33
719.525	0.33
719.963	0.32
720.401	0.32
720.839	0.32
721.277	0.32
721.715	0.32
722.153	0.32
722.591	0.32
723.029	0.32
723.467	0.32
723.905	0.32
724.342	0.32
724.78	0.32
725.218	0.32
725.656	0.32
726.093	0.32
726.531	0.32
726.969	0.32
727.406	0.31
727.844	0.31
728.281	0.31
728.719	0.31
729.156	0.31
729.594	0.31
730.031	0.31
730.469	0.31
730.906	0.31
731.343	0.31
731.781	0.31
732.218	0.31
732.655	0.31
733.092	0.31
733.53	0.3
733.967	0.3
734.404	0.3
734.841	0.3
735.278	0.3
735.715	0.3
736.152	0.3
736.589	0.3
737.026	0.3
737.463	0.3
737.9	0.3
738.337	0.3
738.774	0.3
739.211	0.3
739.647	0.29
740.084	0.29
740.521	0.29
740.958	0.29
741.394	0.29
741.831	0.29
742.268	0.29
742.704	0.29
743.141	0.29
743.577	0.29
744.014	0.28
744.45	0.28
744.887	0.28
745.323	0.28
745.76	0.28
746.196	0.28
746.632	0.27
747.069	0.27
747.505	0.27
747.941	0.27
748.378	0.27
748.814	0.27
749.25	0.27
749.686	0.27
750.122	0.27
750.558	0.27
750.994	0.27
751.43	0.27
751.866	0.27
752.302	0.27
752.738	0.27
753.174	0.27
753.61	0.26
754.046	0.26
754.482	0.26
754.918	0.26
755.354	0.26
755.789	0.26
756.225	0.26
756.661	0.26
757.096	0.26
757.532	0.26
757.968	0.26
758.403	0.26
758.839	0.26
759.274	0.26
759.71	0.26
760.145	0.26
760.581	0.26
761.016	0.26
761.452	0.26
761.887	0.26
762.322	0.26
762.758	0.25
763.193	0.25
763.628	0.25
764.063	0.25
764.499	0.25
764.934	0.25
765.369	0.25
765.804	0.25
766.239	0.25
766.674	0.25
767.109	0.25
767.544	0.25
767.979	0.25
768.414	0.25
768.849	0.25
769.284	0.25
769.719	0.24
770.154	0.24
770.588	0.24
771.023	0.24
771.458	0.24
771.893	0.24
772.327	0.24
772.762	0.24
773.197	0.24
773.631	0.23
774.066	0.23
774.5	0.23
774.935	0.23
775.369	0.23
775.804	0.23
776.238	0.23
776.673	0.23
777.107	0.22
777.541	0.22
777.976	0.22
778.41	0.22
778.844	0.22
779.279	0.22
779.713	0.22
780.147	0.22
780.581	0.22
781.015	0.22
781.449	0.22
781.883	0.22
782.317	0.22
782.751	0.21
783.185	0.21
783.619	0.21
784.053	0.21
784.487	0.21
784.921	0.21
785.355	0.21
785.789	0.21
786.223	0.21
786.656	0.21
787.09	0.21
787.524	0.21
787.957	0.21
788.391	0.21
788.825	0.2
789.258	0.2
789.692	0.2
790.125	0.2
790.559	0.2
790.992	0.2
791.426	0.2
791.859	0.2
792.293	0.2
792.726	0.2
793.159	0.2
793.593	0.2
794.026	0.2
794.459	0.2
794.892	0.2
795.326	0.2
795.759	0.2
796.192	0.2
796.625	0.19
797.058	0.19
797.491	0.19
797.924	0.19
798.357	0.19
798.79	0.19
799.223	0.19
799.656	0.19
800.089	0.19
800.522	0.19
800.955	0.19
801.387	0.18
801.82	0.18
802.253	0.18
802.686	0.18
803.118	0.18
803.551	0.18
803.984	0.18
804.416	0.18
804.849	0.18
805.281	0.18
805.714	0.18
806.146	0.18
806.579	0.18
807.011	0.18
807.444	0.18
807.876	0.18
808.308	0.18
808.741	0.18
809.173	0.18
809.605	0.17
810.037	0.17
810.47	0.17
810.902	0.17
811.334	0.17
811.766	0.17
812.198	0.16
812.63	0.16
813.062	0.16
813.494	0.16
813.926	0.16
814.358	0.16
814.79	0.16
815.222	0.16
815.654	0.16
816.086	0.16
816.518	0.16
816.949	0.16
817.381	0.16
817.813	0.16
818.245	0.16
818.676	0.16
819.108	0.16
819.54	0.16
819.971	0.16
820.403	0.16
820.834	0.16
821.266	0.16
821.697	0.16
822.129	0.16
822.56	0.16
822.991	0.16
823.423	0.15
823.854	0.15
824.286	0.15
824.717	0.15
825.148	0.15
825.579	0.15
826.01	0.15
826.442	0.15
826.873	0.15
827.304	0.15
827.735	0.15
828.166	0.15
828.597	0.15
829.028	0.15
829.459	0.15
829.89	0.15
830.321	0.15
830.752	0.15
831.183	0.15
831.613	0.15
832.044	0.15
832.475	0.15
832.906	0.15
833.336	0.15
833.767	0.14
834.198	0.14
834.628	0.14
835.059	0.14
835.49	0.14
835.92	0.14
836.351	0.14
836.781	0.14
837.212	0.14
837.642	0.14
838.072	0.14
838.503	0.14
838.933	0.14
839.364	0.14
839.794	0.14
840.224	0.14
840.654	0.14
841.085	0.14
841.515	0.14
841.945	0.14
842.375	0.14
842.805	0.14
843.235	0.14
843.665	0.14
844.095	0.14
844.525	0.14
844.955	0.14
845.385	0.14
845.815	0.14
846.245	0.14
846.675	0.13
847.105	0.13
847.534	0.13
847.964	0.13
848.394	0.13
848.824	0.13
849.253	0.13
849.683	0.13
850.112	0.13
850.542	0.13
850.972	0.13
851.401	0.13
851.831	0.13
852.26	0.13
852.69	0.13
853.119	0.13
853.548	0.13
853.978	0.13
854.407	0.13
854.836	0.13
855.266	0.13
855.695	0.13
856.124	0.13
856.553	0.13
856.983	0.13
857.412	0.13
857.841	0.13
858.27	0.13
858.699	0.13
859.128	0.13
859.557	0.13
859.986	0.13
860.415	0.13
860.844	0.13
861.273	0.13
861.702	0.13
862.13	0.12
862.559	0.12
862.988	0.12
863.417	0.12
863.845	0.12
864.274	0.12
864.703	0.12
865.131	0.12
865.56	0.12
865.989	0.12
866.417	0.12
866.846	0.12
867.274	0.12
867.703	0.12
868.131	0.12
868.559	0.12
868.988	0.12
869.416	0.12
869.844	0.12
870.273	0.12
870.701	0.12
871.129	0.12
871.557	0.12
871.986	0.11
872.414	0.11
872.842	0.11
873.27	0.11
873.698	0.11
874.126	0.11
874.554	0.11
874.982	0.11
875.41	0.11
875.838	0.11
876.266	0.11
876.694	0.11
877.122	0.11
877.549	0.11
877.977	0.11
878.405	0.11
878.833	0.11
879.26	0.11
879.688	0.11
880.116	0.11
880.543	0.11
880.971	0.11
881.399	0.11
881.826	0.11
882.254	0.11
882.681	0.11
883.109	0.11
883.536	0.11
883.963	0.11
884.391	0.11
884.818	0.1
885.245	0.1
885.673	0.1
886.1	0.1
886.527	0.1
886.954	0.1
887.381	0.1
887.809	0.1
888.236	0.1
888.663	0.1
889.09	0.1
889.517	0.1
889.944	0.1
890.371	0.1
890.798	0.1
891.225	0.1
891.652	0.1
892.078	0.1
892.505	0.1
892.932	0.1
893.359	0.1
893.786	0.1
894.212	0.1
894.639	0.1
895.066	0.1
895.492	0.1
895.919	0.1
896.346	0.09
896.772	0.09
897.199	0.09
897.625	0.09
898.052	0.09
898.478	0.09
898.904	0.09
899.331	0.09
899.757	0.09
900.183	0.09
900.61	0.08
901.036	0.08
901.462	0.08
901.888	0.08
902.315	0.08
902.741	0.08
903.167	0.08
903.593	0.08
904.019	0.08
904.445	0.08
904.871	0.08
905.297	0.08
905.723	0.09
906.149	0.09
906.575	0.09
907.001	0.09
907.427	0.09
907.852	0.09
908.278	0.09
908.704	0.09
909.13	0.09
909.555	0.09
909.981	0.09
910.407	0.09
910.832	0.09
911.258	0.09
911.684	0.09
912.109	0.08
912.535	0.08
912.96	0.08
913.386	0.08
913.811	0.08
914.236	0.08
914.662	0.08
915.087	0.08
915.512	0.08
915.938	0.08
916.363	0.08
916.788	0.08
917.213	0.08
917.639	0.08
918.064	0.08
918.489	0.08
918.914	0.08
919.339	0.08
919.764	0.08
920.189	0.08
920.614	0.08
921.039	0.09
921.464	0.09
921.889	0.09
922.314	0.09
922.738	0.09
923.163	0.09
923.588	0.09
924.013	0.09
924.437	0.09
924.862	0.09
925.287	0.09
925.711	0.09
926.136	0.09
926.561	0.09
926.985	0.09
927.41	0.09
927.834	0.09
928.259	0.09
928.683	0.09
929.108	0.09
929.532	0.09
929.956	0.08
930.381	0.08
930.805	0.08
931.229	0.08
931.653	0.08
932.078	0.08
932.502	0.08
932.926	0.08
933.35	0.08
933.774	0.08
934.198	0.08
934.622	0.08
935.046	0.08
935.47	0.08
935.894	0.08
936.318	0.08
936.742	0.08
937.166	0.08
937.59	0.07
938.014	0.07
938.437	0.07
938.861	0.07
939.285	0.07
939.709	0.07
940.132	0.07
940.556	0.07
940.98	0.07
941.403	0.07
941.827	0.07
942.25	0.07
942.674	0.07
943.097	0.07
943.521	0.07
943.944	0.07
944.368	0.07
944.791	0.07
945.214	0.07
945.638	0.07
946.061	0.07
946.484	0.07
946.907	0.07
947.331	0.07
947.754	0.07
948.177	0.07
948.6	0.07
949.023	0.07
949.446	0.07
949.869	0.07
950.292	0.06
950.715	0.06
951.138	0.06
951.561	0.06
951.984	0.06
952.407	0.06
952.83	0.06
953.252	0.06
953.675	0.06
954.098	0.06
954.521	0.06
954.943	0.06
955.366	0.07
955.789	0.07
956.211	0.07
956.634	0.07
957.056	0.07
957.479	0.07
957.902	0.07
958.324	0.07
958.746	0.07
959.169	0.07
959.591	0.07
960.014	0.07
960.436	0.07
960.858	0.07
961.281	0.06
961.703	0.06
962.125	0.06
962.547	0.06
962.969	0.06
963.391	0.06
963.814	0.06
964.236	0.06
964.658	0.06
965.08	0.06
965.502	0.06
965.924	0.06
966.346	0.06
966.768	0.06
967.189	0.06
967.611	0.06
968.033	0.06
968.455	0.06
968.877	0.06
969.298	0.06
969.72	0.06
970.142	0.06
970.563	0.06
970.985	0.06
971.407	0.06
971.828	0.06
972.25	0.06
972.671	0.07
973.093	0.07
973.514	0.07
973.936	0.07
974.357	0.07
974.778	0.07
975.2	0.07
975.621	0.07
976.042	0.07
976.464	0.07
976.885	0.07
977.306	0.07
977.727	0.07
978.148	0.07
978.57	0.07
978.991	0.07
979.412	0.07
979.833	0.07
980.254	0.07
980.675	0.07
981.096	0.07
981.517	0.07
981.937	0.07
982.358	0.07
982.779	0.07
983.2	0.07
983.621	0.07
984.042	0.07
984.462	0.06
984.883	0.06
985.304	0.06
985.724	0.06
986.145	0.06
986.565	0.06
986.986	0.06
987.407	0.06
987.827	0.06
988.248	0.06
988.668	0.06
989.088	0.06
989.509	0.06
989.929	0.06
990.35	0.06
990.77	0.06
991.19	0.06
991.61	0.06
992.031	0.06
992.451	0.06
992.871	0.06
993.291	0.06
993.711	0.06
994.131	0.06
994.551	0.06
994.971	0.06
995.391	0.06
995.811	0.06
996.231	0.06
996.651	0.06
997.071	0.06
997.491	0.06
997.911	0.06
998.331	0.06
998.75	0.06
999.17	0.06
999.59	0.06
1000.009	0.06
1000.429	0.06
1000.849	0.06
1001.268	0.06
1001.688	0.06
1002.107	0.06
1002.527	0.06
1002.946	0.06
1003.366	0.06
1003.785	0.06
1004.205	0.06
1004.624	0.06
1005.044	0.06
1005.463	0.06
1005.882	0.06
1006.301	0.06
1006.721	0.06
1007.14	0.06
1007.559	0.06
1007.978	0.06
1008.397	0.05
1008.816	0.05
1009.235	0.05
1009.655	0.05
1010.074	0.05
1010.492	0.05
1010.911	0.05
1011.33	0.05
1011.749	0.05
1012.168	0.05
1012.587	0.05
1013.006	0.05
1013.425	0.05
1013.843	0.05
1014.262	0.05
1014.681	0.05
1015.099	0.05
1015.518	0.05
1015.937	0.05
1016.355	0.05
1016.774	0.05
1017.192	0.05
1017.611	0.05
1018.029	0.05
1018.448	0.05
1018.866	0.05
1019.285	0.05
1019.703	0.05
1020.121	0.05
1020.54	0.05
1020.958	0.05
1021.376	0.05
1021.794	0.05
1022.213	0.05
1022.631	0.05
1023.049	0.05
1023.467	0.05
1023.885	0.05
1024.303	0.05
1024.721	0.05
1025.139	0.05
1025.557	0.05
1025.975	0.05
1026.393	0.05
1026.811	0.05
1027.229	0.05
1027.647	0.05
1028.065	0.05
1028.482	0.05
1028.9	0.05
1029.318	0.05
1029.735	0.05
1030.153	0.05
1030.571	0.05
1030.988	0.05
1031.406	0.05
1031.823	0.05
1032.241	0.05
1032.659	0.05
1033.076	0.05
1033.493	0.05
1033.911	0.05
1034.328	0.05
1034.746	0.05
1035.163	0.05
1035.58	0.05
1035.997	0.05
1036.415	0.05
1036.832	0.05
1037.249	0.05
1037.666	0.05
1038.083	0.05
1038.501	0.05
1038.918	0.05
1039.335	0.05
1039.752	0.05
1040.169	0.05
1040.586	0.05
1041.003	0.05
1041.419	0.05
1041.836	0.05
1042.253	0.05
1042.67	0.05
1043.087	0.05
1043.504	0.04
1043.92	0.04
1044.337	0.04
1044.754	0.04
1045.17	0.04
1045.587	0.04
1046.004	0.04
1046.42	0.04
1046.837	0.04
1047.253	0.04
1047.67	0.04
1048.086	0.04
1048.503	0.04
1048.919	0.04
1049.335	0.04
1049.752	0.04
1050.168	0.05
1050.584	0.05
1051.001	0.05
1051.417	0.05
1051.833	0.05
1052.249	0.05
1052.665	0.05
1053.081	0.05
1053.497	0.05
1053.914	0.05
1054.33	0.04
1054.746	0.04
1055.162	0.04
1055.578	0.04
1055.993	0.04
1056.409	0.04
1056.825	0.04
1057.241	0.04
1057.657	0.04
1058.073	0.04
1058.488	0.04
1058.904	0.04
1059.32	0.04
1059.736	0.04
1060.151	0.04
1060.567	0.03
1060.982	0.03
1061.398	0.03
1061.813	0.03
1062.229	0.03
1062.644	0.03
1063.06	0.03
1063.475	0.03
1063.891	0.03
1064.306	0.03
1064.721	0.03
1065.137	0.03
1065.552	0.03
1065.967	0.03
1066.382	0.03
1066.798	0.03
1067.213	0.03
1067.628	0.03
1068.043	0.03
1068.458	0.03
1068.873	0.03
1069.288	0.03
1069.703	0.03
1070.118	0.03
1070.533	0.03
1070.948	0.03
1071.363	0.03
1071.778	0.03
1072.193	0.03
1072.607	0.03
1073.022	0.03
1073.437	0.03
1073.852	0.03
1074.266	0.03
1074.681	0.03
1075.096	0.03
1075.51	0.03
1075.925	0.03
1076.339	0.03
1076.754	0.03
1077.168	0.03
1077.583	0.03
1077.997	0.03
1078.412	0.02
1078.826	0.02
1079.24	0.03
1079.655	0.03
1080.069	0.03
1080.483	0.03
1080.897	0.03
1081.312	0.03
1081.726	0.03
1082.14	0.03
1082.554	0.03
1082.968	0.03
1083.382	0.03
1083.796	0.03
1084.21	0.03
1084.624	0.03
1085.038	0.03
1085.452	0.03
1085.866	0.03
1086.28	0.03
1086.694	0.03
1087.108	0.03
1087.521	0.03
1087.935	0.03
1088.349	0.02
1088.763	0.02
1089.176	0.02
1089.59	0.02
1090.004	0.02
1090.417	0.02
1090.831	0.02
1091.244	0.02
1091.658	0.02
1092.071	0.02
1092.485	0.02
1092.898	0.01
1093.312	0.01
1093.725	0.01
1094.138	0.01
1094.552	0.01
1094.965	0.01
1095.378	0.01
1095.791	0.01
1096.205	0.01
1096.618	0.01
1097.031	0
1097.444	0
1097.857	0
1098.27	0
1098.683	-0
1099.096	-0
1099.509	-0
1099.922	-0
1100.335	-0.01
1100.748	-0.01
1101.161	-0.01
1101.574	-0.01
1101.986	-0.01
1102.399	-0.01
1102.812	-0.01
1103.225	-0.01
1103.637	-0.01
1104.05	-0.01
1104.463	-0.01
1104.875	-0.01
1105.288	-0.02
1105.7	-0.02
1106.113	-0.02
1106.525	-0.02
1106.938	-0.02
1107.35	-0.02
1107.763	-0.02
1108.175	-0.03
1108.588	-0.03
1109	-0.03
1109.412	-0.03
1109.824	-0.03
1110.237	-0.03
1110.649	-0.03
1111.061	-0.03
