Data from 2024-02-06-100ns-20nr-25nacl-100h2o-7bp2-40to10hyt-dark-0_5cpm_Absorbance__84__00084.txt Node

Date: Tue Feb 06 10:53:59 CET 2024
User: Laser008
Spectrometer: MAYP115816
Trigger mode: 0
Integration Time (sec): 2.000000E-1
Scans to average: 10
Electric dark correction enabled: true
Nonlinearity correction enabled: true
Boxcar width: 5
XAxis mode: Wavelengths
Number of Pixels in Spectrum: 2068
>>>>>Begin Spectral Data<<<<<
198.914	-0.27
199.384	-0.24
199.855	-0.18
200.325	-0.14
200.796	-0.12
201.266	-0.11
201.737	-0.09
202.207	-0.08
202.677	-0.08
203.147	-0.08
203.618	-0.07
204.088	-0.05
204.558	-0.04
205.028	-0.04
205.498	-0.04
205.968	-0.04
206.439	-0.04
206.909	-0.04
207.379	-0.04
207.849	-0.04
208.319	-0.04
208.789	-0.04
209.258	-0.04
209.728	-0.04
210.198	-0.04
210.668	-0.05
211.138	-0.05
211.608	-0.05
212.077	-0.05
212.547	-0.05
213.017	-0.05
213.486	-0.05
213.956	-0.05
214.426	-0.05
214.895	-0.05
215.365	-0.05
215.834	-0.05
216.304	-0.05
216.773	-0.05
217.243	-0.05
217.712	-0.05
218.181	-0.04
218.651	-0.04
219.12	-0.04
219.589	-0.04
220.058	-0.04
220.528	-0.04
220.997	-0.04
221.466	-0.03
221.935	-0.03
222.404	-0.03
222.873	-0.03
223.342	-0.03
223.812	-0.02
224.281	-0.02
224.749	-0.01
225.218	-0.01
225.687	-0.01
226.156	0
226.625	0.01
227.094	0.01
227.563	0.02
228.031	0.03
228.5	0.04
228.969	0.05
229.438	0.06
229.906	0.07
230.375	0.09
230.844	0.11
231.312	0.12
231.781	0.13
232.249	0.15
232.718	0.17
233.186	0.18
233.655	0.2
234.123	0.21
234.591	0.22
235.06	0.23
235.528	0.24
235.996	0.25
236.465	0.26
236.933	0.27
237.401	0.28
237.869	0.28
238.337	0.29
238.805	0.29
239.274	0.3
239.742	0.3
240.21	0.31
240.678	0.31
241.146	0.31
241.614	0.32
242.081	0.32
242.549	0.32
243.017	0.32
243.485	0.33
243.953	0.33
244.421	0.33
244.888	0.33
245.356	0.34
245.824	0.34
246.291	0.34
246.759	0.34
247.227	0.34
247.694	0.35
248.162	0.35
248.629	0.35
249.097	0.35
249.564	0.36
250.032	0.36
250.499	0.36
250.967	0.36
251.434	0.36
251.901	0.37
252.369	0.37
252.836	0.37
253.303	0.37
253.77	0.37
254.237	0.37
254.705	0.38
255.172	0.38
255.639	0.38
256.106	0.38
256.573	0.38
257.04	0.38
257.507	0.38
257.974	0.38
258.441	0.38
258.908	0.38
259.375	0.38
259.841	0.38
260.308	0.38
260.775	0.38
261.242	0.38
261.709	0.38
262.175	0.38
262.642	0.38
263.109	0.38
263.575	0.38
264.042	0.38
264.508	0.38
264.975	0.38
265.441	0.38
265.908	0.38
266.374	0.38
266.841	0.38
267.307	0.37
267.773	0.37
268.24	0.37
268.706	0.37
269.172	0.37
269.639	0.37
270.105	0.36
270.571	0.36
271.037	0.36
271.503	0.36
271.969	0.36
272.435	0.35
272.902	0.35
273.368	0.35
273.834	0.35
274.3	0.35
274.765	0.34
275.231	0.34
275.697	0.34
276.163	0.34
276.629	0.34
277.095	0.33
277.56	0.33
278.026	0.33
278.492	0.33
278.958	0.32
279.423	0.32
279.889	0.32
280.354	0.32
280.82	0.31
281.286	0.31
281.751	0.31
282.217	0.31
282.682	0.31
283.147	0.3
283.613	0.3
284.078	0.3
284.544	0.3
285.009	0.3
285.474	0.29
285.939	0.29
286.405	0.29
286.87	0.29
287.335	0.29
287.8	0.29
288.265	0.29
288.73	0.28
289.195	0.28
289.66	0.28
290.125	0.28
290.59	0.28
291.055	0.28
291.52	0.27
291.985	0.27
292.45	0.27
292.915	0.27
293.38	0.27
293.844	0.27
294.309	0.27
294.774	0.27
295.239	0.27
295.703	0.27
296.168	0.26
296.632	0.26
297.097	0.26
297.562	0.26
298.026	0.26
298.491	0.26
298.955	0.26
299.419	0.26
299.884	0.26
300.348	0.26
300.813	0.26
301.277	0.26
301.741	0.26
302.205	0.26
302.67	0.26
303.134	0.26
303.598	0.26
304.062	0.26
304.526	0.26
304.99	0.26
305.454	0.25
305.919	0.25
306.383	0.25
306.847	0.25
307.31	0.25
307.774	0.25
308.238	0.25
308.702	0.25
309.166	0.25
309.63	0.25
310.094	0.25
310.557	0.25
311.021	0.25
311.485	0.25
311.948	0.25
312.412	0.25
312.876	0.25
313.339	0.25
313.803	0.25
314.266	0.25
314.73	0.25
315.193	0.25
315.657	0.25
316.12	0.24
316.584	0.24
317.047	0.24
317.51	0.24
317.973	0.24
318.437	0.24
318.9	0.24
319.363	0.24
319.826	0.24
320.29	0.24
320.753	0.24
321.216	0.24
321.679	0.24
322.142	0.24
322.605	0.24
323.068	0.24
323.531	0.24
323.994	0.24
324.457	0.24
324.92	0.24
325.382	0.24
325.845	0.24
326.308	0.24
326.771	0.24
327.233	0.24
327.696	0.24
328.159	0.23
328.622	0.23
329.084	0.23
329.547	0.23
330.009	0.23
330.472	0.23
330.934	0.23
331.397	0.23
331.859	0.23
332.322	0.23
332.784	0.23
333.246	0.23
333.709	0.23
334.171	0.23
334.633	0.23
335.096	0.23
335.558	0.23
336.02	0.23
336.482	0.23
336.944	0.23
337.406	0.23
337.868	0.23
338.331	0.23
338.793	0.23
339.255	0.23
339.717	0.23
340.178	0.23
340.64	0.23
341.102	0.23
341.564	0.23
342.026	0.22
342.488	0.22
342.949	0.22
343.411	0.22
343.873	0.22
344.335	0.22
344.796	0.22
345.258	0.22
345.719	0.22
346.181	0.22
346.643	0.22
347.104	0.22
347.566	0.22
348.027	0.22
348.488	0.22
348.95	0.22
349.411	0.22
349.873	0.22
350.334	0.22
350.795	0.22
351.256	0.22
351.718	0.22
352.179	0.22
352.64	0.22
353.101	0.22
353.562	0.22
354.023	0.22
354.484	0.22
354.945	0.22
355.406	0.22
355.867	0.22
356.328	0.22
356.789	0.22
357.25	0.22
357.711	0.22
358.172	0.22
358.633	0.22
359.093	0.22
359.554	0.22
360.015	0.22
360.476	0.22
360.936	0.22
361.397	0.22
361.858	0.22
362.318	0.22
362.779	0.22
363.239	0.22
363.7	0.22
364.16	0.22
364.621	0.22
365.081	0.22
365.541	0.22
366.002	0.22
366.462	0.22
366.922	0.22
367.383	0.22
367.843	0.22
368.303	0.22
368.763	0.22
369.223	0.22
369.684	0.22
370.144	0.22
370.604	0.22
371.064	0.22
371.524	0.22
371.984	0.22
372.444	0.22
372.904	0.22
373.363	0.22
373.823	0.22
374.283	0.22
374.743	0.22
375.203	0.22
375.663	0.22
376.122	0.22
376.582	0.22
377.042	0.22
377.501	0.22
377.961	0.22
378.42	0.22
378.88	0.22
379.34	0.22
379.799	0.22
380.259	0.22
380.718	0.22
381.177	0.22
381.637	0.22
382.096	0.21
382.555	0.21
383.015	0.21
383.474	0.21
383.933	0.21
384.393	0.21
384.852	0.21
385.311	0.21
385.77	0.21
386.229	0.21
386.688	0.21
387.147	0.21
387.606	0.21
388.065	0.21
388.524	0.21
388.983	0.21
389.442	0.21
389.901	0.21
390.36	0.21
390.819	0.21
391.277	0.21
391.736	0.21
392.195	0.21
392.654	0.21
393.112	0.21
393.571	0.21
394.03	0.21
394.488	0.21
394.947	0.21
395.405	0.21
395.864	0.21
396.322	0.21
396.781	0.21
397.239	0.21
397.698	0.21
398.156	0.21
398.614	0.21
399.073	0.21
399.531	0.21
399.989	0.21
400.447	0.21
400.905	0.21
401.364	0.21
401.822	0.21
402.28	0.21
402.738	0.21
403.196	0.21
403.654	0.21
404.112	0.21
404.57	0.21
405.028	0.21
405.486	0.21
405.944	0.21
406.402	0.21
406.859	0.21
407.317	0.21
407.775	0.21
408.233	0.21
408.691	0.21
409.148	0.21
409.606	0.21
410.064	0.21
410.521	0.21
410.979	0.21
411.436	0.21
411.894	0.21
412.351	0.21
412.809	0.21
413.266	0.21
413.724	0.21
414.181	0.21
414.638	0.21
415.096	0.21
415.553	0.21
416.01	0.2
416.467	0.2
416.925	0.2
417.382	0.2
417.839	0.2
418.296	0.2
418.753	0.2
419.21	0.2
419.667	0.2
420.124	0.2
420.581	0.2
421.038	0.2
421.495	0.2
421.952	0.2
422.409	0.2
422.866	0.2
423.322	0.2
423.779	0.2
424.236	0.2
424.693	0.2
425.149	0.2
425.606	0.2
426.063	0.2
426.519	0.2
426.976	0.2
427.433	0.2
427.889	0.2
428.346	0.2
428.802	0.2
429.258	0.2
429.715	0.2
430.171	0.2
430.628	0.2
431.084	0.2
431.54	0.2
431.997	0.2
432.453	0.2
432.909	0.2
433.365	0.2
433.821	0.2
434.277	0.2
434.734	0.2
435.19	0.2
435.646	0.2
436.102	0.2
436.558	0.2
437.014	0.2
437.47	0.2
437.925	0.2
438.381	0.2
438.837	0.2
439.293	0.2
439.749	0.2
440.205	0.2
440.66	0.2
441.116	0.2
441.572	0.2
442.027	0.2
442.483	0.2
442.939	0.2
443.394	0.2
443.85	0.2
444.305	0.2
444.761	0.2
445.216	0.2
445.672	0.2
446.127	0.2
446.582	0.2
447.038	0.2
447.493	0.2
447.948	0.2
448.403	0.2
448.859	0.2
449.314	0.2
449.769	0.2
450.224	0.2
450.679	0.2
451.134	0.2
451.589	0.2
452.044	0.2
452.499	0.2
452.954	0.2
453.409	0.2
453.864	0.2
454.319	0.2
454.774	0.2
455.229	0.2
455.684	0.2
456.138	0.2
456.593	0.2
457.048	0.2
457.503	0.2
457.957	0.2
458.412	0.2
458.866	0.2
459.321	0.2
459.776	0.2
460.23	0.2
460.685	0.2
461.139	0.2
461.593	0.2
462.048	0.2
462.502	0.2
462.957	0.2
463.411	0.2
463.865	0.2
464.319	0.2
464.774	0.2
465.228	0.2
465.682	0.2
466.136	0.2
466.59	0.2
467.044	0.2
467.499	0.2
467.953	0.2
468.407	0.2
468.861	0.2
469.315	0.2
469.768	0.2
470.222	0.2
470.676	0.2
471.13	0.2
471.584	0.2
472.038	0.2
472.491	0.2
472.945	0.2
473.399	0.2
473.852	0.2
474.306	0.2
474.76	0.2
475.213	0.2
475.667	0.2
476.12	0.2
476.574	0.2
477.027	0.2
477.481	0.2
477.934	0.2
478.388	0.2
478.841	0.2
479.294	0.2
479.748	0.2
480.201	0.2
480.654	0.2
481.107	0.2
481.561	0.2
482.014	0.2
482.467	0.21
482.92	0.21
483.373	0.21
483.826	0.21
484.279	0.21
484.732	0.21
485.185	0.21
485.638	0.21
486.091	0.21
486.544	0.21
486.997	0.21
487.449	0.21
487.902	0.21
488.355	0.21
488.808	0.21
489.26	0.21
489.713	0.22
490.166	0.22
490.618	0.22
491.071	0.22
491.523	0.22
491.976	0.22
492.429	0.22
492.881	0.22
493.333	0.22
493.786	0.22
494.238	0.22
494.691	0.22
495.143	0.23
495.595	0.23
496.048	0.23
496.5	0.23
496.952	0.23
497.404	0.23
497.856	0.23
498.309	0.23
498.761	0.23
499.213	0.23
499.665	0.24
500.117	0.24
500.569	0.24
501.021	0.24
501.473	0.24
501.925	0.24
502.377	0.24
502.828	0.25
503.28	0.25
503.732	0.25
504.184	0.25
504.636	0.25
505.087	0.25
505.539	0.25
505.991	0.25
506.442	0.26
506.894	0.26
507.345	0.26
507.797	0.26
508.249	0.26
508.7	0.26
509.151	0.26
509.603	0.26
510.054	0.26
510.506	0.27
510.957	0.27
511.408	0.27
511.86	0.27
512.311	0.27
512.762	0.27
513.213	0.27
513.665	0.27
514.116	0.27
514.567	0.27
515.018	0.27
515.469	0.27
515.92	0.28
516.371	0.28
516.822	0.28
517.273	0.28
517.724	0.28
518.175	0.28
518.626	0.28
519.076	0.28
519.527	0.28
519.978	0.28
520.429	0.28
520.88	0.28
521.33	0.28
521.781	0.28
522.232	0.29
522.682	0.29
523.133	0.29
523.583	0.29
524.034	0.29
524.484	0.29
524.935	0.29
525.385	0.29
525.836	0.29
526.286	0.29
526.736	0.29
527.187	0.29
527.637	0.29
528.087	0.29
528.538	0.29
528.988	0.29
529.438	0.29
529.888	0.29
530.338	0.29
530.788	0.29
531.238	0.29
531.688	0.29
532.139	0.29
532.589	0.29
533.038	0.29
533.488	0.29
533.938	0.29
534.388	0.29
534.838	0.29
535.288	0.29
535.738	0.29
536.187	0.29
536.637	0.29
537.087	0.29
537.537	0.29
537.986	0.29
538.436	0.29
538.885	0.29
539.335	0.29
539.785	0.29
540.234	0.29
540.684	0.29
541.133	0.29
541.582	0.29
542.032	0.29
542.481	0.29
542.931	0.29
543.38	0.29
543.829	0.29
544.278	0.29
544.728	0.29
545.177	0.29
545.626	0.29
546.075	0.29
546.524	0.29
546.973	0.29
547.422	0.29
547.871	0.28
548.32	0.28
548.769	0.28
549.218	0.28
549.667	0.28
550.116	0.28
550.565	0.28
551.014	0.28
551.463	0.28
551.911	0.28
552.36	0.28
552.809	0.28
553.258	0.28
553.706	0.28
554.155	0.28
554.603	0.28
555.052	0.28
555.501	0.28
555.949	0.28
556.398	0.28
556.846	0.28
557.294	0.28
557.743	0.28
558.191	0.27
558.64	0.27
559.088	0.27
559.536	0.27
559.985	0.27
560.433	0.27
560.881	0.27
561.329	0.27
561.777	0.27
562.225	0.27
562.674	0.27
563.122	0.27
563.57	0.27
564.018	0.27
564.466	0.27
564.914	0.27
565.362	0.27
565.809	0.27
566.257	0.27
566.705	0.27
567.153	0.27
567.601	0.26
568.048	0.26
568.496	0.26
568.944	0.26
569.392	0.26
569.839	0.26
570.287	0.26
570.734	0.26
571.182	0.26
571.63	0.26
572.077	0.26
572.525	0.26
572.972	0.26
573.419	0.26
573.867	0.26
574.314	0.26
574.761	0.26
575.209	0.26
575.656	0.26
576.103	0.25
576.551	0.25
576.998	0.25
577.445	0.25
577.892	0.25
578.339	0.25
578.786	0.25
579.233	0.25
579.68	0.25
580.127	0.25
580.574	0.25
581.021	0.25
581.468	0.25
581.915	0.25
582.362	0.25
582.809	0.25
583.255	0.25
583.702	0.25
584.149	0.24
584.596	0.24
585.042	0.24
585.489	0.24
585.936	0.24
586.382	0.24
586.829	0.24
587.275	0.24
587.722	0.24
588.168	0.24
588.615	0.24
589.061	0.24
589.508	0.24
589.954	0.23
590.4	0.23
590.847	0.23
591.293	0.23
591.739	0.23
592.185	0.23
592.632	0.23
593.078	0.23
593.524	0.23
593.97	0.23
594.416	0.23
594.862	0.23
595.308	0.23
595.754	0.23
596.2	0.23
596.646	0.22
597.092	0.22
597.538	0.22
597.984	0.22
598.43	0.22
598.876	0.22
599.321	0.22
599.767	0.22
600.213	0.22
600.659	0.22
601.104	0.22
601.55	0.22
601.995	0.22
602.441	0.22
602.887	0.21
603.332	0.21
603.778	0.21
604.223	0.21
604.668	0.21
605.114	0.21
605.559	0.21
606.005	0.21
606.45	0.21
606.895	0.21
607.341	0.21
607.786	0.21
608.231	0.21
608.676	0.21
609.121	0.21
609.566	0.21
610.012	0.2
610.457	0.2
610.902	0.2
611.347	0.2
611.792	0.2
612.237	0.2
612.682	0.2
613.127	0.2
613.571	0.2
614.016	0.2
614.461	0.2
614.906	0.2
615.351	0.2
615.795	0.2
616.24	0.2
616.685	0.2
617.129	0.2
617.574	0.2
618.019	0.2
618.463	0.2
618.908	0.2
619.352	0.2
619.797	0.2
620.241	0.2
620.686	0.2
621.13	0.2
621.574	0.19
622.019	0.19
622.463	0.19
622.907	0.19
623.352	0.19
623.796	0.19
624.24	0.19
624.684	0.19
625.128	0.19
625.572	0.19
626.016	0.19
626.461	0.19
626.905	0.19
627.349	0.19
627.793	0.19
628.236	0.19
628.68	0.19
629.124	0.19
629.568	0.19
630.012	0.19
630.456	0.19
630.9	0.19
631.343	0.19
631.787	0.19
632.231	0.19
632.674	0.19
633.118	0.19
633.562	0.19
634.005	0.19
634.449	0.2
634.892	0.2
635.336	0.2
635.779	0.2
636.223	0.2
636.666	0.2
637.109	0.2
637.553	0.2
637.996	0.2
638.439	0.2
638.883	0.2
639.326	0.2
639.769	0.2
640.212	0.2
640.655	0.2
641.099	0.21
641.542	0.21
641.985	0.21
642.428	0.21
642.871	0.21
643.314	0.21
643.757	0.21
644.2	0.21
644.643	0.21
645.085	0.22
645.528	0.22
645.971	0.22
646.414	0.22
646.857	0.22
647.299	0.22
647.742	0.22
648.185	0.22
648.627	0.23
649.07	0.23
649.513	0.23
649.955	0.23
650.398	0.23
650.84	0.24
651.283	0.24
651.725	0.24
652.168	0.24
652.61	0.24
653.052	0.25
653.495	0.24
653.937	0.19
654.379	0.15
654.821	0.16
655.264	0.16
655.706	0.16
656.148	0.16
656.59	0.16
657.032	0.16
657.474	0.16
657.916	0.16
658.358	0.16
658.8	0.2
659.242	0.27
659.684	0.28
660.126	0.28
660.568	0.28
661.01	0.28
661.452	0.28
661.894	0.29
662.335	0.29
662.777	0.29
663.219	0.29
663.661	0.3
664.102	0.3
664.544	0.3
664.985	0.3
665.427	0.3
665.869	0.3
666.31	0.31
666.752	0.31
667.193	0.31
667.634	0.31
668.076	0.31
668.517	0.32
668.959	0.32
669.4	0.32
669.841	0.32
670.282	0.33
670.724	0.33
671.165	0.33
671.606	0.33
672.047	0.33
672.488	0.33
672.929	0.34
673.37	0.34
673.811	0.34
674.252	0.34
674.693	0.34
675.134	0.34
675.575	0.34
676.016	0.34
676.457	0.35
676.898	0.35
677.339	0.35
677.78	0.35
678.22	0.35
678.661	0.35
679.102	0.35
679.542	0.35
679.983	0.36
680.424	0.36
680.864	0.36
681.305	0.36
681.745	0.36
682.186	0.36
682.626	0.36
683.067	0.36
683.507	0.36
683.948	0.36
684.388	0.37
684.828	0.37
685.269	0.37
685.709	0.37
686.149	0.37
686.589	0.37
687.029	0.37
687.47	0.37
687.91	0.37
688.35	0.37
688.79	0.37
689.23	0.37
689.67	0.37
690.11	0.37
690.55	0.37
690.99	0.37
691.43	0.37
691.87	0.37
692.31	0.37
692.749	0.37
693.189	0.37
693.629	0.37
694.069	0.37
694.508	0.37
694.948	0.37
695.388	0.36
695.827	0.36
696.267	0.36
696.706	0.36
697.146	0.36
697.586	0.36
698.025	0.36
698.464	0.36
698.904	0.36
699.343	0.36
699.783	0.36
700.222	0.36
700.661	0.36
701.101	0.35
701.54	0.35
701.979	0.35
702.418	0.35
702.857	0.35
703.297	0.35
703.736	0.35
704.175	0.35
704.614	0.34
705.053	0.34
705.492	0.34
705.931	0.34
706.37	0.34
706.809	0.34
707.248	0.34
707.687	0.34
708.125	0.33
708.564	0.33
709.003	0.33
709.442	0.33
709.88	0.33
710.319	0.33
710.758	0.33
711.196	0.33
711.635	0.32
712.074	0.32
712.512	0.32
712.951	0.32
713.389	0.32
713.828	0.32
714.266	0.32
714.705	0.32
715.143	0.31
715.581	0.31
716.02	0.31
716.458	0.31
716.896	0.31
717.334	0.31
717.773	0.31
718.211	0.31
718.649	0.31
719.087	0.3
719.525	0.3
719.963	0.3
720.401	0.3
720.839	0.3
721.277	0.3
721.715	0.3
722.153	0.3
722.591	0.29
723.029	0.29
723.467	0.29
723.905	0.29
724.342	0.29
724.78	0.29
725.218	0.29
725.656	0.29
726.093	0.29
726.531	0.28
726.969	0.28
727.406	0.28
727.844	0.28
728.281	0.28
728.719	0.28
729.156	0.28
729.594	0.28
730.031	0.28
730.469	0.27
730.906	0.27
731.343	0.27
731.781	0.27
732.218	0.27
732.655	0.27
733.092	0.27
733.53	0.26
733.967	0.26
734.404	0.26
734.841	0.26
735.278	0.26
735.715	0.26
736.152	0.26
736.589	0.26
737.026	0.25
737.463	0.25
737.9	0.25
738.337	0.25
738.774	0.25
739.211	0.25
739.647	0.25
740.084	0.25
740.521	0.25
740.958	0.25
741.394	0.25
741.831	0.25
742.268	0.24
742.704	0.24
743.141	0.24
743.577	0.24
744.014	0.24
744.45	0.24
744.887	0.23
745.323	0.23
745.76	0.23
746.196	0.23
746.632	0.23
747.069	0.23
747.505	0.23
747.941	0.23
748.378	0.22
748.814	0.22
749.25	0.22
749.686	0.22
750.122	0.22
750.558	0.22
750.994	0.22
751.43	0.22
751.866	0.22
752.302	0.22
752.738	0.22
753.174	0.22
753.61	0.22
754.046	0.22
754.482	0.22
754.918	0.21
755.354	0.21
755.789	0.21
756.225	0.21
756.661	0.21
757.096	0.21
757.532	0.21
757.968	0.21
758.403	0.21
758.839	0.21
759.274	0.21
759.71	0.21
760.145	0.21
760.581	0.21
761.016	0.21
761.452	0.21
761.887	0.21
762.322	0.21
762.758	0.21
763.193	0.2
763.628	0.2
764.063	0.2
764.499	0.2
764.934	0.2
765.369	0.2
765.804	0.2
766.239	0.2
766.674	0.2
767.109	0.2
767.544	0.2
767.979	0.2
768.414	0.2
768.849	0.2
769.284	0.2
769.719	0.2
770.154	0.19
770.588	0.19
771.023	0.19
771.458	0.19
771.893	0.19
772.327	0.19
772.762	0.19
773.197	0.19
773.631	0.18
774.066	0.18
774.5	0.18
774.935	0.18
775.369	0.18
775.804	0.18
776.238	0.18
776.673	0.17
777.107	0.17
777.541	0.17
777.976	0.17
778.41	0.17
778.844	0.17
779.279	0.17
779.713	0.17
780.147	0.17
780.581	0.17
781.015	0.17
781.449	0.17
781.883	0.17
782.317	0.17
782.751	0.17
783.185	0.16
783.619	0.16
784.053	0.16
784.487	0.16
784.921	0.16
785.355	0.16
785.789	0.16
786.223	0.16
786.656	0.16
787.09	0.16
787.524	0.16
787.957	0.16
788.391	0.16
788.825	0.16
789.258	0.16
789.692	0.16
790.125	0.16
790.559	0.16
790.992	0.16
791.426	0.16
791.859	0.16
792.293	0.16
792.726	0.16
793.159	0.16
793.593	0.15
794.026	0.15
794.459	0.15
794.892	0.15
795.326	0.15
795.759	0.15
796.192	0.15
796.625	0.15
797.058	0.15
797.491	0.15
797.924	0.15
798.357	0.15
798.79	0.15
799.223	0.15
799.656	0.15
800.089	0.15
800.522	0.14
800.955	0.14
801.387	0.14
801.82	0.14
802.253	0.14
802.686	0.14
803.118	0.14
803.551	0.14
803.984	0.14
804.416	0.14
804.849	0.14
805.281	0.14
805.714	0.14
806.146	0.14
806.579	0.14
807.011	0.14
807.444	0.14
807.876	0.14
808.308	0.14
808.741	0.14
809.173	0.14
809.605	0.13
810.037	0.13
810.47	0.13
810.902	0.13
811.334	0.13
811.766	0.13
812.198	0.13
812.63	0.13
813.062	0.13
813.494	0.13
813.926	0.13
814.358	0.13
814.79	0.13
815.222	0.13
815.654	0.13
816.086	0.13
816.518	0.13
816.949	0.13
817.381	0.13
817.813	0.13
818.245	0.13
818.676	0.13
819.108	0.13
819.54	0.13
819.971	0.13
820.403	0.13
820.834	0.13
821.266	0.13
821.697	0.13
822.129	0.13
822.56	0.13
822.991	0.12
823.423	0.12
823.854	0.12
824.286	0.12
824.717	0.12
825.148	0.12
825.579	0.12
826.01	0.12
826.442	0.12
826.873	0.12
827.304	0.12
827.735	0.12
828.166	0.12
828.597	0.12
829.028	0.12
829.459	0.12
829.89	0.12
830.321	0.12
830.752	0.12
831.183	0.12
831.613	0.12
832.044	0.12
832.475	0.12
832.906	0.12
833.336	0.12
833.767	0.12
834.198	0.12
834.628	0.12
835.059	0.12
835.49	0.12
835.92	0.12
836.351	0.12
836.781	0.12
837.212	0.12
837.642	0.12
838.072	0.12
838.503	0.12
838.933	0.12
839.364	0.12
839.794	0.12
840.224	0.12
840.654	0.12
841.085	0.12
841.515	0.12
841.945	0.11
842.375	0.11
842.805	0.11
843.235	0.11
843.665	0.11
844.095	0.11
844.525	0.11
844.955	0.11
845.385	0.11
845.815	0.11
846.245	0.11
846.675	0.11
847.105	0.11
847.534	0.11
847.964	0.11
848.394	0.1
848.824	0.1
849.253	0.1
849.683	0.1
850.112	0.1
850.542	0.11
850.972	0.11
851.401	0.11
851.831	0.11
852.26	0.11
852.69	0.11
853.119	0.11
853.548	0.11
853.978	0.11
854.407	0.11
854.836	0.11
855.266	0.11
855.695	0.11
856.124	0.11
856.553	0.11
856.983	0.11
857.412	0.11
857.841	0.1
858.27	0.1
858.699	0.1
859.128	0.1
859.557	0.1
859.986	0.1
860.415	0.1
860.844	0.1
861.273	0.1
861.702	0.1
862.13	0.1
862.559	0.1
862.988	0.1
863.417	0.1
863.845	0.1
864.274	0.1
864.703	0.1
865.131	0.1
865.56	0.1
865.989	0.1
866.417	0.1
866.846	0.1
867.274	0.1
867.703	0.1
868.131	0.1
868.559	0.1
868.988	0.1
869.416	0.1
869.844	0.1
870.273	0.1
870.701	0.09
871.129	0.09
871.557	0.09
871.986	0.09
872.414	0.09
872.842	0.09
873.27	0.09
873.698	0.09
874.126	0.09
874.554	0.09
874.982	0.09
875.41	0.09
875.838	0.09
876.266	0.09
876.694	0.09
877.122	0.09
877.549	0.09
877.977	0.09
878.405	0.09
878.833	0.09
879.26	0.09
879.688	0.09
880.116	0.09
880.543	0.09
880.971	0.09
881.399	0.09
881.826	0.09
882.254	0.09
882.681	0.09
883.109	0.08
883.536	0.08
883.963	0.08
884.391	0.08
884.818	0.08
885.245	0.08
885.673	0.08
886.1	0.08
886.527	0.08
886.954	0.08
887.381	0.08
887.809	0.08
888.236	0.08
888.663	0.08
889.09	0.08
889.517	0.08
889.944	0.08
890.371	0.08
890.798	0.08
891.225	0.08
891.652	0.08
892.078	0.08
892.505	0.08
892.932	0.08
893.359	0.08
893.786	0.08
894.212	0.08
894.639	0.08
895.066	0.08
895.492	0.08
895.919	0.08
896.346	0.08
896.772	0.08
897.199	0.08
897.625	0.07
898.052	0.07
898.478	0.07
898.904	0.07
899.331	0.07
899.757	0.07
900.183	0.07
900.61	0.07
901.036	0.07
901.462	0.07
901.888	0.07
902.315	0.07
902.741	0.07
903.167	0.07
903.593	0.07
904.019	0.07
904.445	0.07
904.871	0.07
905.297	0.07
905.723	0.07
906.149	0.07
906.575	0.08
907.001	0.08
907.427	0.08
907.852	0.08
908.278	0.08
908.704	0.08
909.13	0.08
909.555	0.07
909.981	0.07
910.407	0.07
910.832	0.07
911.258	0.07
911.684	0.07
912.109	0.07
912.535	0.07
912.96	0.07
913.386	0.07
913.811	0.07
914.236	0.07
914.662	0.07
915.087	0.07
915.512	0.07
915.938	0.07
916.363	0.07
916.788	0.07
917.213	0.07
917.639	0.07
918.064	0.07
918.489	0.07
918.914	0.07
919.339	0.07
919.764	0.07
920.189	0.07
920.614	0.07
921.039	0.08
921.464	0.08
921.889	0.08
922.314	0.08
922.738	0.08
923.163	0.08
923.588	0.08
924.013	0.08
924.437	0.08
924.862	0.08
925.287	0.08
925.711	0.08
926.136	0.08
926.561	0.08
926.985	0.08
927.41	0.08
927.834	0.08
928.259	0.07
928.683	0.07
929.108	0.07
929.532	0.07
929.956	0.07
930.381	0.07
930.805	0.07
931.229	0.07
931.653	0.07
932.078	0.07
932.502	0.07
932.926	0.07
933.35	0.07
933.774	0.06
934.198	0.06
934.622	0.06
935.046	0.06
935.47	0.06
935.894	0.06
936.318	0.06
936.742	0.06
937.166	0.06
937.59	0.06
938.014	0.06
938.437	0.06
938.861	0.06
939.285	0.06
939.709	0.06
940.132	0.06
940.556	0.06
940.98	0.06
941.403	0.06
941.827	0.06
942.25	0.06
942.674	0.06
943.097	0.06
943.521	0.06
943.944	0.06
944.368	0.06
944.791	0.06
945.214	0.06
945.638	0.06
946.061	0.06
946.484	0.06
946.907	0.06
947.331	0.06
947.754	0.06
948.177	0.06
948.6	0.06
949.023	0.06
949.446	0.06
949.869	0.06
950.292	0.06
950.715	0.06
951.138	0.06
951.561	0.06
951.984	0.06
952.407	0.06
952.83	0.06
953.252	0.06
953.675	0.06
954.098	0.06
954.521	0.06
954.943	0.06
955.366	0.06
955.789	0.06
956.211	0.06
956.634	0.06
957.056	0.06
957.479	0.06
957.902	0.06
958.324	0.06
958.746	0.06
959.169	0.06
959.591	0.06
960.014	0.06
960.436	0.06
960.858	0.06
961.281	0.06
961.703	0.06
962.125	0.06
962.547	0.06
962.969	0.06
963.391	0.06
963.814	0.06
964.236	0.06
964.658	0.06
965.08	0.06
965.502	0.06
965.924	0.06
966.346	0.06
966.768	0.06
967.189	0.06
967.611	0.06
968.033	0.06
968.455	0.06
968.877	0.06
969.298	0.06
969.72	0.06
970.142	0.06
970.563	0.06
970.985	0.06
971.407	0.06
971.828	0.06
972.25	0.06
972.671	0.06
973.093	0.06
973.514	0.05
973.936	0.05
974.357	0.05
974.778	0.05
975.2	0.05
975.621	0.05
976.042	0.05
976.464	0.05
976.885	0.05
977.306	0.05
977.727	0.05
978.148	0.05
978.57	0.05
978.991	0.05
979.412	0.05
979.833	0.05
980.254	0.05
980.675	0.06
981.096	0.06
981.517	0.06
981.937	0.05
982.358	0.05
982.779	0.05
983.2	0.05
983.621	0.05
984.042	0.05
984.462	0.05
984.883	0.05
985.304	0.05
985.724	0.05
986.145	0.05
986.565	0.05
986.986	0.05
987.407	0.05
987.827	0.05
988.248	0.05
988.668	0.05
989.088	0.05
989.509	0.05
989.929	0.05
990.35	0.05
990.77	0.05
991.19	0.05
991.61	0.05
992.031	0.05
992.451	0.05
992.871	0.05
993.291	0.05
993.711	0.05
994.131	0.05
994.551	0.05
994.971	0.05
995.391	0.05
995.811	0.05
996.231	0.05
996.651	0.05
997.071	0.05
997.491	0.05
997.911	0.05
998.331	0.05
998.75	0.05
999.17	0.05
999.59	0.05
1000.009	0.05
1000.429	0.05
1000.849	0.05
1001.268	0.05
1001.688	0.05
1002.107	0.05
1002.527	0.05
1002.946	0.05
1003.366	0.05
1003.785	0.05
1004.205	0.05
1004.624	0.05
1005.044	0.05
1005.463	0.05
1005.882	0.05
1006.301	0.05
1006.721	0.05
1007.14	0.05
1007.559	0.05
1007.978	0.05
1008.397	0.05
1008.816	0.05
1009.235	0.05
1009.655	0.05
1010.074	0.05
1010.492	0.04
1010.911	0.04
1011.33	0.04
1011.749	0.04
1012.168	0.04
1012.587	0.04
1013.006	0.04
1013.425	0.04
1013.843	0.04
1014.262	0.04
1014.681	0.04
1015.099	0.04
1015.518	0.04
1015.937	0.04
1016.355	0.04
1016.774	0.04
1017.192	0.04
1017.611	0.04
1018.029	0.04
1018.448	0.04
1018.866	0.04
1019.285	0.04
1019.703	0.04
1020.121	0.04
1020.54	0.04
1020.958	0.04
1021.376	0.04
1021.794	0.04
1022.213	0.04
1022.631	0.04
1023.049	0.04
1023.467	0.04
1023.885	0.04
1024.303	0.04
1024.721	0.04
1025.139	0.04
1025.557	0.04
1025.975	0.04
1026.393	0.04
1026.811	0.04
1027.229	0.04
1027.647	0.04
1028.065	0.04
1028.482	0.04
1028.9	0.04
1029.318	0.04
1029.735	0.04
1030.153	0.04
1030.571	0.04
1030.988	0.04
1031.406	0.04
1031.823	0.04
1032.241	0.04
1032.659	0.04
1033.076	0.04
1033.493	0.04
1033.911	0.04
1034.328	0.04
1034.746	0.04
1035.163	0.04
1035.58	0.04
1035.997	0.04
1036.415	0.04
1036.832	0.04
1037.249	0.04
1037.666	0.04
1038.083	0.04
1038.501	0.04
1038.918	0.04
1039.335	0.04
1039.752	0.04
1040.169	0.04
1040.586	0.04
1041.003	0.04
1041.419	0.04
1041.836	0.04
1042.253	0.04
1042.67	0.04
1043.087	0.04
1043.504	0.04
1043.92	0.04
1044.337	0.04
1044.754	0.03
1045.17	0.03
1045.587	0.03
1046.004	0.04
1046.42	0.04
1046.837	0.04
1047.253	0.04
1047.67	0.04
1048.086	0.04
1048.503	0.04
1048.919	0.04
1049.335	0.04
1049.752	0.04
1050.168	0.04
1050.584	0.04
1051.001	0.04
1051.417	0.04
1051.833	0.04
1052.249	0.04
1052.665	0.04
1053.081	0.04
1053.497	0.04
1053.914	0.04
1054.33	0.04
1054.746	0.04
1055.162	0.04
1055.578	0.04
1055.993	0.04
1056.409	0.03
1056.825	0.03
1057.241	0.03
1057.657	0.03
1058.073	0.03
1058.488	0.03
1058.904	0.03
1059.32	0.03
1059.736	0.03
1060.151	0.03
1060.567	0.03
1060.982	0.03
1061.398	0.03
1061.813	0.03
1062.229	0.03
1062.644	0.03
1063.06	0.03
1063.475	0.03
1063.891	0.03
1064.306	0.03
1064.721	0.03
1065.137	0.03
1065.552	0.03
1065.967	0.03
1066.382	0.03
1066.798	0.02
1067.213	0.02
1067.628	0.02
1068.043	0.02
1068.458	0.02
1068.873	0.02
1069.288	0.02
1069.703	0.02
1070.118	0.02
1070.533	0.02
1070.948	0.02
1071.363	0.03
1071.778	0.03
1072.193	0.03
1072.607	0.03
1073.022	0.03
1073.437	0.03
1073.852	0.03
1074.266	0.03
1074.681	0.03
1075.096	0.03
1075.51	0.03
1075.925	0.03
1076.339	0.03
1076.754	0.03
1077.168	0.03
1077.583	0.03
1077.997	0.02
1078.412	0.02
1078.826	0.02
1079.24	0.02
1079.655	0.02
1080.069	0.02
1080.483	0.02
1080.897	0.02
1081.312	0.02
1081.726	0.02
1082.14	0.02
1082.554	0.02
1082.968	0.02
1083.382	0.02
1083.796	0.02
1084.21	0.02
1084.624	0.02
1085.038	0.02
1085.452	0.02
1085.866	0.02
1086.28	0.02
1086.694	0.02
1087.108	0.02
1087.521	0.02
1087.935	0.02
1088.349	0.02
1088.763	0.02
1089.176	0.02
1089.59	0.02
1090.004	0.02
1090.417	0.01
1090.831	0.01
1091.244	0.01
1091.658	0.01
1092.071	0.01
1092.485	0.01
1092.898	0.01
1093.312	0.01
1093.725	0.01
1094.138	0
1094.552	0
1094.965	0
1095.378	0
1095.791	-0
1096.205	-0
1096.618	-0
1097.031	-0
1097.444	-0
1097.857	-0
1098.27	-0
1098.683	-0.01
1099.096	-0.01
1099.509	-0.01
1099.922	-0.01
1100.335	-0.01
1100.748	-0.01
1101.161	-0.01
1101.574	-0.01
1101.986	-0.01
1102.399	-0.01
1102.812	-0.01
1103.225	-0.01
1103.637	-0.02
1104.05	-0.02
1104.463	-0.02
1104.875	-0.02
1105.288	-0.02
1105.7	-0.02
1106.113	-0.02
1106.525	-0.02
1106.938	-0.03
1107.35	-0.03
1107.763	-0.03
1108.175	-0.03
1108.588	-0.03
1109	-0.03
1109.412	-0.03
1109.824	-0.04
1110.237	-0.04
1110.649	-0.04
1111.061	-0.04
