Data from agg-14_Absorbance__0__17-28-13-270.txt Node

Date: Thu Feb 22 17:28:13 CET 2024
User: Laser008
Spectrometer: MAYP115816
Trigger mode: 0
Integration Time (sec): 1.800000E-1
Scans to average: 10
Electric dark correction enabled: true
Nonlinearity correction enabled: true
Boxcar width: 5
XAxis mode: Wavelengths
Number of Pixels in Spectrum: 2068
>>>>>Begin Spectral Data<<<<<
198.914	-0.54
199.384	-0.51
199.855	-0.44
200.325	-0.37
200.796	-0.33
201.266	-0.31
201.737	-0.29
202.207	-0.29
202.677	-0.28
203.147	-0.27
203.618	-0.26
204.088	-0.24
204.558	-0.22
205.028	-0.22
205.498	-0.22
205.968	-0.22
206.439	-0.23
206.909	-0.22
207.379	-0.22
207.849	-0.22
208.319	-0.22
208.789	-0.22
209.258	-0.23
209.728	-0.23
210.198	-0.23
210.668	-0.23
211.138	-0.23
211.608	-0.23
212.077	-0.23
212.547	-0.23
213.017	-0.23
213.486	-0.24
213.956	-0.24
214.426	-0.24
214.895	-0.24
215.365	-0.24
215.834	-0.24
216.304	-0.24
216.773	-0.24
217.243	-0.24
217.712	-0.24
218.181	-0.24
218.651	-0.24
219.12	-0.24
219.589	-0.24
220.058	-0.24
220.528	-0.24
220.997	-0.24
221.466	-0.24
221.935	-0.24
222.404	-0.24
222.873	-0.23
223.342	-0.23
223.812	-0.23
224.281	-0.23
224.749	-0.22
225.218	-0.22
225.687	-0.21
226.156	-0.2
226.625	-0.19
227.094	-0.19
227.563	-0.18
228.031	-0.17
228.5	-0.15
228.969	-0.13
229.438	-0.11
229.906	-0.09
230.375	-0.07
230.844	-0.05
231.312	-0.02
231.781	-0
232.249	0.03
232.718	0.05
233.186	0.08
233.655	0.1
234.123	0.12
234.591	0.14
235.06	0.16
235.528	0.17
235.996	0.19
236.465	0.2
236.933	0.22
237.401	0.23
237.869	0.24
238.337	0.25
238.805	0.25
239.274	0.26
239.742	0.27
240.21	0.27
240.678	0.27
241.146	0.28
241.614	0.28
242.081	0.28
242.549	0.29
243.017	0.29
243.485	0.29
243.953	0.29
244.421	0.3
244.888	0.3
245.356	0.3
245.824	0.3
246.291	0.3
246.759	0.31
247.227	0.31
247.694	0.31
248.162	0.31
248.629	0.32
249.097	0.32
249.564	0.32
250.032	0.32
250.499	0.32
250.967	0.32
251.434	0.33
251.901	0.33
252.369	0.33
252.836	0.33
253.303	0.33
253.77	0.33
254.237	0.34
254.705	0.34
255.172	0.34
255.639	0.34
256.106	0.34
256.573	0.34
257.04	0.34
257.507	0.34
257.974	0.34
258.441	0.34
258.908	0.34
259.375	0.34
259.841	0.35
260.308	0.35
260.775	0.35
261.242	0.35
261.709	0.35
262.175	0.34
262.642	0.34
263.109	0.34
263.575	0.34
264.042	0.34
264.508	0.34
264.975	0.34
265.441	0.34
265.908	0.34
266.374	0.34
266.841	0.34
267.307	0.34
267.773	0.34
268.24	0.33
268.706	0.33
269.172	0.33
269.639	0.33
270.105	0.33
270.571	0.33
271.037	0.32
271.503	0.32
271.969	0.32
272.435	0.32
272.902	0.32
273.368	0.32
273.834	0.31
274.3	0.31
274.765	0.31
275.231	0.31
275.697	0.31
276.163	0.31
276.629	0.31
277.095	0.3
277.56	0.3
278.026	0.3
278.492	0.3
278.958	0.29
279.423	0.29
279.889	0.29
280.354	0.28
280.82	0.28
281.286	0.28
281.751	0.28
282.217	0.28
282.682	0.27
283.147	0.27
283.613	0.27
284.078	0.27
284.544	0.27
285.009	0.27
285.474	0.27
285.939	0.26
286.405	0.26
286.87	0.26
287.335	0.26
287.8	0.26
288.265	0.26
288.73	0.26
289.195	0.25
289.66	0.25
290.125	0.25
290.59	0.25
291.055	0.25
291.52	0.25
291.985	0.25
292.45	0.25
292.915	0.25
293.38	0.24
293.844	0.24
294.309	0.24
294.774	0.24
295.239	0.24
295.703	0.24
296.168	0.24
296.632	0.24
297.097	0.24
297.562	0.24
298.026	0.24
298.491	0.24
298.955	0.24
299.419	0.24
299.884	0.24
300.348	0.24
300.813	0.24
301.277	0.24
301.741	0.24
302.205	0.24
302.67	0.24
303.134	0.24
303.598	0.24
304.062	0.23
304.526	0.23
304.99	0.23
305.454	0.23
305.919	0.23
306.383	0.23
306.847	0.23
307.31	0.23
307.774	0.23
308.238	0.23
308.702	0.23
309.166	0.23
309.63	0.23
310.094	0.23
310.557	0.23
311.021	0.23
311.485	0.23
311.948	0.23
312.412	0.23
312.876	0.23
313.339	0.23
313.803	0.23
314.266	0.23
314.73	0.23
315.193	0.23
315.657	0.23
316.12	0.23
316.584	0.23
317.047	0.23
317.51	0.23
317.973	0.23
318.437	0.23
318.9	0.23
319.363	0.23
319.826	0.23
320.29	0.23
320.753	0.23
321.216	0.23
321.679	0.23
322.142	0.23
322.605	0.23
323.068	0.23
323.531	0.23
323.994	0.23
324.457	0.23
324.92	0.22
325.382	0.22
325.845	0.22
326.308	0.22
326.771	0.22
327.233	0.22
327.696	0.22
328.159	0.22
328.622	0.22
329.084	0.22
329.547	0.22
330.009	0.22
330.472	0.22
330.934	0.22
331.397	0.22
331.859	0.22
332.322	0.22
332.784	0.22
333.246	0.22
333.709	0.22
334.171	0.22
334.633	0.22
335.096	0.22
335.558	0.22
336.02	0.22
336.482	0.22
336.944	0.22
337.406	0.22
337.868	0.22
338.331	0.22
338.793	0.22
339.255	0.22
339.717	0.22
340.178	0.22
340.64	0.22
341.102	0.22
341.564	0.22
342.026	0.22
342.488	0.22
342.949	0.22
343.411	0.22
343.873	0.21
344.335	0.21
344.796	0.21
345.258	0.21
345.719	0.21
346.181	0.21
346.643	0.21
347.104	0.21
347.566	0.21
348.027	0.21
348.488	0.21
348.95	0.21
349.411	0.21
349.873	0.21
350.334	0.21
350.795	0.21
351.256	0.21
351.718	0.21
352.179	0.21
352.64	0.21
353.101	0.21
353.562	0.21
354.023	0.21
354.484	0.21
354.945	0.21
355.406	0.21
355.867	0.21
356.328	0.21
356.789	0.21
357.25	0.21
357.711	0.21
358.172	0.21
358.633	0.21
359.093	0.21
359.554	0.21
360.015	0.21
360.476	0.21
360.936	0.21
361.397	0.21
361.858	0.21
362.318	0.21
362.779	0.21
363.239	0.21
363.7	0.21
364.16	0.21
364.621	0.21
365.081	0.21
365.541	0.21
366.002	0.21
366.462	0.21
366.922	0.21
367.383	0.21
367.843	0.21
368.303	0.21
368.763	0.21
369.223	0.21
369.684	0.21
370.144	0.21
370.604	0.21
371.064	0.21
371.524	0.21
371.984	0.21
372.444	0.21
372.904	0.21
373.363	0.21
373.823	0.21
374.283	0.21
374.743	0.21
375.203	0.21
375.663	0.21
376.122	0.21
376.582	0.21
377.042	0.21
377.501	0.21
377.961	0.21
378.42	0.21
378.88	0.21
379.34	0.21
379.799	0.21
380.259	0.21
380.718	0.21
381.177	0.21
381.637	0.21
382.096	0.21
382.555	0.21
383.015	0.21
383.474	0.21
383.933	0.21
384.393	0.21
384.852	0.21
385.311	0.21
385.77	0.21
386.229	0.21
386.688	0.21
387.147	0.21
387.606	0.21
388.065	0.21
388.524	0.21
388.983	0.21
389.442	0.21
389.901	0.21
390.36	0.21
390.819	0.21
391.277	0.21
391.736	0.21
392.195	0.21
392.654	0.21
393.112	0.21
393.571	0.21
394.03	0.21
394.488	0.21
394.947	0.21
395.405	0.21
395.864	0.21
396.322	0.21
396.781	0.21
397.239	0.21
397.698	0.21
398.156	0.21
398.614	0.21
399.073	0.21
399.531	0.21
399.989	0.21
400.447	0.21
400.905	0.21
401.364	0.21
401.822	0.21
402.28	0.21
402.738	0.21
403.196	0.21
403.654	0.21
404.112	0.21
404.57	0.21
405.028	0.21
405.486	0.21
405.944	0.21
406.402	0.21
406.859	0.21
407.317	0.21
407.775	0.21
408.233	0.21
408.691	0.21
409.148	0.21
409.606	0.21
410.064	0.21
410.521	0.21
410.979	0.21
411.436	0.21
411.894	0.21
412.351	0.21
412.809	0.21
413.266	0.21
413.724	0.21
414.181	0.21
414.638	0.21
415.096	0.2
415.553	0.2
416.01	0.2
416.467	0.2
416.925	0.2
417.382	0.2
417.839	0.2
418.296	0.2
418.753	0.2
419.21	0.2
419.667	0.2
420.124	0.2
420.581	0.2
421.038	0.2
421.495	0.2
421.952	0.21
422.409	0.21
422.866	0.21
423.322	0.2
423.779	0.2
424.236	0.2
424.693	0.2
425.149	0.2
425.606	0.2
426.063	0.2
426.519	0.2
426.976	0.2
427.433	0.2
427.889	0.2
428.346	0.2
428.802	0.2
429.258	0.2
429.715	0.2
430.171	0.2
430.628	0.2
431.084	0.2
431.54	0.2
431.997	0.2
432.453	0.2
432.909	0.2
433.365	0.2
433.821	0.2
434.277	0.2
434.734	0.2
435.19	0.2
435.646	0.2
436.102	0.2
436.558	0.2
437.014	0.2
437.47	0.2
437.925	0.2
438.381	0.2
438.837	0.2
439.293	0.2
439.749	0.2
440.205	0.2
440.66	0.2
441.116	0.2
441.572	0.2
442.027	0.2
442.483	0.2
442.939	0.2
443.394	0.2
443.85	0.2
444.305	0.2
444.761	0.2
445.216	0.2
445.672	0.2
446.127	0.2
446.582	0.2
447.038	0.2
447.493	0.2
447.948	0.2
448.403	0.2
448.859	0.2
449.314	0.2
449.769	0.2
450.224	0.2
450.679	0.2
451.134	0.2
451.589	0.2
452.044	0.2
452.499	0.2
452.954	0.2
453.409	0.2
453.864	0.2
454.319	0.2
454.774	0.2
455.229	0.2
455.684	0.2
456.138	0.2
456.593	0.2
457.048	0.2
457.503	0.2
457.957	0.2
458.412	0.2
458.866	0.2
459.321	0.2
459.776	0.2
460.23	0.2
460.685	0.2
461.139	0.2
461.593	0.2
462.048	0.2
462.502	0.2
462.957	0.2
463.411	0.2
463.865	0.2
464.319	0.2
464.774	0.2
465.228	0.2
465.682	0.2
466.136	0.2
466.59	0.2
467.044	0.2
467.499	0.2
467.953	0.2
468.407	0.2
468.861	0.2
469.315	0.2
469.768	0.2
470.222	0.2
470.676	0.2
471.13	0.2
471.584	0.2
472.038	0.2
472.491	0.2
472.945	0.2
473.399	0.2
473.852	0.2
474.306	0.2
474.76	0.2
475.213	0.2
475.667	0.2
476.12	0.2
476.574	0.2
477.027	0.2
477.481	0.2
477.934	0.2
478.388	0.2
478.841	0.2
479.294	0.2
479.748	0.2
480.201	0.2
480.654	0.2
481.107	0.2
481.561	0.2
482.014	0.2
482.467	0.2
482.92	0.2
483.373	0.2
483.826	0.2
484.279	0.2
484.732	0.2
485.185	0.2
485.638	0.2
486.091	0.2
486.544	0.2
486.997	0.2
487.449	0.2
487.902	0.2
488.355	0.2
488.808	0.2
489.26	0.2
489.713	0.2
490.166	0.21
490.618	0.21
491.071	0.21
491.523	0.21
491.976	0.21
492.429	0.21
492.881	0.21
493.333	0.21
493.786	0.21
494.238	0.21
494.691	0.21
495.143	0.21
495.595	0.21
496.048	0.21
496.5	0.21
496.952	0.21
497.404	0.21
497.856	0.21
498.309	0.21
498.761	0.22
499.213	0.22
499.665	0.22
500.117	0.22
500.569	0.22
501.021	0.22
501.473	0.22
501.925	0.22
502.377	0.22
502.828	0.22
503.28	0.22
503.732	0.22
504.184	0.23
504.636	0.23
505.087	0.23
505.539	0.23
505.991	0.23
506.442	0.23
506.894	0.23
507.345	0.23
507.797	0.23
508.249	0.23
508.7	0.23
509.151	0.23
509.603	0.24
510.054	0.24
510.506	0.24
510.957	0.24
511.408	0.24
511.86	0.24
512.311	0.24
512.762	0.24
513.213	0.24
513.665	0.24
514.116	0.24
514.567	0.25
515.018	0.25
515.469	0.25
515.92	0.25
516.371	0.25
516.822	0.25
517.273	0.25
517.724	0.25
518.175	0.25
518.626	0.25
519.076	0.25
519.527	0.25
519.978	0.25
520.429	0.25
520.88	0.25
521.33	0.25
521.781	0.25
522.232	0.26
522.682	0.26
523.133	0.26
523.583	0.26
524.034	0.26
524.484	0.26
524.935	0.26
525.385	0.26
525.836	0.26
526.286	0.26
526.736	0.26
527.187	0.26
527.637	0.26
528.087	0.27
528.538	0.27
528.988	0.27
529.438	0.27
529.888	0.27
530.338	0.27
530.788	0.27
531.238	0.27
531.688	0.27
532.139	0.27
532.589	0.27
533.038	0.27
533.488	0.27
533.938	0.27
534.388	0.27
534.838	0.27
535.288	0.28
535.738	0.28
536.187	0.28
536.637	0.28
537.087	0.28
537.537	0.28
537.986	0.28
538.436	0.28
538.885	0.28
539.335	0.28
539.785	0.28
540.234	0.28
540.684	0.28
541.133	0.28
541.582	0.28
542.032	0.28
542.481	0.28
542.931	0.28
543.38	0.28
543.829	0.28
544.278	0.28
544.728	0.28
545.177	0.29
545.626	0.29
546.075	0.29
546.524	0.29
546.973	0.29
547.422	0.29
547.871	0.29
548.32	0.29
548.769	0.29
549.218	0.29
549.667	0.29
550.116	0.29
550.565	0.29
551.014	0.29
551.463	0.29
551.911	0.29
552.36	0.29
552.809	0.29
553.258	0.29
553.706	0.29
554.155	0.29
554.603	0.29
555.052	0.29
555.501	0.29
555.949	0.29
556.398	0.29
556.846	0.29
557.294	0.29
557.743	0.29
558.191	0.29
558.64	0.29
559.088	0.29
559.536	0.29
559.985	0.29
560.433	0.3
560.881	0.3
561.329	0.3
561.777	0.3
562.225	0.3
562.674	0.3
563.122	0.3
563.57	0.3
564.018	0.3
564.466	0.3
564.914	0.3
565.362	0.3
565.809	0.3
566.257	0.3
566.705	0.3
567.153	0.3
567.601	0.3
568.048	0.3
568.496	0.3
568.944	0.3
569.392	0.3
569.839	0.3
570.287	0.3
570.734	0.3
571.182	0.3
571.63	0.3
572.077	0.3
572.525	0.3
572.972	0.29
573.419	0.29
573.867	0.29
574.314	0.29
574.761	0.29
575.209	0.3
575.656	0.3
576.103	0.29
576.551	0.29
576.998	0.29
577.445	0.29
577.892	0.29
578.339	0.29
578.786	0.29
579.233	0.29
579.68	0.29
580.127	0.29
580.574	0.29
581.021	0.29
581.468	0.29
581.915	0.29
582.362	0.29
582.809	0.29
583.255	0.29
583.702	0.29
584.149	0.28
584.596	0.28
585.042	0.28
585.489	0.28
585.936	0.28
586.382	0.28
586.829	0.28
587.275	0.28
587.722	0.28
588.168	0.28
588.615	0.28
589.061	0.28
589.508	0.28
589.954	0.28
590.4	0.28
590.847	0.28
591.293	0.28
591.739	0.28
592.185	0.28
592.632	0.28
593.078	0.28
593.524	0.27
593.97	0.27
594.416	0.27
594.862	0.27
595.308	0.27
595.754	0.27
596.2	0.27
596.646	0.27
597.092	0.27
597.538	0.27
597.984	0.27
598.43	0.27
598.876	0.27
599.321	0.26
599.767	0.26
600.213	0.26
600.659	0.26
601.104	0.26
601.55	0.26
601.995	0.26
602.441	0.26
602.887	0.26
603.332	0.26
603.778	0.26
604.223	0.26
604.668	0.26
605.114	0.26
605.559	0.25
606.005	0.25
606.45	0.25
606.895	0.25
607.341	0.25
607.786	0.25
608.231	0.25
608.676	0.25
609.121	0.25
609.566	0.24
610.012	0.24
610.457	0.24
610.902	0.24
611.347	0.24
611.792	0.24
612.237	0.24
612.682	0.24
613.127	0.24
613.571	0.24
614.016	0.24
614.461	0.24
614.906	0.24
615.351	0.24
615.795	0.24
616.24	0.23
616.685	0.23
617.129	0.23
617.574	0.23
618.019	0.23
618.463	0.23
618.908	0.23
619.352	0.23
619.797	0.23
620.241	0.23
620.686	0.23
621.13	0.23
621.574	0.23
622.019	0.23
622.463	0.22
622.907	0.22
623.352	0.22
623.796	0.22
624.24	0.22
624.684	0.22
625.128	0.22
625.572	0.22
626.016	0.22
626.461	0.22
626.905	0.22
627.349	0.22
627.793	0.22
628.236	0.22
628.68	0.22
629.124	0.22
629.568	0.21
630.012	0.21
630.456	0.21
630.9	0.21
631.343	0.21
631.787	0.21
632.231	0.21
632.674	0.21
633.118	0.21
633.562	0.21
634.005	0.21
634.449	0.21
634.892	0.21
635.336	0.21
635.779	0.21
636.223	0.21
636.666	0.21
637.109	0.21
637.553	0.21
637.996	0.21
638.439	0.21
638.883	0.21
639.326	0.21
639.769	0.21
640.212	0.21
640.655	0.21
641.099	0.21
641.542	0.21
641.985	0.21
642.428	0.21
642.871	0.21
643.314	0.21
643.757	0.21
644.2	0.21
644.643	0.21
645.085	0.21
645.528	0.21
645.971	0.21
646.414	0.21
646.857	0.21
647.299	0.21
647.742	0.21
648.185	0.21
648.627	0.21
649.07	0.21
649.513	0.22
649.955	0.22
650.398	0.22
650.84	0.22
651.283	0.22
651.725	0.22
652.168	0.22
652.61	0.22
653.052	0.22
653.495	0.23
653.937	0.18
654.379	0.14
654.821	0.14
655.264	0.14
655.706	0.14
656.148	0.14
656.59	0.14
657.032	0.15
657.474	0.15
657.916	0.14
658.358	0.13
658.8	0.17
659.242	0.22
659.684	0.23
660.126	0.23
660.568	0.23
661.01	0.24
661.452	0.24
661.894	0.24
662.335	0.24
662.777	0.24
663.219	0.24
663.661	0.24
664.102	0.25
664.544	0.25
664.985	0.25
665.427	0.25
665.869	0.25
666.31	0.25
666.752	0.25
667.193	0.25
667.634	0.26
668.076	0.26
668.517	0.26
668.959	0.26
669.4	0.26
669.841	0.26
670.282	0.27
670.724	0.27
671.165	0.27
671.606	0.27
672.047	0.27
672.488	0.27
672.929	0.27
673.37	0.27
673.811	0.27
674.252	0.27
674.693	0.27
675.134	0.27
675.575	0.28
676.016	0.28
676.457	0.28
676.898	0.28
677.339	0.28
677.78	0.28
678.22	0.28
678.661	0.28
679.102	0.28
679.542	0.28
679.983	0.28
680.424	0.29
680.864	0.29
681.305	0.29
681.745	0.29
682.186	0.29
682.626	0.29
683.067	0.29
683.507	0.29
683.948	0.29
684.388	0.29
684.828	0.29
685.269	0.29
685.709	0.29
686.149	0.29
686.589	0.29
687.029	0.3
687.47	0.3
687.91	0.3
688.35	0.3
688.79	0.3
689.23	0.3
689.67	0.3
690.11	0.3
690.55	0.3
690.99	0.3
691.43	0.3
691.87	0.3
692.31	0.3
692.749	0.3
693.189	0.31
693.629	0.3
694.069	0.3
694.508	0.31
694.948	0.31
695.388	0.31
695.827	0.3
696.267	0.3
696.706	0.3
697.146	0.3
697.586	0.3
698.025	0.3
698.464	0.3
698.904	0.3
699.343	0.3
699.783	0.3
700.222	0.3
700.661	0.31
701.101	0.31
701.54	0.31
701.979	0.31
702.418	0.31
702.857	0.31
703.297	0.31
703.736	0.31
704.175	0.31
704.614	0.31
705.053	0.31
705.492	0.31
705.931	0.31
706.37	0.31
706.809	0.31
707.248	0.31
707.687	0.31
708.125	0.31
708.564	0.31
709.003	0.31
709.442	0.31
709.88	0.31
710.319	0.31
710.758	0.31
711.196	0.31
711.635	0.31
712.074	0.31
712.512	0.31
712.951	0.31
713.389	0.31
713.828	0.31
714.266	0.31
714.705	0.31
715.143	0.31
715.581	0.31
716.02	0.31
716.458	0.32
716.896	0.32
717.334	0.32
717.773	0.31
718.211	0.31
718.649	0.31
719.087	0.31
719.525	0.31
719.963	0.31
720.401	0.31
720.839	0.31
721.277	0.31
721.715	0.31
722.153	0.31
722.591	0.31
723.029	0.31
723.467	0.31
723.905	0.31
724.342	0.31
724.78	0.31
725.218	0.31
725.656	0.31
726.093	0.31
726.531	0.31
726.969	0.31
727.406	0.31
727.844	0.31
728.281	0.31
728.719	0.31
729.156	0.31
729.594	0.31
730.031	0.31
730.469	0.31
730.906	0.31
731.343	0.31
731.781	0.31
732.218	0.31
732.655	0.31
733.092	0.31
733.53	0.31
733.967	0.31
734.404	0.31
734.841	0.31
735.278	0.31
735.715	0.31
736.152	0.31
736.589	0.31
737.026	0.31
737.463	0.31
737.9	0.31
738.337	0.31
738.774	0.31
739.211	0.31
739.647	0.31
740.084	0.31
740.521	0.31
740.958	0.31
741.394	0.31
741.831	0.31
742.268	0.31
742.704	0.31
743.141	0.31
743.577	0.31
744.014	0.31
744.45	0.31
744.887	0.31
745.323	0.3
745.76	0.3
746.196	0.3
746.632	0.3
747.069	0.3
747.505	0.3
747.941	0.3
748.378	0.3
748.814	0.3
749.25	0.3
749.686	0.3
750.122	0.3
750.558	0.3
750.994	0.3
751.43	0.3
751.866	0.3
752.302	0.3
752.738	0.3
753.174	0.3
753.61	0.3
754.046	0.3
754.482	0.3
754.918	0.3
755.354	0.3
755.789	0.3
756.225	0.3
756.661	0.3
757.096	0.3
757.532	0.3
757.968	0.3
758.403	0.3
758.839	0.3
759.274	0.29
759.71	0.29
760.145	0.29
760.581	0.29
761.016	0.29
761.452	0.29
761.887	0.29
762.322	0.29
762.758	0.29
763.193	0.29
763.628	0.29
764.063	0.29
764.499	0.29
764.934	0.29
765.369	0.29
765.804	0.29
766.239	0.29
766.674	0.29
767.109	0.29
767.544	0.29
767.979	0.29
768.414	0.29
768.849	0.29
769.284	0.29
769.719	0.29
770.154	0.29
770.588	0.28
771.023	0.28
771.458	0.28
771.893	0.28
772.327	0.28
772.762	0.29
773.197	0.29
773.631	0.28
774.066	0.28
774.5	0.29
774.935	0.29
775.369	0.28
775.804	0.28
776.238	0.28
776.673	0.28
777.107	0.28
777.541	0.28
777.976	0.28
778.41	0.28
778.844	0.28
779.279	0.28
779.713	0.28
780.147	0.28
780.581	0.28
781.015	0.27
781.449	0.27
781.883	0.27
782.317	0.27
782.751	0.27
783.185	0.27
783.619	0.27
784.053	0.27
784.487	0.27
784.921	0.27
785.355	0.27
785.789	0.27
786.223	0.27
786.656	0.27
787.09	0.27
787.524	0.27
787.957	0.27
788.391	0.26
788.825	0.26
789.258	0.26
789.692	0.26
790.125	0.26
790.559	0.26
790.992	0.26
791.426	0.26
791.859	0.26
792.293	0.26
792.726	0.26
793.159	0.26
793.593	0.26
794.026	0.26
794.459	0.26
794.892	0.26
795.326	0.26
795.759	0.26
796.192	0.26
796.625	0.26
797.058	0.26
797.491	0.26
797.924	0.26
798.357	0.26
798.79	0.26
799.223	0.25
799.656	0.25
800.089	0.25
800.522	0.25
800.955	0.25
801.387	0.25
801.82	0.25
802.253	0.25
802.686	0.25
803.118	0.25
803.551	0.25
803.984	0.25
804.416	0.25
804.849	0.25
805.281	0.25
805.714	0.25
806.146	0.25
806.579	0.25
807.011	0.24
807.444	0.24
807.876	0.24
808.308	0.24
808.741	0.24
809.173	0.24
809.605	0.24
810.037	0.24
810.47	0.24
810.902	0.24
811.334	0.24
811.766	0.24
812.198	0.24
812.63	0.24
813.062	0.24
813.494	0.24
813.926	0.24
814.358	0.24
814.79	0.24
815.222	0.23
815.654	0.23
816.086	0.23
816.518	0.23
816.949	0.23
817.381	0.23
817.813	0.23
818.245	0.23
818.676	0.23
819.108	0.23
819.54	0.23
819.971	0.23
820.403	0.23
820.834	0.23
821.266	0.23
821.697	0.22
822.129	0.23
822.56	0.23
822.991	0.22
823.423	0.23
823.854	0.23
824.286	0.23
824.717	0.23
825.148	0.23
825.579	0.23
826.01	0.23
826.442	0.23
826.873	0.23
827.304	0.23
827.735	0.23
828.166	0.23
828.597	0.23
829.028	0.23
829.459	0.22
829.89	0.22
830.321	0.22
830.752	0.22
831.183	0.22
831.613	0.22
832.044	0.22
832.475	0.22
832.906	0.22
833.336	0.22
833.767	0.22
834.198	0.21
834.628	0.21
835.059	0.21
835.49	0.21
835.92	0.21
836.351	0.21
836.781	0.21
837.212	0.21
837.642	0.21
838.072	0.21
838.503	0.2
838.933	0.2
839.364	0.2
839.794	0.2
840.224	0.2
840.654	0.2
841.085	0.2
841.515	0.2
841.945	0.2
842.375	0.2
842.805	0.2
843.235	0.2
843.665	0.2
844.095	0.2
844.525	0.2
844.955	0.2
845.385	0.2
845.815	0.2
846.245	0.2
846.675	0.2
847.105	0.2
847.534	0.2
847.964	0.2
848.394	0.2
848.824	0.2
849.253	0.2
849.683	0.2
850.112	0.19
850.542	0.2
850.972	0.2
851.401	0.2
851.831	0.19
852.26	0.19
852.69	0.19
853.119	0.19
853.548	0.19
853.978	0.19
854.407	0.19
854.836	0.19
855.266	0.19
855.695	0.19
856.124	0.19
856.553	0.19
856.983	0.19
857.412	0.19
857.841	0.19
858.27	0.19
858.699	0.19
859.128	0.19
859.557	0.19
859.986	0.19
860.415	0.19
860.844	0.19
861.273	0.19
861.702	0.19
862.13	0.19
862.559	0.19
862.988	0.19
863.417	0.19
863.845	0.18
864.274	0.18
864.703	0.18
865.131	0.18
865.56	0.18
865.989	0.18
866.417	0.18
866.846	0.18
867.274	0.18
867.703	0.18
868.131	0.18
868.559	0.18
868.988	0.18
869.416	0.18
869.844	0.18
870.273	0.18
870.701	0.17
871.129	0.17
871.557	0.17
871.986	0.17
872.414	0.17
872.842	0.17
873.27	0.17
873.698	0.17
874.126	0.17
874.554	0.17
874.982	0.17
875.41	0.17
875.838	0.17
876.266	0.17
876.694	0.17
877.122	0.17
877.549	0.17
877.977	0.17
878.405	0.17
878.833	0.17
879.26	0.17
879.688	0.17
880.116	0.17
880.543	0.17
880.971	0.17
881.399	0.16
881.826	0.16
882.254	0.16
882.681	0.16
883.109	0.16
883.536	0.16
883.963	0.16
884.391	0.16
884.818	0.16
885.245	0.16
885.673	0.16
886.1	0.16
886.527	0.16
886.954	0.16
887.381	0.16
887.809	0.16
888.236	0.16
888.663	0.16
889.09	0.16
889.517	0.16
889.944	0.16
890.371	0.16
890.798	0.16
891.225	0.16
891.652	0.16
892.078	0.16
892.505	0.16
892.932	0.16
893.359	0.16
893.786	0.16
894.212	0.16
894.639	0.16
895.066	0.16
895.492	0.16
895.919	0.16
896.346	0.16
896.772	0.16
897.199	0.15
897.625	0.15
898.052	0.15
898.478	0.15
898.904	0.15
899.331	0.15
899.757	0.15
900.183	0.15
900.61	0.15
901.036	0.15
901.462	0.15
901.888	0.15
902.315	0.15
902.741	0.15
903.167	0.15
903.593	0.15
904.019	0.15
904.445	0.15
904.871	0.15
905.297	0.15
905.723	0.15
906.149	0.14
906.575	0.14
907.001	0.14
907.427	0.14
907.852	0.14
908.278	0.14
908.704	0.14
909.13	0.14
909.555	0.14
909.981	0.14
910.407	0.14
910.832	0.14
911.258	0.14
911.684	0.14
912.109	0.14
912.535	0.14
912.96	0.14
913.386	0.14
913.811	0.14
914.236	0.14
914.662	0.14
915.087	0.14
915.512	0.14
915.938	0.14
916.363	0.14
916.788	0.14
917.213	0.15
917.639	0.15
918.064	0.15
918.489	0.15
918.914	0.15
919.339	0.15
919.764	0.15
920.189	0.15
920.614	0.14
921.039	0.14
921.464	0.14
921.889	0.14
922.314	0.14
922.738	0.13
923.163	0.13
923.588	0.13
924.013	0.13
924.437	0.13
924.862	0.13
925.287	0.13
925.711	0.13
926.136	0.13
926.561	0.13
926.985	0.13
927.41	0.13
927.834	0.13
928.259	0.13
928.683	0.13
929.108	0.13
929.532	0.13
929.956	0.13
930.381	0.13
930.805	0.13
931.229	0.13
931.653	0.13
932.078	0.12
932.502	0.12
932.926	0.12
933.35	0.12
933.774	0.12
934.198	0.12
934.622	0.12
935.046	0.12
935.47	0.12
935.894	0.12
936.318	0.12
936.742	0.12
937.166	0.12
937.59	0.12
938.014	0.12
938.437	0.12
938.861	0.12
939.285	0.12
939.709	0.12
940.132	0.12
940.556	0.12
940.98	0.12
941.403	0.12
941.827	0.12
942.25	0.12
942.674	0.12
943.097	0.12
943.521	0.12
943.944	0.12
944.368	0.12
944.791	0.12
945.214	0.12
945.638	0.11
946.061	0.11
946.484	0.11
946.907	0.11
947.331	0.11
947.754	0.11
948.177	0.11
948.6	0.11
949.023	0.11
949.446	0.11
949.869	0.11
950.292	0.11
950.715	0.11
951.138	0.11
951.561	0.11
951.984	0.11
952.407	0.11
952.83	0.11
953.252	0.11
953.675	0.11
954.098	0.11
954.521	0.11
954.943	0.11
955.366	0.11
955.789	0.11
956.211	0.11
956.634	0.11
957.056	0.11
957.479	0.11
957.902	0.11
958.324	0.11
958.746	0.11
959.169	0.11
959.591	0.11
960.014	0.11
960.436	0.11
960.858	0.11
961.281	0.11
961.703	0.11
962.125	0.11
962.547	0.11
962.969	0.11
963.391	0.11
963.814	0.11
964.236	0.11
964.658	0.11
965.08	0.11
965.502	0.11
965.924	0.11
966.346	0.11
966.768	0.11
967.189	0.11
967.611	0.11
968.033	0.11
968.455	0.11
968.877	0.11
969.298	0.11
969.72	0.11
970.142	0.11
970.563	0.11
970.985	0.11
971.407	0.1
971.828	0.1
972.25	0.1
972.671	0.1
973.093	0.1
973.514	0.1
973.936	0.1
974.357	0.1
974.778	0.1
975.2	0.1
975.621	0.1
976.042	0.1
976.464	0.1
976.885	0.1
977.306	0.1
977.727	0.1
978.148	0.1
978.57	0.1
978.991	0.1
979.412	0.1
979.833	0.1
980.254	0.1
980.675	0.1
981.096	0.1
981.517	0.1
981.937	0.1
982.358	0.1
982.779	0.1
983.2	0.1
983.621	0.1
984.042	0.1
984.462	0.1
984.883	0.1
985.304	0.1
985.724	0.1
986.145	0.1
986.565	0.1
986.986	0.1
987.407	0.1
987.827	0.1
988.248	0.1
988.668	0.09
989.088	0.09
989.509	0.09
989.929	0.09
990.35	0.09
990.77	0.09
991.19	0.09
991.61	0.09
992.031	0.09
992.451	0.09
992.871	0.09
993.291	0.09
993.711	0.09
994.131	0.09
994.551	0.09
994.971	0.09
995.391	0.09
995.811	0.09
996.231	0.09
996.651	0.09
997.071	0.09
997.491	0.09
997.911	0.09
998.331	0.09
998.75	0.09
999.17	0.09
999.59	0.09
1000.009	0.09
1000.429	0.09
1000.849	0.09
1001.268	0.09
1001.688	0.09
1002.107	0.09
1002.527	0.09
1002.946	0.09
1003.366	0.09
1003.785	0.09
1004.205	0.09
1004.624	0.09
1005.044	0.09
1005.463	0.09
1005.882	0.09
1006.301	0.09
1006.721	0.09
1007.14	0.09
1007.559	0.09
1007.978	0.09
1008.397	0.09
1008.816	0.09
1009.235	0.09
1009.655	0.09
1010.074	0.09
1010.492	0.09
1010.911	0.09
1011.33	0.09
1011.749	0.09
1012.168	0.09
1012.587	0.09
1013.006	0.08
1013.425	0.08
1013.843	0.08
1014.262	0.08
1014.681	0.08
1015.099	0.08
1015.518	0.08
1015.937	0.08
1016.355	0.08
1016.774	0.08
1017.192	0.08
1017.611	0.08
1018.029	0.08
1018.448	0.08
1018.866	0.08
1019.285	0.08
1019.703	0.08
1020.121	0.08
1020.54	0.08
1020.958	0.08
1021.376	0.08
1021.794	0.08
1022.213	0.08
1022.631	0.08
1023.049	0.08
1023.467	0.08
1023.885	0.08
1024.303	0.08
1024.721	0.08
1025.139	0.08
1025.557	0.08
1025.975	0.08
1026.393	0.08
1026.811	0.07
1027.229	0.07
1027.647	0.07
1028.065	0.07
1028.482	0.07
1028.9	0.08
1029.318	0.08
1029.735	0.08
1030.153	0.08
1030.571	0.08
1030.988	0.08
1031.406	0.08
1031.823	0.08
1032.241	0.08
1032.659	0.08
1033.076	0.07
1033.493	0.07
1033.911	0.07
1034.328	0.07
1034.746	0.07
1035.163	0.07
1035.58	0.07
1035.997	0.07
1036.415	0.07
1036.832	0.07
1037.249	0.07
1037.666	0.07
1038.083	0.07
1038.501	0.06
1038.918	0.06
1039.335	0.06
1039.752	0.06
1040.169	0.06
1040.586	0.06
1041.003	0.06
1041.419	0.06
1041.836	0.06
1042.253	0.06
1042.67	0.06
1043.087	0.06
1043.504	0.06
1043.92	0.06
1044.337	0.06
1044.754	0.06
1045.17	0.06
1045.587	0.06
1046.004	0.06
1046.42	0.06
1046.837	0.06
1047.253	0.06
1047.67	0.06
1048.086	0.06
1048.503	0.06
1048.919	0.06
1049.335	0.05
1049.752	0.05
1050.168	0.05
1050.584	0.05
1051.001	0.05
1051.417	0.05
1051.833	0.05
1052.249	0.05
1052.665	0.05
1053.081	0.05
1053.497	0.05
1053.914	0.05
1054.33	0.05
1054.746	0.05
1055.162	0.05
1055.578	0.05
1055.993	0.05
1056.409	0.05
1056.825	0.04
1057.241	0.04
1057.657	0.04
1058.073	0.04
1058.488	0.04
1058.904	0.04
1059.32	0.04
1059.736	0.04
1060.151	0.04
1060.567	0.04
1060.982	0.04
1061.398	0.04
1061.813	0.04
1062.229	0.04
1062.644	0.04
1063.06	0.04
1063.475	0.04
1063.891	0.04
1064.306	0.04
1064.721	0.04
1065.137	0.04
1065.552	0.04
1065.967	0.04
1066.382	0.04
1066.798	0.04
1067.213	0.04
1067.628	0.04
1068.043	0.04
1068.458	0.04
1068.873	0.04
1069.288	0.04
1069.703	0.04
1070.118	0.04
1070.533	0.03
1070.948	0.03
1071.363	0.03
1071.778	0.03
1072.193	0.03
1072.607	0.03
1073.022	0.03
1073.437	0.03
1073.852	0.03
1074.266	0.03
1074.681	0.03
1075.096	0.03
1075.51	0.03
1075.925	0.03
1076.339	0.03
1076.754	0.03
1077.168	0.03
1077.583	0.03
1077.997	0.03
1078.412	0.03
1078.826	0.03
1079.24	0.03
1079.655	0.03
1080.069	0.03
1080.483	0.03
1080.897	0.03
1081.312	0.03
1081.726	0.03
1082.14	0.02
1082.554	0.02
1082.968	0.02
1083.382	0.02
1083.796	0.02
1084.21	0.02
1084.624	0.02
1085.038	0.03
1085.452	0.03
1085.866	0.03
1086.28	0.02
1086.694	0.03
1087.108	0.03
1087.521	0.03
1087.935	0.02
1088.349	0.02
1088.763	0.02
1089.176	0.02
1089.59	0.02
1090.004	0.02
1090.417	0.02
1090.831	0.02
1091.244	0.02
1091.658	0.02
1092.071	0.01
1092.485	0.01
1092.898	0.01
1093.312	0.01
1093.725	0.01
1094.138	0.01
1094.552	0.01
1094.965	0.01
1095.378	0.01
1095.791	0.01
1096.205	0
1096.618	0
1097.031	0
1097.444	0
1097.857	-0
1098.27	-0
1098.683	-0
1099.096	-0
1099.509	-0.01
1099.922	-0.01
1100.335	-0.01
1100.748	-0.01
1101.161	-0.01
1101.574	-0.02
1101.986	-0.02
1102.399	-0.02
1102.812	-0.02
1103.225	-0.02
1103.637	-0.03
1104.05	-0.03
1104.463	-0.03
1104.875	-0.03
1105.288	-0.03
1105.7	-0.04
1106.113	-0.04
1106.525	-0.04
1106.938	-0.05
1107.35	-0.05
1107.763	-0.05
1108.175	-0.05
1108.588	-0.05
1109	-0.06
1109.412	-0.06
1109.824	-0.07
1110.237	-0.07
1110.649	-0.08
1111.061	-0.07
