Data from agg-9_Absorbance__0__14-39-34-712.txt Node

Date: Thu Feb 22 14:39:34 CET 2024
User: Laser008
Spectrometer: MAYP115816
Trigger mode: 0
Integration Time (sec): 1.800000E-1
Scans to average: 10
Electric dark correction enabled: true
Nonlinearity correction enabled: true
Boxcar width: 5
XAxis mode: Wavelengths
Number of Pixels in Spectrum: 2068
>>>>>Begin Spectral Data<<<<<
198.914	-0.5
199.384	-0.47
199.855	-0.41
200.325	-0.34
200.796	-0.3
201.266	-0.27
201.737	-0.25
202.207	-0.25
202.677	-0.24
203.147	-0.23
203.618	-0.22
204.088	-0.2
204.558	-0.18
205.028	-0.17
205.498	-0.18
205.968	-0.18
206.439	-0.19
206.909	-0.19
207.379	-0.19
207.849	-0.18
208.319	-0.19
208.789	-0.18
209.258	-0.19
209.728	-0.19
210.198	-0.19
210.668	-0.19
211.138	-0.19
211.608	-0.19
212.077	-0.19
212.547	-0.19
213.017	-0.19
213.486	-0.2
213.956	-0.2
214.426	-0.2
214.895	-0.2
215.365	-0.2
215.834	-0.2
216.304	-0.21
216.773	-0.2
217.243	-0.21
217.712	-0.21
218.181	-0.21
218.651	-0.2
219.12	-0.2
219.589	-0.2
220.058	-0.21
220.528	-0.21
220.997	-0.21
221.466	-0.2
221.935	-0.2
222.404	-0.2
222.873	-0.19
223.342	-0.19
223.812	-0.19
224.281	-0.19
224.749	-0.18
225.218	-0.17
225.687	-0.17
226.156	-0.16
226.625	-0.15
227.094	-0.15
227.563	-0.13
228.031	-0.12
228.5	-0.11
228.969	-0.09
229.438	-0.08
229.906	-0.06
230.375	-0.03
230.844	-0.01
231.312	0.01
231.781	0.03
232.249	0.06
232.718	0.08
233.186	0.11
233.655	0.13
234.123	0.15
234.591	0.17
235.06	0.18
235.528	0.2
235.996	0.21
236.465	0.22
236.933	0.24
237.401	0.25
237.869	0.25
238.337	0.26
238.805	0.27
239.274	0.28
239.742	0.28
240.21	0.29
240.678	0.29
241.146	0.3
241.614	0.3
242.081	0.3
242.549	0.31
243.017	0.31
243.485	0.31
243.953	0.31
244.421	0.32
244.888	0.32
245.356	0.32
245.824	0.32
246.291	0.32
246.759	0.33
247.227	0.33
247.694	0.33
248.162	0.33
248.629	0.33
249.097	0.34
249.564	0.34
250.032	0.34
250.499	0.34
250.967	0.34
251.434	0.35
251.901	0.35
252.369	0.35
252.836	0.35
253.303	0.35
253.77	0.35
254.237	0.36
254.705	0.36
255.172	0.36
255.639	0.36
256.106	0.36
256.573	0.36
257.04	0.36
257.507	0.36
257.974	0.36
258.441	0.37
258.908	0.37
259.375	0.37
259.841	0.37
260.308	0.37
260.775	0.37
261.242	0.37
261.709	0.37
262.175	0.37
262.642	0.37
263.109	0.37
263.575	0.37
264.042	0.37
264.508	0.37
264.975	0.37
265.441	0.36
265.908	0.36
266.374	0.36
266.841	0.36
267.307	0.36
267.773	0.36
268.24	0.36
268.706	0.36
269.172	0.35
269.639	0.35
270.105	0.35
270.571	0.35
271.037	0.35
271.503	0.35
271.969	0.34
272.435	0.34
272.902	0.34
273.368	0.34
273.834	0.34
274.3	0.34
274.765	0.34
275.231	0.33
275.697	0.33
276.163	0.33
276.629	0.33
277.095	0.33
277.56	0.32
278.026	0.32
278.492	0.32
278.958	0.32
279.423	0.31
279.889	0.31
280.354	0.31
280.82	0.31
281.286	0.3
281.751	0.3
282.217	0.3
282.682	0.3
283.147	0.3
283.613	0.29
284.078	0.29
284.544	0.29
285.009	0.29
285.474	0.29
285.939	0.29
286.405	0.29
286.87	0.29
287.335	0.28
287.8	0.28
288.265	0.28
288.73	0.28
289.195	0.28
289.66	0.28
290.125	0.28
290.59	0.27
291.055	0.27
291.52	0.27
291.985	0.27
292.45	0.27
292.915	0.27
293.38	0.27
293.844	0.27
294.309	0.27
294.774	0.27
295.239	0.27
295.703	0.27
296.168	0.26
296.632	0.26
297.097	0.26
297.562	0.26
298.026	0.26
298.491	0.26
298.955	0.26
299.419	0.26
299.884	0.26
300.348	0.26
300.813	0.26
301.277	0.26
301.741	0.26
302.205	0.26
302.67	0.26
303.134	0.26
303.598	0.26
304.062	0.26
304.526	0.26
304.99	0.26
305.454	0.26
305.919	0.26
306.383	0.26
306.847	0.26
307.31	0.26
307.774	0.26
308.238	0.26
308.702	0.26
309.166	0.26
309.63	0.26
310.094	0.26
310.557	0.26
311.021	0.26
311.485	0.26
311.948	0.26
312.412	0.26
312.876	0.26
313.339	0.26
313.803	0.25
314.266	0.25
314.73	0.25
315.193	0.25
315.657	0.25
316.12	0.25
316.584	0.25
317.047	0.25
317.51	0.25
317.973	0.25
318.437	0.25
318.9	0.25
319.363	0.25
319.826	0.25
320.29	0.25
320.753	0.25
321.216	0.25
321.679	0.25
322.142	0.25
322.605	0.25
323.068	0.25
323.531	0.25
323.994	0.25
324.457	0.25
324.92	0.25
325.382	0.25
325.845	0.25
326.308	0.25
326.771	0.25
327.233	0.25
327.696	0.25
328.159	0.25
328.622	0.25
329.084	0.25
329.547	0.25
330.009	0.25
330.472	0.25
330.934	0.25
331.397	0.25
331.859	0.25
332.322	0.25
332.784	0.25
333.246	0.25
333.709	0.24
334.171	0.24
334.633	0.24
335.096	0.24
335.558	0.24
336.02	0.24
336.482	0.24
336.944	0.24
337.406	0.24
337.868	0.24
338.331	0.24
338.793	0.24
339.255	0.24
339.717	0.24
340.178	0.24
340.64	0.24
341.102	0.24
341.564	0.24
342.026	0.24
342.488	0.24
342.949	0.24
343.411	0.24
343.873	0.24
344.335	0.24
344.796	0.24
345.258	0.24
345.719	0.24
346.181	0.24
346.643	0.24
347.104	0.24
347.566	0.24
348.027	0.24
348.488	0.24
348.95	0.24
349.411	0.24
349.873	0.24
350.334	0.24
350.795	0.24
351.256	0.24
351.718	0.24
352.179	0.24
352.64	0.24
353.101	0.24
353.562	0.24
354.023	0.24
354.484	0.24
354.945	0.24
355.406	0.24
355.867	0.24
356.328	0.23
356.789	0.23
357.25	0.23
357.711	0.23
358.172	0.23
358.633	0.23
359.093	0.23
359.554	0.23
360.015	0.23
360.476	0.23
360.936	0.23
361.397	0.23
361.858	0.23
362.318	0.23
362.779	0.23
363.239	0.23
363.7	0.23
364.16	0.23
364.621	0.23
365.081	0.23
365.541	0.23
366.002	0.23
366.462	0.24
366.922	0.24
367.383	0.23
367.843	0.23
368.303	0.23
368.763	0.23
369.223	0.23
369.684	0.23
370.144	0.23
370.604	0.23
371.064	0.23
371.524	0.23
371.984	0.23
372.444	0.23
372.904	0.23
373.363	0.23
373.823	0.23
374.283	0.23
374.743	0.23
375.203	0.23
375.663	0.23
376.122	0.23
376.582	0.23
377.042	0.23
377.501	0.23
377.961	0.23
378.42	0.23
378.88	0.23
379.34	0.23
379.799	0.23
380.259	0.23
380.718	0.23
381.177	0.23
381.637	0.23
382.096	0.23
382.555	0.23
383.015	0.23
383.474	0.23
383.933	0.23
384.393	0.23
384.852	0.23
385.311	0.23
385.77	0.23
386.229	0.23
386.688	0.23
387.147	0.23
387.606	0.23
388.065	0.23
388.524	0.23
388.983	0.23
389.442	0.23
389.901	0.23
390.36	0.23
390.819	0.23
391.277	0.23
391.736	0.23
392.195	0.23
392.654	0.23
393.112	0.23
393.571	0.23
394.03	0.23
394.488	0.23
394.947	0.23
395.405	0.23
395.864	0.23
396.322	0.23
396.781	0.23
397.239	0.23
397.698	0.23
398.156	0.23
398.614	0.23
399.073	0.23
399.531	0.23
399.989	0.23
400.447	0.23
400.905	0.23
401.364	0.23
401.822	0.23
402.28	0.23
402.738	0.23
403.196	0.23
403.654	0.23
404.112	0.23
404.57	0.23
405.028	0.23
405.486	0.23
405.944	0.23
406.402	0.23
406.859	0.23
407.317	0.23
407.775	0.23
408.233	0.23
408.691	0.23
409.148	0.23
409.606	0.23
410.064	0.23
410.521	0.23
410.979	0.23
411.436	0.23
411.894	0.23
412.351	0.23
412.809	0.23
413.266	0.23
413.724	0.23
414.181	0.23
414.638	0.23
415.096	0.23
415.553	0.23
416.01	0.23
416.467	0.23
416.925	0.23
417.382	0.23
417.839	0.23
418.296	0.23
418.753	0.23
419.21	0.23
419.667	0.23
420.124	0.23
420.581	0.23
421.038	0.23
421.495	0.23
421.952	0.23
422.409	0.23
422.866	0.23
423.322	0.23
423.779	0.23
424.236	0.23
424.693	0.23
425.149	0.23
425.606	0.23
426.063	0.23
426.519	0.23
426.976	0.23
427.433	0.23
427.889	0.23
428.346	0.23
428.802	0.23
429.258	0.23
429.715	0.23
430.171	0.23
430.628	0.23
431.084	0.23
431.54	0.23
431.997	0.23
432.453	0.23
432.909	0.23
433.365	0.23
433.821	0.23
434.277	0.23
434.734	0.23
435.19	0.23
435.646	0.23
436.102	0.23
436.558	0.23
437.014	0.23
437.47	0.23
437.925	0.23
438.381	0.23
438.837	0.23
439.293	0.23
439.749	0.23
440.205	0.23
440.66	0.23
441.116	0.23
441.572	0.23
442.027	0.23
442.483	0.23
442.939	0.23
443.394	0.23
443.85	0.23
444.305	0.23
444.761	0.23
445.216	0.23
445.672	0.23
446.127	0.23
446.582	0.23
447.038	0.23
447.493	0.23
447.948	0.23
448.403	0.22
448.859	0.22
449.314	0.22
449.769	0.22
450.224	0.22
450.679	0.22
451.134	0.22
451.589	0.22
452.044	0.22
452.499	0.22
452.954	0.22
453.409	0.22
453.864	0.22
454.319	0.22
454.774	0.22
455.229	0.22
455.684	0.22
456.138	0.22
456.593	0.22
457.048	0.22
457.503	0.22
457.957	0.22
458.412	0.22
458.866	0.22
459.321	0.22
459.776	0.22
460.23	0.22
460.685	0.22
461.139	0.22
461.593	0.22
462.048	0.22
462.502	0.22
462.957	0.22
463.411	0.22
463.865	0.22
464.319	0.22
464.774	0.22
465.228	0.22
465.682	0.22
466.136	0.22
466.59	0.22
467.044	0.22
467.499	0.22
467.953	0.22
468.407	0.22
468.861	0.22
469.315	0.22
469.768	0.22
470.222	0.22
470.676	0.22
471.13	0.22
471.584	0.22
472.038	0.22
472.491	0.22
472.945	0.22
473.399	0.22
473.852	0.22
474.306	0.22
474.76	0.22
475.213	0.22
475.667	0.22
476.12	0.22
476.574	0.22
477.027	0.22
477.481	0.22
477.934	0.22
478.388	0.22
478.841	0.22
479.294	0.22
479.748	0.22
480.201	0.22
480.654	0.22
481.107	0.22
481.561	0.22
482.014	0.22
482.467	0.22
482.92	0.23
483.373	0.23
483.826	0.23
484.279	0.23
484.732	0.23
485.185	0.23
485.638	0.23
486.091	0.23
486.544	0.23
486.997	0.23
487.449	0.23
487.902	0.23
488.355	0.23
488.808	0.23
489.26	0.23
489.713	0.23
490.166	0.23
490.618	0.23
491.071	0.23
491.523	0.23
491.976	0.23
492.429	0.23
492.881	0.23
493.333	0.23
493.786	0.23
494.238	0.24
494.691	0.24
495.143	0.24
495.595	0.24
496.048	0.24
496.5	0.24
496.952	0.24
497.404	0.24
497.856	0.24
498.309	0.24
498.761	0.24
499.213	0.24
499.665	0.24
500.117	0.24
500.569	0.24
501.021	0.25
501.473	0.25
501.925	0.25
502.377	0.25
502.828	0.25
503.28	0.25
503.732	0.25
504.184	0.25
504.636	0.25
505.087	0.25
505.539	0.25
505.991	0.25
506.442	0.25
506.894	0.26
507.345	0.26
507.797	0.26
508.249	0.26
508.7	0.26
509.151	0.26
509.603	0.26
510.054	0.26
510.506	0.26
510.957	0.26
511.408	0.26
511.86	0.27
512.311	0.27
512.762	0.27
513.213	0.27
513.665	0.27
514.116	0.27
514.567	0.27
515.018	0.27
515.469	0.27
515.92	0.27
516.371	0.27
516.822	0.27
517.273	0.27
517.724	0.27
518.175	0.28
518.626	0.28
519.076	0.28
519.527	0.28
519.978	0.28
520.429	0.28
520.88	0.28
521.33	0.28
521.781	0.28
522.232	0.28
522.682	0.28
523.133	0.28
523.583	0.28
524.034	0.29
524.484	0.29
524.935	0.29
525.385	0.29
525.836	0.29
526.286	0.29
526.736	0.29
527.187	0.29
527.637	0.29
528.087	0.29
528.538	0.29
528.988	0.29
529.438	0.29
529.888	0.29
530.338	0.29
530.788	0.29
531.238	0.29
531.688	0.3
532.139	0.3
532.589	0.3
533.038	0.3
533.488	0.3
533.938	0.3
534.388	0.3
534.838	0.3
535.288	0.3
535.738	0.3
536.187	0.3
536.637	0.3
537.087	0.3
537.537	0.3
537.986	0.3
538.436	0.3
538.885	0.3
539.335	0.3
539.785	0.3
540.234	0.3
540.684	0.3
541.133	0.3
541.582	0.31
542.032	0.31
542.481	0.31
542.931	0.31
543.38	0.31
543.829	0.31
544.278	0.31
544.728	0.31
545.177	0.31
545.626	0.31
546.075	0.31
546.524	0.31
546.973	0.31
547.422	0.31
547.871	0.31
548.32	0.31
548.769	0.31
549.218	0.31
549.667	0.31
550.116	0.31
550.565	0.31
551.014	0.31
551.463	0.31
551.911	0.31
552.36	0.32
552.809	0.32
553.258	0.32
553.706	0.32
554.155	0.32
554.603	0.32
555.052	0.32
555.501	0.32
555.949	0.32
556.398	0.32
556.846	0.32
557.294	0.32
557.743	0.32
558.191	0.32
558.64	0.32
559.088	0.32
559.536	0.32
559.985	0.32
560.433	0.32
560.881	0.32
561.329	0.32
561.777	0.32
562.225	0.32
562.674	0.32
563.122	0.32
563.57	0.32
564.018	0.32
564.466	0.32
564.914	0.32
565.362	0.32
565.809	0.32
566.257	0.32
566.705	0.32
567.153	0.32
567.601	0.32
568.048	0.32
568.496	0.32
568.944	0.32
569.392	0.32
569.839	0.32
570.287	0.32
570.734	0.32
571.182	0.32
571.63	0.32
572.077	0.32
572.525	0.32
572.972	0.32
573.419	0.32
573.867	0.32
574.314	0.32
574.761	0.32
575.209	0.32
575.656	0.32
576.103	0.32
576.551	0.32
576.998	0.32
577.445	0.32
577.892	0.32
578.339	0.32
578.786	0.32
579.233	0.32
579.68	0.32
580.127	0.32
580.574	0.31
581.021	0.31
581.468	0.31
581.915	0.31
582.362	0.31
582.809	0.31
583.255	0.31
583.702	0.31
584.149	0.31
584.596	0.31
585.042	0.31
585.489	0.31
585.936	0.31
586.382	0.31
586.829	0.31
587.275	0.31
587.722	0.3
588.168	0.3
588.615	0.3
589.061	0.3
589.508	0.3
589.954	0.3
590.4	0.3
590.847	0.3
591.293	0.3
591.739	0.3
592.185	0.3
592.632	0.3
593.078	0.3
593.524	0.3
593.97	0.3
594.416	0.3
594.862	0.3
595.308	0.3
595.754	0.29
596.2	0.29
596.646	0.3
597.092	0.29
597.538	0.29
597.984	0.29
598.43	0.29
598.876	0.29
599.321	0.29
599.767	0.29
600.213	0.29
600.659	0.29
601.104	0.29
601.55	0.28
601.995	0.28
602.441	0.28
602.887	0.28
603.332	0.28
603.778	0.28
604.223	0.28
604.668	0.28
605.114	0.28
605.559	0.28
606.005	0.28
606.45	0.28
606.895	0.28
607.341	0.27
607.786	0.27
608.231	0.27
608.676	0.27
609.121	0.27
609.566	0.27
610.012	0.27
610.457	0.27
610.902	0.27
611.347	0.27
611.792	0.27
612.237	0.27
612.682	0.27
613.127	0.27
613.571	0.26
614.016	0.26
614.461	0.26
614.906	0.26
615.351	0.26
615.795	0.26
616.24	0.26
616.685	0.26
617.129	0.25
617.574	0.25
618.019	0.25
618.463	0.25
618.908	0.25
619.352	0.25
619.797	0.25
620.241	0.25
620.686	0.25
621.13	0.25
621.574	0.25
622.019	0.25
622.463	0.24
622.907	0.24
623.352	0.24
623.796	0.24
624.24	0.24
624.684	0.24
625.128	0.24
625.572	0.24
626.016	0.24
626.461	0.24
626.905	0.24
627.349	0.24
627.793	0.24
628.236	0.24
628.68	0.24
629.124	0.24
629.568	0.23
630.012	0.23
630.456	0.23
630.9	0.23
631.343	0.23
631.787	0.23
632.231	0.23
632.674	0.23
633.118	0.23
633.562	0.23
634.005	0.23
634.449	0.23
634.892	0.23
635.336	0.23
635.779	0.23
636.223	0.23
636.666	0.23
637.109	0.23
637.553	0.23
637.996	0.23
638.439	0.23
638.883	0.23
639.326	0.23
639.769	0.23
640.212	0.23
640.655	0.23
641.099	0.23
641.542	0.23
641.985	0.23
642.428	0.23
642.871	0.23
643.314	0.23
643.757	0.23
644.2	0.23
644.643	0.23
645.085	0.23
645.528	0.23
645.971	0.23
646.414	0.23
646.857	0.23
647.299	0.23
647.742	0.23
648.185	0.23
648.627	0.23
649.07	0.23
649.513	0.23
649.955	0.23
650.398	0.23
650.84	0.24
651.283	0.24
651.725	0.24
652.168	0.24
652.61	0.24
653.052	0.24
653.495	0.25
653.937	0.19
654.379	0.15
654.821	0.15
655.264	0.15
655.706	0.16
656.148	0.16
656.59	0.16
657.032	0.16
657.474	0.16
657.916	0.15
658.358	0.15
658.8	0.19
659.242	0.25
659.684	0.25
660.126	0.25
660.568	0.25
661.01	0.26
661.452	0.26
661.894	0.26
662.335	0.26
662.777	0.26
663.219	0.26
663.661	0.26
664.102	0.26
664.544	0.26
664.985	0.26
665.427	0.26
665.869	0.27
666.31	0.27
666.752	0.27
667.193	0.27
667.634	0.27
668.076	0.27
668.517	0.27
668.959	0.28
669.4	0.28
669.841	0.28
670.282	0.28
670.724	0.28
671.165	0.28
671.606	0.28
672.047	0.28
672.488	0.28
672.929	0.29
673.37	0.29
673.811	0.29
674.252	0.29
674.693	0.29
675.134	0.29
675.575	0.29
676.016	0.29
676.457	0.29
676.898	0.29
677.339	0.29
677.78	0.29
678.22	0.29
678.661	0.3
679.102	0.3
679.542	0.3
679.983	0.3
680.424	0.3
680.864	0.3
681.305	0.3
681.745	0.3
682.186	0.3
682.626	0.3
683.067	0.3
683.507	0.31
683.948	0.31
684.388	0.31
684.828	0.31
685.269	0.31
685.709	0.31
686.149	0.31
686.589	0.31
687.029	0.31
687.47	0.31
687.91	0.31
688.35	0.31
688.79	0.32
689.23	0.32
689.67	0.32
690.11	0.32
690.55	0.32
690.99	0.32
691.43	0.32
691.87	0.32
692.31	0.32
692.749	0.32
693.189	0.32
693.629	0.32
694.069	0.32
694.508	0.32
694.948	0.32
695.388	0.32
695.827	0.32
696.267	0.32
696.706	0.32
697.146	0.32
697.586	0.32
698.025	0.32
698.464	0.32
698.904	0.32
699.343	0.32
699.783	0.32
700.222	0.33
700.661	0.33
701.101	0.33
701.54	0.33
701.979	0.33
702.418	0.33
702.857	0.33
703.297	0.33
703.736	0.33
704.175	0.33
704.614	0.33
705.053	0.33
705.492	0.33
705.931	0.33
706.37	0.33
706.809	0.33
707.248	0.33
707.687	0.33
708.125	0.33
708.564	0.33
709.003	0.33
709.442	0.33
709.88	0.33
710.319	0.33
710.758	0.33
711.196	0.33
711.635	0.33
712.074	0.33
712.512	0.33
712.951	0.33
713.389	0.33
713.828	0.33
714.266	0.33
714.705	0.33
715.143	0.33
715.581	0.33
716.02	0.33
716.458	0.33
716.896	0.33
717.334	0.33
717.773	0.33
718.211	0.33
718.649	0.33
719.087	0.33
719.525	0.33
719.963	0.33
720.401	0.33
720.839	0.33
721.277	0.33
721.715	0.33
722.153	0.33
722.591	0.33
723.029	0.33
723.467	0.33
723.905	0.33
724.342	0.33
724.78	0.33
725.218	0.33
725.656	0.33
726.093	0.33
726.531	0.33
726.969	0.33
727.406	0.33
727.844	0.33
728.281	0.33
728.719	0.33
729.156	0.33
729.594	0.33
730.031	0.33
730.469	0.33
730.906	0.33
731.343	0.33
731.781	0.33
732.218	0.33
732.655	0.33
733.092	0.33
733.53	0.33
733.967	0.32
734.404	0.32
734.841	0.32
735.278	0.32
735.715	0.32
736.152	0.32
736.589	0.32
737.026	0.32
737.463	0.32
737.9	0.32
738.337	0.32
738.774	0.32
739.211	0.32
739.647	0.32
740.084	0.32
740.521	0.32
740.958	0.32
741.394	0.32
741.831	0.32
742.268	0.32
742.704	0.32
743.141	0.32
743.577	0.32
744.014	0.32
744.45	0.32
744.887	0.32
745.323	0.32
745.76	0.32
746.196	0.32
746.632	0.32
747.069	0.32
747.505	0.32
747.941	0.32
748.378	0.32
748.814	0.32
749.25	0.32
749.686	0.31
750.122	0.31
750.558	0.31
750.994	0.31
751.43	0.31
751.866	0.31
752.302	0.31
752.738	0.31
753.174	0.31
753.61	0.31
754.046	0.31
754.482	0.31
754.918	0.31
755.354	0.31
755.789	0.31
756.225	0.31
756.661	0.31
757.096	0.31
757.532	0.31
757.968	0.31
758.403	0.31
758.839	0.31
759.274	0.31
759.71	0.31
760.145	0.31
760.581	0.31
761.016	0.31
761.452	0.31
761.887	0.31
762.322	0.31
762.758	0.31
763.193	0.31
763.628	0.31
764.063	0.31
764.499	0.31
764.934	0.31
765.369	0.31
765.804	0.31
766.239	0.31
766.674	0.31
767.109	0.3
767.544	0.3
767.979	0.3
768.414	0.3
768.849	0.3
769.284	0.3
769.719	0.3
770.154	0.3
770.588	0.3
771.023	0.3
771.458	0.3
771.893	0.3
772.327	0.3
772.762	0.3
773.197	0.3
773.631	0.3
774.066	0.3
774.5	0.3
774.935	0.3
775.369	0.3
775.804	0.3
776.238	0.3
776.673	0.3
777.107	0.29
777.541	0.29
777.976	0.29
778.41	0.29
778.844	0.29
779.279	0.29
779.713	0.29
780.147	0.29
780.581	0.29
781.015	0.29
781.449	0.29
781.883	0.28
782.317	0.28
782.751	0.28
783.185	0.28
783.619	0.28
784.053	0.28
784.487	0.28
784.921	0.28
785.355	0.28
785.789	0.28
786.223	0.28
786.656	0.28
787.09	0.28
787.524	0.28
787.957	0.28
788.391	0.28
788.825	0.28
789.258	0.28
789.692	0.28
790.125	0.28
790.559	0.27
790.992	0.27
791.426	0.27
791.859	0.27
792.293	0.27
792.726	0.27
793.159	0.27
793.593	0.27
794.026	0.27
794.459	0.27
794.892	0.27
795.326	0.27
795.759	0.27
796.192	0.27
796.625	0.27
797.058	0.27
797.491	0.27
797.924	0.27
798.357	0.27
798.79	0.27
799.223	0.27
799.656	0.27
800.089	0.27
800.522	0.27
800.955	0.27
801.387	0.27
801.82	0.26
802.253	0.26
802.686	0.26
803.118	0.26
803.551	0.26
803.984	0.26
804.416	0.26
804.849	0.26
805.281	0.26
805.714	0.26
806.146	0.26
806.579	0.25
807.011	0.25
807.444	0.25
807.876	0.25
808.308	0.25
808.741	0.25
809.173	0.25
809.605	0.25
810.037	0.25
810.47	0.25
810.902	0.25
811.334	0.25
811.766	0.25
812.198	0.25
812.63	0.25
813.062	0.25
813.494	0.25
813.926	0.25
814.358	0.25
814.79	0.25
815.222	0.25
815.654	0.25
816.086	0.24
816.518	0.24
816.949	0.24
817.381	0.24
817.813	0.24
818.245	0.24
818.676	0.24
819.108	0.24
819.54	0.24
819.971	0.24
820.403	0.24
820.834	0.24
821.266	0.24
821.697	0.24
822.129	0.24
822.56	0.24
822.991	0.24
823.423	0.24
823.854	0.24
824.286	0.24
824.717	0.24
825.148	0.24
825.579	0.24
826.01	0.24
826.442	0.24
826.873	0.24
827.304	0.24
827.735	0.23
828.166	0.23
828.597	0.23
829.028	0.23
829.459	0.23
829.89	0.23
830.321	0.23
830.752	0.23
831.183	0.23
831.613	0.23
832.044	0.23
832.475	0.23
832.906	0.23
833.336	0.23
833.767	0.22
834.198	0.22
834.628	0.22
835.059	0.22
835.49	0.22
835.92	0.22
836.351	0.22
836.781	0.22
837.212	0.22
837.642	0.22
838.072	0.22
838.503	0.22
838.933	0.21
839.364	0.21
839.794	0.21
840.224	0.21
840.654	0.21
841.085	0.21
841.515	0.21
841.945	0.21
842.375	0.21
842.805	0.21
843.235	0.21
843.665	0.21
844.095	0.21
844.525	0.21
844.955	0.21
845.385	0.21
845.815	0.21
846.245	0.21
846.675	0.21
847.105	0.21
847.534	0.21
847.964	0.21
848.394	0.21
848.824	0.21
849.253	0.21
849.683	0.21
850.112	0.2
850.542	0.2
850.972	0.2
851.401	0.2
851.831	0.2
852.26	0.2
852.69	0.2
853.119	0.2
853.548	0.2
853.978	0.2
854.407	0.2
854.836	0.2
855.266	0.2
855.695	0.2
856.124	0.2
856.553	0.2
856.983	0.2
857.412	0.19
857.841	0.19
858.27	0.19
858.699	0.19
859.128	0.19
859.557	0.19
859.986	0.19
860.415	0.19
860.844	0.19
861.273	0.19
861.702	0.19
862.13	0.19
862.559	0.19
862.988	0.19
863.417	0.19
863.845	0.19
864.274	0.19
864.703	0.19
865.131	0.19
865.56	0.19
865.989	0.19
866.417	0.19
866.846	0.19
867.274	0.19
867.703	0.19
868.131	0.19
868.559	0.19
868.988	0.19
869.416	0.19
869.844	0.19
870.273	0.19
870.701	0.18
871.129	0.18
871.557	0.18
871.986	0.18
872.414	0.18
872.842	0.18
873.27	0.18
873.698	0.18
874.126	0.18
874.554	0.18
874.982	0.18
875.41	0.18
875.838	0.18
876.266	0.18
876.694	0.18
877.122	0.18
877.549	0.18
877.977	0.18
878.405	0.18
878.833	0.18
879.26	0.18
879.688	0.18
880.116	0.18
880.543	0.18
880.971	0.18
881.399	0.17
881.826	0.17
882.254	0.17
882.681	0.17
883.109	0.17
883.536	0.17
883.963	0.17
884.391	0.17
884.818	0.17
885.245	0.17
885.673	0.17
886.1	0.17
886.527	0.17
886.954	0.17
887.381	0.17
887.809	0.17
888.236	0.17
888.663	0.17
889.09	0.17
889.517	0.17
889.944	0.17
890.371	0.17
890.798	0.16
891.225	0.16
891.652	0.16
892.078	0.16
892.505	0.16
892.932	0.16
893.359	0.16
893.786	0.16
894.212	0.16
894.639	0.16
895.066	0.16
895.492	0.16
895.919	0.16
896.346	0.16
896.772	0.16
897.199	0.16
897.625	0.16
898.052	0.15
898.478	0.15
898.904	0.15
899.331	0.15
899.757	0.15
900.183	0.15
900.61	0.15
901.036	0.15
901.462	0.15
901.888	0.15
902.315	0.15
902.741	0.15
903.167	0.15
903.593	0.15
904.019	0.15
904.445	0.15
904.871	0.15
905.297	0.15
905.723	0.15
906.149	0.15
906.575	0.15
907.001	0.15
907.427	0.15
907.852	0.15
908.278	0.15
908.704	0.15
909.13	0.15
909.555	0.15
909.981	0.15
910.407	0.15
910.832	0.15
911.258	0.15
911.684	0.15
912.109	0.15
912.535	0.15
912.96	0.15
913.386	0.15
913.811	0.15
914.236	0.15
914.662	0.15
915.087	0.15
915.512	0.15
915.938	0.15
916.363	0.15
916.788	0.15
917.213	0.15
917.639	0.15
918.064	0.15
918.489	0.15
918.914	0.15
919.339	0.15
919.764	0.15
920.189	0.15
920.614	0.14
921.039	0.14
921.464	0.14
921.889	0.14
922.314	0.14
922.738	0.14
923.163	0.14
923.588	0.14
924.013	0.14
924.437	0.14
924.862	0.14
925.287	0.14
925.711	0.14
926.136	0.14
926.561	0.14
926.985	0.14
927.41	0.14
927.834	0.14
928.259	0.14
928.683	0.14
929.108	0.14
929.532	0.14
929.956	0.14
930.381	0.14
930.805	0.14
931.229	0.14
931.653	0.14
932.078	0.13
932.502	0.13
932.926	0.13
933.35	0.13
933.774	0.13
934.198	0.13
934.622	0.13
935.046	0.13
935.47	0.13
935.894	0.13
936.318	0.13
936.742	0.13
937.166	0.13
937.59	0.13
938.014	0.13
938.437	0.12
938.861	0.12
939.285	0.12
939.709	0.12
940.132	0.12
940.556	0.12
940.98	0.12
941.403	0.12
941.827	0.12
942.25	0.12
942.674	0.12
943.097	0.12
943.521	0.12
943.944	0.12
944.368	0.12
944.791	0.12
945.214	0.12
945.638	0.12
946.061	0.12
946.484	0.12
946.907	0.12
947.331	0.12
947.754	0.12
948.177	0.12
948.6	0.12
949.023	0.12
949.446	0.12
949.869	0.12
950.292	0.12
950.715	0.12
951.138	0.12
951.561	0.12
951.984	0.12
952.407	0.12
952.83	0.12
953.252	0.12
953.675	0.12
954.098	0.12
954.521	0.12
954.943	0.12
955.366	0.12
955.789	0.12
956.211	0.12
956.634	0.12
957.056	0.12
957.479	0.11
957.902	0.11
958.324	0.11
958.746	0.11
959.169	0.11
959.591	0.11
960.014	0.11
960.436	0.11
960.858	0.11
961.281	0.11
961.703	0.11
962.125	0.11
962.547	0.11
962.969	0.11
963.391	0.11
963.814	0.11
964.236	0.11
964.658	0.11
965.08	0.11
965.502	0.11
965.924	0.11
966.346	0.11
966.768	0.11
967.189	0.11
967.611	0.11
968.033	0.11
968.455	0.11
968.877	0.11
969.298	0.1
969.72	0.1
970.142	0.1
970.563	0.1
970.985	0.1
971.407	0.1
971.828	0.1
972.25	0.1
972.671	0.1
973.093	0.1
973.514	0.1
973.936	0.1
974.357	0.1
974.778	0.1
975.2	0.1
975.621	0.1
976.042	0.1
976.464	0.1
976.885	0.1
977.306	0.1
977.727	0.1
978.148	0.1
978.57	0.1
978.991	0.1
979.412	0.1
979.833	0.1
980.254	0.1
980.675	0.1
981.096	0.1
981.517	0.1
981.937	0.1
982.358	0.1
982.779	0.1
983.2	0.1
983.621	0.1
984.042	0.1
984.462	0.1
984.883	0.1
985.304	0.1
985.724	0.1
986.145	0.1
986.565	0.1
986.986	0.1
987.407	0.1
987.827	0.1
988.248	0.1
988.668	0.1
989.088	0.1
989.509	0.1
989.929	0.1
990.35	0.1
990.77	0.1
991.19	0.1
991.61	0.1
992.031	0.09
992.451	0.09
992.871	0.09
993.291	0.09
993.711	0.09
994.131	0.09
994.551	0.09
994.971	0.09
995.391	0.09
995.811	0.09
996.231	0.09
996.651	0.09
997.071	0.09
997.491	0.09
997.911	0.09
998.331	0.09
998.75	0.09
999.17	0.1
999.59	0.1
1000.009	0.1
1000.429	0.1
1000.849	0.1
1001.268	0.1
1001.688	0.1
1002.107	0.1
1002.527	0.1
1002.946	0.1
1003.366	0.1
1003.785	0.1
1004.205	0.1
1004.624	0.1
1005.044	0.1
1005.463	0.1
1005.882	0.1
1006.301	0.1
1006.721	0.1
1007.14	0.1
1007.559	0.1
1007.978	0.1
1008.397	0.1
1008.816	0.1
1009.235	0.1
1009.655	0.1
1010.074	0.1
1010.492	0.1
1010.911	0.1
1011.33	0.1
1011.749	0.1
1012.168	0.1
1012.587	0.1
1013.006	0.1
1013.425	0.1
1013.843	0.1
1014.262	0.09
1014.681	0.09
1015.099	0.09
1015.518	0.09
1015.937	0.09
1016.355	0.09
1016.774	0.09
1017.192	0.09
1017.611	0.09
1018.029	0.09
1018.448	0.09
1018.866	0.09
1019.285	0.09
1019.703	0.09
1020.121	0.09
1020.54	0.09
1020.958	0.09
1021.376	0.09
1021.794	0.09
1022.213	0.09
1022.631	0.09
1023.049	0.09
1023.467	0.09
1023.885	0.09
1024.303	0.09
1024.721	0.09
1025.139	0.08
1025.557	0.08
1025.975	0.08
1026.393	0.08
1026.811	0.08
1027.229	0.08
1027.647	0.08
1028.065	0.08
1028.482	0.08
1028.9	0.08
1029.318	0.08
1029.735	0.08
1030.153	0.08
1030.571	0.08
1030.988	0.08
1031.406	0.08
1031.823	0.08
1032.241	0.08
1032.659	0.08
1033.076	0.08
1033.493	0.07
1033.911	0.07
1034.328	0.07
1034.746	0.07
1035.163	0.07
1035.58	0.07
1035.997	0.07
1036.415	0.07
1036.832	0.07
1037.249	0.07
1037.666	0.07
1038.083	0.07
1038.501	0.07
1038.918	0.07
1039.335	0.07
1039.752	0.07
1040.169	0.07
1040.586	0.07
1041.003	0.07
1041.419	0.07
1041.836	0.07
1042.253	0.07
1042.67	0.07
1043.087	0.07
1043.504	0.07
1043.92	0.07
1044.337	0.07
1044.754	0.07
1045.17	0.07
1045.587	0.07
1046.004	0.07
1046.42	0.07
1046.837	0.07
1047.253	0.07
1047.67	0.07
1048.086	0.07
1048.503	0.07
1048.919	0.07
1049.335	0.07
1049.752	0.07
1050.168	0.06
1050.584	0.06
1051.001	0.06
1051.417	0.06
1051.833	0.06
1052.249	0.06
1052.665	0.06
1053.081	0.06
1053.497	0.06
1053.914	0.06
1054.33	0.06
1054.746	0.06
1055.162	0.05
1055.578	0.05
1055.993	0.05
1056.409	0.05
1056.825	0.05
1057.241	0.05
1057.657	0.05
1058.073	0.05
1058.488	0.05
1058.904	0.05
1059.32	0.05
1059.736	0.05
1060.151	0.05
1060.567	0.05
1060.982	0.05
1061.398	0.05
1061.813	0.05
1062.229	0.05
1062.644	0.05
1063.06	0.05
1063.475	0.05
1063.891	0.05
1064.306	0.05
1064.721	0.05
1065.137	0.05
1065.552	0.05
1065.967	0.05
1066.382	0.05
1066.798	0.05
1067.213	0.05
1067.628	0.05
1068.043	0.05
1068.458	0.05
1068.873	0.05
1069.288	0.05
1069.703	0.05
1070.118	0.05
1070.533	0.04
1070.948	0.04
1071.363	0.04
1071.778	0.04
1072.193	0.04
1072.607	0.04
1073.022	0.04
1073.437	0.04
1073.852	0.04
1074.266	0.04
1074.681	0.04
1075.096	0.04
1075.51	0.04
1075.925	0.04
1076.339	0.04
1076.754	0.04
1077.168	0.04
1077.583	0.04
1077.997	0.04
1078.412	0.04
1078.826	0.03
1079.24	0.03
1079.655	0.03
1080.069	0.03
1080.483	0.03
1080.897	0.03
1081.312	0.03
1081.726	0.03
1082.14	0.03
1082.554	0.03
1082.968	0.03
1083.382	0.03
1083.796	0.03
1084.21	0.03
1084.624	0.03
1085.038	0.03
1085.452	0.03
1085.866	0.03
1086.28	0.03
1086.694	0.03
1087.108	0.03
1087.521	0.03
1087.935	0.02
1088.349	0.02
1088.763	0.02
1089.176	0.02
1089.59	0.02
1090.004	0.02
1090.417	0.02
1090.831	0.02
1091.244	0.02
1091.658	0.02
1092.071	0.02
1092.485	0.02
1092.898	0.02
1093.312	0.02
1093.725	0.02
1094.138	0.02
1094.552	0.02
1094.965	0.01
1095.378	0.01
1095.791	0.01
1096.205	0.01
1096.618	0.01
1097.031	0.01
1097.444	0.01
1097.857	0
1098.27	0
1098.683	0
1099.096	0
1099.509	-0
1099.922	-0
1100.335	-0.01
1100.748	-0.01
1101.161	-0.01
1101.574	-0.01
1101.986	-0.01
1102.399	-0.01
1102.812	-0.02
1103.225	-0.02
1103.637	-0.02
1104.05	-0.02
1104.463	-0.02
1104.875	-0.02
1105.288	-0.02
1105.7	-0.03
1106.113	-0.03
1106.525	-0.03
1106.938	-0.03
1107.35	-0.04
1107.763	-0.04
1108.175	-0.04
1108.588	-0.04
1109	-0.05
1109.412	-0.05
1109.824	-0.05
1110.237	-0.06
1110.649	-0.06
1111.061	-0.06
