Data from agg-5_Absorbance__0__12-23-09-154.txt Node

Date: Thu Feb 22 12:23:09 CET 2024
User: Laser008
Spectrometer: MAYP115816
Trigger mode: 0
Integration Time (sec): 1.800000E-1
Scans to average: 10
Electric dark correction enabled: true
Nonlinearity correction enabled: true
Boxcar width: 5
XAxis mode: Wavelengths
Number of Pixels in Spectrum: 2068
>>>>>Begin Spectral Data<<<<<
198.914	-0.51
199.384	-0.47
199.855	-0.41
200.325	-0.34
200.796	-0.3
201.266	-0.28
201.737	-0.26
202.207	-0.26
202.677	-0.25
203.147	-0.25
203.618	-0.23
204.088	-0.21
204.558	-0.2
205.028	-0.19
205.498	-0.19
205.968	-0.19
206.439	-0.2
206.909	-0.2
207.379	-0.2
207.849	-0.2
208.319	-0.2
208.789	-0.2
209.258	-0.2
209.728	-0.21
210.198	-0.21
210.668	-0.21
211.138	-0.21
211.608	-0.21
212.077	-0.21
212.547	-0.21
213.017	-0.21
213.486	-0.22
213.956	-0.22
214.426	-0.22
214.895	-0.22
215.365	-0.22
215.834	-0.23
216.304	-0.23
216.773	-0.22
217.243	-0.23
217.712	-0.23
218.181	-0.22
218.651	-0.22
219.12	-0.22
219.589	-0.22
220.058	-0.22
220.528	-0.22
220.997	-0.22
221.466	-0.22
221.935	-0.22
222.404	-0.21
222.873	-0.21
223.342	-0.21
223.812	-0.21
224.281	-0.2
224.749	-0.2
225.218	-0.19
225.687	-0.19
226.156	-0.18
226.625	-0.17
227.094	-0.17
227.563	-0.16
228.031	-0.15
228.5	-0.13
228.969	-0.11
229.438	-0.1
229.906	-0.08
230.375	-0.05
230.844	-0.03
231.312	-0.01
231.781	0.01
232.249	0.04
232.718	0.06
233.186	0.08
233.655	0.1
234.123	0.12
234.591	0.14
235.06	0.15
235.528	0.17
235.996	0.18
236.465	0.2
236.933	0.21
237.401	0.22
237.869	0.23
238.337	0.24
238.805	0.25
239.274	0.25
239.742	0.26
240.21	0.27
240.678	0.27
241.146	0.27
241.614	0.28
242.081	0.28
242.549	0.28
243.017	0.29
243.485	0.29
243.953	0.29
244.421	0.29
244.888	0.3
245.356	0.3
245.824	0.3
246.291	0.3
246.759	0.31
247.227	0.31
247.694	0.31
248.162	0.31
248.629	0.32
249.097	0.32
249.564	0.32
250.032	0.32
250.499	0.32
250.967	0.33
251.434	0.33
251.901	0.33
252.369	0.33
252.836	0.33
253.303	0.34
253.77	0.34
254.237	0.34
254.705	0.34
255.172	0.34
255.639	0.34
256.106	0.34
256.573	0.35
257.04	0.35
257.507	0.35
257.974	0.35
258.441	0.35
258.908	0.35
259.375	0.35
259.841	0.35
260.308	0.35
260.775	0.35
261.242	0.35
261.709	0.35
262.175	0.35
262.642	0.35
263.109	0.35
263.575	0.35
264.042	0.35
264.508	0.35
264.975	0.35
265.441	0.35
265.908	0.35
266.374	0.34
266.841	0.34
267.307	0.34
267.773	0.34
268.24	0.34
268.706	0.34
269.172	0.34
269.639	0.34
270.105	0.33
270.571	0.33
271.037	0.33
271.503	0.33
271.969	0.33
272.435	0.33
272.902	0.32
273.368	0.32
273.834	0.32
274.3	0.32
274.765	0.32
275.231	0.32
275.697	0.31
276.163	0.31
276.629	0.31
277.095	0.31
277.56	0.31
278.026	0.3
278.492	0.3
278.958	0.3
279.423	0.3
279.889	0.29
280.354	0.29
280.82	0.29
281.286	0.29
281.751	0.29
282.217	0.28
282.682	0.28
283.147	0.28
283.613	0.28
284.078	0.28
284.544	0.28
285.009	0.27
285.474	0.27
285.939	0.27
286.405	0.27
286.87	0.27
287.335	0.27
287.8	0.27
288.265	0.26
288.73	0.26
289.195	0.26
289.66	0.26
290.125	0.26
290.59	0.26
291.055	0.26
291.52	0.25
291.985	0.25
292.45	0.25
292.915	0.25
293.38	0.25
293.844	0.25
294.309	0.25
294.774	0.25
295.239	0.25
295.703	0.25
296.168	0.25
296.632	0.25
297.097	0.25
297.562	0.25
298.026	0.25
298.491	0.24
298.955	0.24
299.419	0.24
299.884	0.24
300.348	0.24
300.813	0.24
301.277	0.24
301.741	0.24
302.205	0.24
302.67	0.24
303.134	0.24
303.598	0.24
304.062	0.24
304.526	0.24
304.99	0.24
305.454	0.24
305.919	0.24
306.383	0.24
306.847	0.24
307.31	0.24
307.774	0.24
308.238	0.24
308.702	0.24
309.166	0.24
309.63	0.24
310.094	0.24
310.557	0.24
311.021	0.24
311.485	0.24
311.948	0.24
312.412	0.24
312.876	0.24
313.339	0.24
313.803	0.24
314.266	0.24
314.73	0.24
315.193	0.24
315.657	0.24
316.12	0.24
316.584	0.24
317.047	0.23
317.51	0.23
317.973	0.23
318.437	0.23
318.9	0.23
319.363	0.23
319.826	0.23
320.29	0.23
320.753	0.23
321.216	0.23
321.679	0.23
322.142	0.23
322.605	0.23
323.068	0.23
323.531	0.23
323.994	0.23
324.457	0.23
324.92	0.23
325.382	0.23
325.845	0.23
326.308	0.23
326.771	0.23
327.233	0.23
327.696	0.23
328.159	0.23
328.622	0.23
329.084	0.23
329.547	0.23
330.009	0.23
330.472	0.23
330.934	0.23
331.397	0.23
331.859	0.23
332.322	0.23
332.784	0.23
333.246	0.23
333.709	0.23
334.171	0.22
334.633	0.22
335.096	0.22
335.558	0.22
336.02	0.22
336.482	0.22
336.944	0.22
337.406	0.22
337.868	0.22
338.331	0.22
338.793	0.22
339.255	0.22
339.717	0.22
340.178	0.22
340.64	0.22
341.102	0.22
341.564	0.22
342.026	0.22
342.488	0.22
342.949	0.22
343.411	0.22
343.873	0.22
344.335	0.22
344.796	0.22
345.258	0.22
345.719	0.22
346.181	0.22
346.643	0.22
347.104	0.22
347.566	0.22
348.027	0.22
348.488	0.22
348.95	0.22
349.411	0.22
349.873	0.22
350.334	0.22
350.795	0.22
351.256	0.22
351.718	0.22
352.179	0.22
352.64	0.22
353.101	0.22
353.562	0.22
354.023	0.22
354.484	0.22
354.945	0.22
355.406	0.22
355.867	0.22
356.328	0.22
356.789	0.22
357.25	0.22
357.711	0.21
358.172	0.21
358.633	0.21
359.093	0.22
359.554	0.22
360.015	0.22
360.476	0.22
360.936	0.22
361.397	0.22
361.858	0.22
362.318	0.22
362.779	0.22
363.239	0.22
363.7	0.22
364.16	0.22
364.621	0.22
365.081	0.21
365.541	0.21
366.002	0.21
366.462	0.22
366.922	0.22
367.383	0.22
367.843	0.22
368.303	0.22
368.763	0.21
369.223	0.22
369.684	0.22
370.144	0.22
370.604	0.22
371.064	0.22
371.524	0.22
371.984	0.21
372.444	0.22
372.904	0.22
373.363	0.21
373.823	0.21
374.283	0.21
374.743	0.21
375.203	0.21
375.663	0.22
376.122	0.22
376.582	0.22
377.042	0.22
377.501	0.22
377.961	0.22
378.42	0.22
378.88	0.22
379.34	0.22
379.799	0.22
380.259	0.22
380.718	0.22
381.177	0.22
381.637	0.22
382.096	0.22
382.555	0.21
383.015	0.21
383.474	0.21
383.933	0.21
384.393	0.21
384.852	0.21
385.311	0.21
385.77	0.21
386.229	0.21
386.688	0.21
387.147	0.21
387.606	0.21
388.065	0.21
388.524	0.21
388.983	0.21
389.442	0.21
389.901	0.21
390.36	0.21
390.819	0.21
391.277	0.21
391.736	0.21
392.195	0.21
392.654	0.21
393.112	0.21
393.571	0.21
394.03	0.21
394.488	0.21
394.947	0.21
395.405	0.21
395.864	0.21
396.322	0.21
396.781	0.21
397.239	0.21
397.698	0.21
398.156	0.21
398.614	0.21
399.073	0.21
399.531	0.21
399.989	0.21
400.447	0.21
400.905	0.21
401.364	0.21
401.822	0.21
402.28	0.21
402.738	0.21
403.196	0.21
403.654	0.21
404.112	0.21
404.57	0.21
405.028	0.21
405.486	0.21
405.944	0.21
406.402	0.21
406.859	0.21
407.317	0.21
407.775	0.21
408.233	0.21
408.691	0.21
409.148	0.21
409.606	0.21
410.064	0.21
410.521	0.21
410.979	0.21
411.436	0.21
411.894	0.21
412.351	0.21
412.809	0.21
413.266	0.21
413.724	0.21
414.181	0.21
414.638	0.21
415.096	0.21
415.553	0.21
416.01	0.21
416.467	0.21
416.925	0.21
417.382	0.21
417.839	0.21
418.296	0.21
418.753	0.21
419.21	0.21
419.667	0.21
420.124	0.21
420.581	0.21
421.038	0.21
421.495	0.21
421.952	0.21
422.409	0.21
422.866	0.21
423.322	0.21
423.779	0.21
424.236	0.21
424.693	0.21
425.149	0.21
425.606	0.21
426.063	0.21
426.519	0.21
426.976	0.21
427.433	0.21
427.889	0.21
428.346	0.21
428.802	0.21
429.258	0.21
429.715	0.21
430.171	0.21
430.628	0.21
431.084	0.21
431.54	0.21
431.997	0.21
432.453	0.21
432.909	0.21
433.365	0.21
433.821	0.21
434.277	0.21
434.734	0.21
435.19	0.21
435.646	0.21
436.102	0.21
436.558	0.21
437.014	0.21
437.47	0.21
437.925	0.21
438.381	0.21
438.837	0.21
439.293	0.21
439.749	0.21
440.205	0.21
440.66	0.21
441.116	0.21
441.572	0.21
442.027	0.21
442.483	0.21
442.939	0.21
443.394	0.21
443.85	0.21
444.305	0.21
444.761	0.21
445.216	0.21
445.672	0.21
446.127	0.21
446.582	0.21
447.038	0.21
447.493	0.21
447.948	0.21
448.403	0.21
448.859	0.21
449.314	0.21
449.769	0.21
450.224	0.2
450.679	0.2
451.134	0.2
451.589	0.21
452.044	0.21
452.499	0.21
452.954	0.21
453.409	0.21
453.864	0.21
454.319	0.21
454.774	0.21
455.229	0.21
455.684	0.21
456.138	0.2
456.593	0.2
457.048	0.2
457.503	0.2
457.957	0.2
458.412	0.2
458.866	0.2
459.321	0.2
459.776	0.2
460.23	0.2
460.685	0.2
461.139	0.2
461.593	0.2
462.048	0.2
462.502	0.2
462.957	0.2
463.411	0.2
463.865	0.2
464.319	0.2
464.774	0.2
465.228	0.2
465.682	0.2
466.136	0.2
466.59	0.2
467.044	0.2
467.499	0.2
467.953	0.2
468.407	0.2
468.861	0.2
469.315	0.2
469.768	0.2
470.222	0.2
470.676	0.2
471.13	0.2
471.584	0.2
472.038	0.2
472.491	0.2
472.945	0.2
473.399	0.2
473.852	0.2
474.306	0.2
474.76	0.2
475.213	0.2
475.667	0.2
476.12	0.2
476.574	0.2
477.027	0.2
477.481	0.2
477.934	0.2
478.388	0.2
478.841	0.2
479.294	0.2
479.748	0.2
480.201	0.2
480.654	0.2
481.107	0.2
481.561	0.2
482.014	0.2
482.467	0.2
482.92	0.21
483.373	0.21
483.826	0.21
484.279	0.21
484.732	0.21
485.185	0.21
485.638	0.21
486.091	0.21
486.544	0.21
486.997	0.21
487.449	0.21
487.902	0.21
488.355	0.21
488.808	0.21
489.26	0.21
489.713	0.21
490.166	0.21
490.618	0.21
491.071	0.21
491.523	0.21
491.976	0.21
492.429	0.21
492.881	0.21
493.333	0.22
493.786	0.22
494.238	0.22
494.691	0.22
495.143	0.22
495.595	0.22
496.048	0.22
496.5	0.22
496.952	0.22
497.404	0.22
497.856	0.22
498.309	0.22
498.761	0.22
499.213	0.22
499.665	0.23
500.117	0.23
500.569	0.23
501.021	0.23
501.473	0.23
501.925	0.23
502.377	0.23
502.828	0.23
503.28	0.23
503.732	0.23
504.184	0.23
504.636	0.23
505.087	0.23
505.539	0.23
505.991	0.24
506.442	0.24
506.894	0.24
507.345	0.24
507.797	0.24
508.249	0.24
508.7	0.24
509.151	0.24
509.603	0.24
510.054	0.24
510.506	0.25
510.957	0.25
511.408	0.25
511.86	0.25
512.311	0.25
512.762	0.25
513.213	0.25
513.665	0.25
514.116	0.25
514.567	0.25
515.018	0.25
515.469	0.25
515.92	0.25
516.371	0.26
516.822	0.26
517.273	0.26
517.724	0.26
518.175	0.26
518.626	0.26
519.076	0.26
519.527	0.26
519.978	0.26
520.429	0.26
520.88	0.26
521.33	0.26
521.781	0.26
522.232	0.26
522.682	0.26
523.133	0.27
523.583	0.27
524.034	0.27
524.484	0.27
524.935	0.27
525.385	0.27
525.836	0.27
526.286	0.27
526.736	0.27
527.187	0.27
527.637	0.27
528.087	0.27
528.538	0.27
528.988	0.27
529.438	0.28
529.888	0.28
530.338	0.28
530.788	0.28
531.238	0.28
531.688	0.28
532.139	0.28
532.589	0.28
533.038	0.28
533.488	0.28
533.938	0.28
534.388	0.28
534.838	0.28
535.288	0.28
535.738	0.28
536.187	0.28
536.637	0.29
537.087	0.29
537.537	0.29
537.986	0.29
538.436	0.29
538.885	0.29
539.335	0.29
539.785	0.29
540.234	0.29
540.684	0.29
541.133	0.29
541.582	0.29
542.032	0.29
542.481	0.29
542.931	0.29
543.38	0.29
543.829	0.29
544.278	0.29
544.728	0.29
545.177	0.3
545.626	0.3
546.075	0.3
546.524	0.3
546.973	0.29
547.422	0.3
547.871	0.3
548.32	0.3
548.769	0.3
549.218	0.3
549.667	0.3
550.116	0.3
550.565	0.3
551.014	0.3
551.463	0.3
551.911	0.3
552.36	0.3
552.809	0.3
553.258	0.3
553.706	0.3
554.155	0.3
554.603	0.3
555.052	0.3
555.501	0.3
555.949	0.3
556.398	0.3
556.846	0.3
557.294	0.3
557.743	0.3
558.191	0.3
558.64	0.3
559.088	0.31
559.536	0.31
559.985	0.31
560.433	0.31
560.881	0.31
561.329	0.31
561.777	0.31
562.225	0.31
562.674	0.31
563.122	0.31
563.57	0.31
564.018	0.31
564.466	0.31
564.914	0.31
565.362	0.31
565.809	0.31
566.257	0.31
566.705	0.31
567.153	0.31
567.601	0.31
568.048	0.31
568.496	0.31
568.944	0.31
569.392	0.31
569.839	0.31
570.287	0.3
570.734	0.31
571.182	0.31
571.63	0.31
572.077	0.31
572.525	0.31
572.972	0.31
573.419	0.3
573.867	0.3
574.314	0.31
574.761	0.31
575.209	0.31
575.656	0.31
576.103	0.3
576.551	0.3
576.998	0.3
577.445	0.3
577.892	0.3
578.339	0.3
578.786	0.3
579.233	0.3
579.68	0.3
580.127	0.3
580.574	0.3
581.021	0.3
581.468	0.3
581.915	0.3
582.362	0.3
582.809	0.3
583.255	0.3
583.702	0.3
584.149	0.29
584.596	0.29
585.042	0.29
585.489	0.29
585.936	0.29
586.382	0.29
586.829	0.29
587.275	0.29
587.722	0.29
588.168	0.29
588.615	0.29
589.061	0.29
589.508	0.29
589.954	0.29
590.4	0.29
590.847	0.29
591.293	0.29
591.739	0.29
592.185	0.29
592.632	0.29
593.078	0.28
593.524	0.28
593.97	0.28
594.416	0.28
594.862	0.28
595.308	0.28
595.754	0.28
596.2	0.28
596.646	0.28
597.092	0.28
597.538	0.28
597.984	0.28
598.43	0.28
598.876	0.28
599.321	0.28
599.767	0.27
600.213	0.27
600.659	0.27
601.104	0.27
601.55	0.27
601.995	0.27
602.441	0.27
602.887	0.27
603.332	0.27
603.778	0.27
604.223	0.26
604.668	0.26
605.114	0.26
605.559	0.26
606.005	0.26
606.45	0.26
606.895	0.26
607.341	0.26
607.786	0.26
608.231	0.26
608.676	0.26
609.121	0.25
609.566	0.25
610.012	0.25
610.457	0.25
610.902	0.25
611.347	0.25
611.792	0.25
612.237	0.25
612.682	0.25
613.127	0.25
613.571	0.25
614.016	0.25
614.461	0.25
614.906	0.25
615.351	0.24
615.795	0.24
616.24	0.24
616.685	0.24
617.129	0.24
617.574	0.24
618.019	0.24
618.463	0.24
618.908	0.24
619.352	0.24
619.797	0.24
620.241	0.23
620.686	0.23
621.13	0.23
621.574	0.23
622.019	0.23
622.463	0.23
622.907	0.23
623.352	0.23
623.796	0.23
624.24	0.23
624.684	0.23
625.128	0.23
625.572	0.23
626.016	0.22
626.461	0.22
626.905	0.22
627.349	0.22
627.793	0.22
628.236	0.22
628.68	0.22
629.124	0.22
629.568	0.22
630.012	0.22
630.456	0.22
630.9	0.22
631.343	0.22
631.787	0.22
632.231	0.22
632.674	0.22
633.118	0.22
633.562	0.22
634.005	0.22
634.449	0.22
634.892	0.22
635.336	0.22
635.779	0.21
636.223	0.21
636.666	0.21
637.109	0.21
637.553	0.21
637.996	0.21
638.439	0.21
638.883	0.21
639.326	0.21
639.769	0.21
640.212	0.21
640.655	0.21
641.099	0.21
641.542	0.21
641.985	0.21
642.428	0.21
642.871	0.21
643.314	0.21
643.757	0.22
644.2	0.22
644.643	0.22
645.085	0.22
645.528	0.22
645.971	0.22
646.414	0.22
646.857	0.22
647.299	0.22
647.742	0.22
648.185	0.22
648.627	0.22
649.07	0.22
649.513	0.22
649.955	0.22
650.398	0.22
650.84	0.22
651.283	0.22
651.725	0.22
652.168	0.22
652.61	0.23
653.052	0.23
653.495	0.23
653.937	0.18
654.379	0.14
654.821	0.15
655.264	0.15
655.706	0.15
656.148	0.15
656.59	0.15
657.032	0.15
657.474	0.15
657.916	0.15
658.358	0.14
658.8	0.18
659.242	0.23
659.684	0.24
660.126	0.24
660.568	0.24
661.01	0.24
661.452	0.24
661.894	0.24
662.335	0.25
662.777	0.25
663.219	0.25
663.661	0.25
664.102	0.25
664.544	0.25
664.985	0.25
665.427	0.25
665.869	0.25
666.31	0.25
666.752	0.26
667.193	0.26
667.634	0.26
668.076	0.26
668.517	0.26
668.959	0.26
669.4	0.27
669.841	0.27
670.282	0.27
670.724	0.27
671.165	0.27
671.606	0.27
672.047	0.27
672.488	0.27
672.929	0.27
673.37	0.27
673.811	0.27
674.252	0.27
674.693	0.27
675.134	0.28
675.575	0.28
676.016	0.28
676.457	0.28
676.898	0.28
677.339	0.28
677.78	0.28
678.22	0.28
678.661	0.28
679.102	0.28
679.542	0.29
679.983	0.29
680.424	0.29
680.864	0.29
681.305	0.29
681.745	0.29
682.186	0.29
682.626	0.29
683.067	0.29
683.507	0.29
683.948	0.3
684.388	0.3
684.828	0.3
685.269	0.3
685.709	0.3
686.149	0.3
686.589	0.3
687.029	0.3
687.47	0.3
687.91	0.3
688.35	0.3
688.79	0.3
689.23	0.3
689.67	0.31
690.11	0.31
690.55	0.31
690.99	0.31
691.43	0.31
691.87	0.31
692.31	0.31
692.749	0.31
693.189	0.31
693.629	0.31
694.069	0.31
694.508	0.31
694.948	0.31
695.388	0.31
695.827	0.31
696.267	0.31
696.706	0.31
697.146	0.31
697.586	0.31
698.025	0.31
698.464	0.31
698.904	0.31
699.343	0.31
699.783	0.31
700.222	0.31
700.661	0.31
701.101	0.31
701.54	0.31
701.979	0.31
702.418	0.31
702.857	0.32
703.297	0.32
703.736	0.32
704.175	0.32
704.614	0.32
705.053	0.32
705.492	0.32
705.931	0.32
706.37	0.32
706.809	0.32
707.248	0.32
707.687	0.32
708.125	0.32
708.564	0.32
709.003	0.32
709.442	0.32
709.88	0.32
710.319	0.32
710.758	0.32
711.196	0.32
711.635	0.32
712.074	0.32
712.512	0.32
712.951	0.32
713.389	0.32
713.828	0.32
714.266	0.32
714.705	0.32
715.143	0.32
715.581	0.32
716.02	0.32
716.458	0.32
716.896	0.32
717.334	0.32
717.773	0.32
718.211	0.32
718.649	0.32
719.087	0.32
719.525	0.32
719.963	0.32
720.401	0.32
720.839	0.32
721.277	0.32
721.715	0.31
722.153	0.31
722.591	0.31
723.029	0.31
723.467	0.31
723.905	0.31
724.342	0.31
724.78	0.31
725.218	0.31
725.656	0.31
726.093	0.31
726.531	0.32
726.969	0.32
727.406	0.32
727.844	0.32
728.281	0.32
728.719	0.32
729.156	0.32
729.594	0.32
730.031	0.32
730.469	0.32
730.906	0.32
731.343	0.32
731.781	0.32
732.218	0.32
732.655	0.32
733.092	0.32
733.53	0.31
733.967	0.31
734.404	0.31
734.841	0.31
735.278	0.31
735.715	0.31
736.152	0.31
736.589	0.31
737.026	0.31
737.463	0.31
737.9	0.31
738.337	0.31
738.774	0.31
739.211	0.31
739.647	0.31
740.084	0.31
740.521	0.31
740.958	0.31
741.394	0.31
741.831	0.31
742.268	0.31
742.704	0.31
743.141	0.31
743.577	0.31
744.014	0.31
744.45	0.31
744.887	0.31
745.323	0.31
745.76	0.31
746.196	0.31
746.632	0.31
747.069	0.31
747.505	0.31
747.941	0.31
748.378	0.31
748.814	0.31
749.25	0.31
749.686	0.31
750.122	0.3
750.558	0.3
750.994	0.3
751.43	0.3
751.866	0.3
752.302	0.3
752.738	0.3
753.174	0.3
753.61	0.3
754.046	0.3
754.482	0.3
754.918	0.3
755.354	0.3
755.789	0.3
756.225	0.3
756.661	0.3
757.096	0.3
757.532	0.3
757.968	0.3
758.403	0.3
758.839	0.3
759.274	0.3
759.71	0.3
760.145	0.3
760.581	0.3
761.016	0.3
761.452	0.3
761.887	0.3
762.322	0.3
762.758	0.3
763.193	0.3
763.628	0.3
764.063	0.3
764.499	0.3
764.934	0.3
765.369	0.3
765.804	0.29
766.239	0.29
766.674	0.29
767.109	0.29
767.544	0.29
767.979	0.29
768.414	0.29
768.849	0.29
769.284	0.29
769.719	0.29
770.154	0.29
770.588	0.29
771.023	0.29
771.458	0.29
771.893	0.29
772.327	0.28
772.762	0.28
773.197	0.28
773.631	0.28
774.066	0.28
774.5	0.28
774.935	0.28
775.369	0.28
775.804	0.28
776.238	0.28
776.673	0.28
777.107	0.28
777.541	0.28
777.976	0.28
778.41	0.28
778.844	0.28
779.279	0.28
779.713	0.28
780.147	0.28
780.581	0.28
781.015	0.27
781.449	0.27
781.883	0.27
782.317	0.27
782.751	0.27
783.185	0.27
783.619	0.27
784.053	0.27
784.487	0.26
784.921	0.26
785.355	0.26
785.789	0.26
786.223	0.26
786.656	0.26
787.09	0.26
787.524	0.26
787.957	0.26
788.391	0.26
788.825	0.26
789.258	0.26
789.692	0.26
790.125	0.26
790.559	0.26
790.992	0.26
791.426	0.26
791.859	0.26
792.293	0.26
792.726	0.26
793.159	0.26
793.593	0.26
794.026	0.26
794.459	0.26
794.892	0.26
795.326	0.26
795.759	0.26
796.192	0.26
796.625	0.26
797.058	0.26
797.491	0.26
797.924	0.26
798.357	0.26
798.79	0.26
799.223	0.25
799.656	0.25
800.089	0.25
800.522	0.25
800.955	0.25
801.387	0.25
801.82	0.25
802.253	0.25
802.686	0.25
803.118	0.25
803.551	0.25
803.984	0.25
804.416	0.25
804.849	0.25
805.281	0.25
805.714	0.25
806.146	0.25
806.579	0.25
807.011	0.25
807.444	0.25
807.876	0.25
808.308	0.24
808.741	0.24
809.173	0.24
809.605	0.24
810.037	0.24
810.47	0.24
810.902	0.24
811.334	0.24
811.766	0.24
812.198	0.24
812.63	0.23
813.062	0.23
813.494	0.23
813.926	0.23
814.358	0.23
814.79	0.23
815.222	0.23
815.654	0.23
816.086	0.23
816.518	0.23
816.949	0.23
817.381	0.23
817.813	0.23
818.245	0.23
818.676	0.23
819.108	0.23
819.54	0.23
819.971	0.23
820.403	0.23
820.834	0.23
821.266	0.23
821.697	0.23
822.129	0.23
822.56	0.23
822.991	0.23
823.423	0.23
823.854	0.23
824.286	0.23
824.717	0.23
825.148	0.23
825.579	0.23
826.01	0.23
826.442	0.23
826.873	0.23
827.304	0.23
827.735	0.22
828.166	0.22
828.597	0.22
829.028	0.22
829.459	0.22
829.89	0.22
830.321	0.22
830.752	0.22
831.183	0.22
831.613	0.22
832.044	0.22
832.475	0.21
832.906	0.21
833.336	0.21
833.767	0.21
834.198	0.21
834.628	0.21
835.059	0.21
835.49	0.21
835.92	0.2
836.351	0.2
836.781	0.2
837.212	0.2
837.642	0.2
838.072	0.2
838.503	0.2
838.933	0.2
839.364	0.2
839.794	0.2
840.224	0.2
840.654	0.2
841.085	0.2
841.515	0.2
841.945	0.2
842.375	0.2
842.805	0.2
843.235	0.2
843.665	0.2
844.095	0.2
844.525	0.2
844.955	0.2
845.385	0.2
845.815	0.2
846.245	0.2
846.675	0.2
847.105	0.2
847.534	0.2
847.964	0.2
848.394	0.2
848.824	0.2
849.253	0.2
849.683	0.2
850.112	0.2
850.542	0.2
850.972	0.2
851.401	0.2
851.831	0.19
852.26	0.19
852.69	0.19
853.119	0.19
853.548	0.19
853.978	0.19
854.407	0.19
854.836	0.19
855.266	0.19
855.695	0.19
856.124	0.19
856.553	0.19
856.983	0.19
857.412	0.19
857.841	0.18
858.27	0.18
858.699	0.18
859.128	0.18
859.557	0.18
859.986	0.18
860.415	0.18
860.844	0.18
861.273	0.18
861.702	0.18
862.13	0.18
862.559	0.18
862.988	0.18
863.417	0.18
863.845	0.18
864.274	0.18
864.703	0.18
865.131	0.18
865.56	0.17
865.989	0.17
866.417	0.17
866.846	0.17
867.274	0.17
867.703	0.17
868.131	0.17
868.559	0.17
868.988	0.17
869.416	0.17
869.844	0.17
870.273	0.17
870.701	0.17
871.129	0.17
871.557	0.17
871.986	0.17
872.414	0.17
872.842	0.17
873.27	0.17
873.698	0.17
874.126	0.17
874.554	0.17
874.982	0.17
875.41	0.17
875.838	0.17
876.266	0.17
876.694	0.17
877.122	0.17
877.549	0.17
877.977	0.17
878.405	0.17
878.833	0.17
879.26	0.17
879.688	0.17
880.116	0.16
880.543	0.16
880.971	0.16
881.399	0.16
881.826	0.16
882.254	0.16
882.681	0.16
883.109	0.16
883.536	0.16
883.963	0.16
884.391	0.16
884.818	0.16
885.245	0.16
885.673	0.16
886.1	0.16
886.527	0.16
886.954	0.16
887.381	0.16
887.809	0.15
888.236	0.15
888.663	0.15
889.09	0.15
889.517	0.15
889.944	0.15
890.371	0.15
890.798	0.15
891.225	0.15
891.652	0.15
892.078	0.15
892.505	0.15
892.932	0.15
893.359	0.15
893.786	0.16
894.212	0.16
894.639	0.16
895.066	0.16
895.492	0.16
895.919	0.16
896.346	0.15
896.772	0.15
897.199	0.15
897.625	0.15
898.052	0.15
898.478	0.15
898.904	0.15
899.331	0.15
899.757	0.15
900.183	0.15
900.61	0.15
901.036	0.15
901.462	0.15
901.888	0.15
902.315	0.14
902.741	0.14
903.167	0.14
903.593	0.14
904.019	0.14
904.445	0.14
904.871	0.14
905.297	0.14
905.723	0.14
906.149	0.14
906.575	0.14
907.001	0.14
907.427	0.13
907.852	0.13
908.278	0.13
908.704	0.13
909.13	0.13
909.555	0.13
909.981	0.13
910.407	0.13
910.832	0.13
911.258	0.13
911.684	0.13
912.109	0.13
912.535	0.13
912.96	0.13
913.386	0.13
913.811	0.13
914.236	0.13
914.662	0.13
915.087	0.13
915.512	0.13
915.938	0.13
916.363	0.13
916.788	0.13
917.213	0.13
917.639	0.13
918.064	0.13
918.489	0.14
918.914	0.14
919.339	0.14
919.764	0.14
920.189	0.14
920.614	0.14
921.039	0.14
921.464	0.14
921.889	0.13
922.314	0.13
922.738	0.13
923.163	0.13
923.588	0.13
924.013	0.13
924.437	0.13
924.862	0.13
925.287	0.13
925.711	0.13
926.136	0.13
926.561	0.13
926.985	0.13
927.41	0.13
927.834	0.13
928.259	0.13
928.683	0.13
929.108	0.13
929.532	0.13
929.956	0.13
930.381	0.13
930.805	0.13
931.229	0.13
931.653	0.13
932.078	0.13
932.502	0.13
932.926	0.13
933.35	0.13
933.774	0.13
934.198	0.13
934.622	0.13
935.046	0.13
935.47	0.13
935.894	0.13
936.318	0.12
936.742	0.12
937.166	0.12
937.59	0.12
938.014	0.12
938.437	0.12
938.861	0.12
939.285	0.12
939.709	0.12
940.132	0.12
940.556	0.12
940.98	0.12
941.403	0.12
941.827	0.12
942.25	0.12
942.674	0.12
943.097	0.12
943.521	0.12
943.944	0.11
944.368	0.11
944.791	0.11
945.214	0.11
945.638	0.11
946.061	0.11
946.484	0.11
946.907	0.11
947.331	0.11
947.754	0.11
948.177	0.11
948.6	0.11
949.023	0.11
949.446	0.11
949.869	0.11
950.292	0.11
950.715	0.11
951.138	0.11
951.561	0.11
951.984	0.11
952.407	0.11
952.83	0.11
953.252	0.11
953.675	0.11
954.098	0.11
954.521	0.11
954.943	0.11
955.366	0.11
955.789	0.11
956.211	0.11
956.634	0.11
957.056	0.11
957.479	0.11
957.902	0.11
958.324	0.11
958.746	0.11
959.169	0.11
959.591	0.1
960.014	0.1
960.436	0.1
960.858	0.1
961.281	0.1
961.703	0.1
962.125	0.1
962.547	0.1
962.969	0.1
963.391	0.1
963.814	0.1
964.236	0.1
964.658	0.1
965.08	0.1
965.502	0.1
965.924	0.1
966.346	0.1
966.768	0.11
967.189	0.11
967.611	0.1
968.033	0.1
968.455	0.1
968.877	0.1
969.298	0.1
969.72	0.1
970.142	0.1
970.563	0.1
970.985	0.1
971.407	0.1
971.828	0.1
972.25	0.1
972.671	0.1
973.093	0.1
973.514	0.1
973.936	0.1
974.357	0.1
974.778	0.1
975.2	0.1
975.621	0.1
976.042	0.1
976.464	0.1
976.885	0.1
977.306	0.1
977.727	0.1
978.148	0.1
978.57	0.1
978.991	0.1
979.412	0.1
979.833	0.1
980.254	0.1
980.675	0.1
981.096	0.1
981.517	0.1
981.937	0.1
982.358	0.1
982.779	0.1
983.2	0.1
983.621	0.1
984.042	0.1
984.462	0.1
984.883	0.1
985.304	0.1
985.724	0.1
986.145	0.1
986.565	0.1
986.986	0.1
987.407	0.1
987.827	0.1
988.248	0.1
988.668	0.1
989.088	0.1
989.509	0.1
989.929	0.1
990.35	0.1
990.77	0.1
991.19	0.1
991.61	0.1
992.031	0.1
992.451	0.1
992.871	0.1
993.291	0.09
993.711	0.09
994.131	0.09
994.551	0.09
994.971	0.09
995.391	0.09
995.811	0.09
996.231	0.09
996.651	0.09
997.071	0.09
997.491	0.09
997.911	0.09
998.331	0.09
998.75	0.09
999.17	0.09
999.59	0.09
1000.009	0.09
1000.429	0.09
1000.849	0.09
1001.268	0.09
1001.688	0.1
1002.107	0.1
1002.527	0.1
1002.946	0.1
1003.366	0.1
1003.785	0.1
1004.205	0.1
1004.624	0.1
1005.044	0.1
1005.463	0.1
1005.882	0.1
1006.301	0.1
1006.721	0.1
1007.14	0.09
1007.559	0.09
1007.978	0.09
1008.397	0.09
1008.816	0.09
1009.235	0.09
1009.655	0.09
1010.074	0.09
1010.492	0.09
1010.911	0.09
1011.33	0.09
1011.749	0.09
1012.168	0.09
1012.587	0.09
1013.006	0.09
1013.425	0.09
1013.843	0.09
1014.262	0.09
1014.681	0.09
1015.099	0.08
1015.518	0.08
1015.937	0.08
1016.355	0.08
1016.774	0.08
1017.192	0.08
1017.611	0.08
1018.029	0.08
1018.448	0.08
1018.866	0.08
1019.285	0.08
1019.703	0.08
1020.121	0.08
1020.54	0.08
1020.958	0.08
1021.376	0.08
1021.794	0.08
1022.213	0.08
1022.631	0.08
1023.049	0.08
1023.467	0.08
1023.885	0.08
1024.303	0.08
1024.721	0.08
1025.139	0.08
1025.557	0.07
1025.975	0.07
1026.393	0.07
1026.811	0.07
1027.229	0.07
1027.647	0.07
1028.065	0.07
1028.482	0.07
1028.9	0.07
1029.318	0.07
1029.735	0.07
1030.153	0.07
1030.571	0.07
1030.988	0.07
1031.406	0.07
1031.823	0.07
1032.241	0.07
1032.659	0.07
1033.076	0.07
1033.493	0.07
1033.911	0.07
1034.328	0.07
1034.746	0.06
1035.163	0.06
1035.58	0.06
1035.997	0.06
1036.415	0.06
1036.832	0.06
1037.249	0.06
1037.666	0.06
1038.083	0.06
1038.501	0.06
1038.918	0.06
1039.335	0.06
1039.752	0.06
1040.169	0.06
1040.586	0.06
1041.003	0.06
1041.419	0.06
1041.836	0.06
1042.253	0.06
1042.67	0.06
1043.087	0.06
1043.504	0.06
1043.92	0.06
1044.337	0.06
1044.754	0.06
1045.17	0.06
1045.587	0.06
1046.004	0.06
1046.42	0.06
1046.837	0.06
1047.253	0.06
1047.67	0.06
1048.086	0.05
1048.503	0.05
1048.919	0.05
1049.335	0.05
1049.752	0.05
1050.168	0.05
1050.584	0.05
1051.001	0.05
1051.417	0.05
1051.833	0.05
1052.249	0.05
1052.665	0.04
1053.081	0.04
1053.497	0.04
1053.914	0.04
1054.33	0.05
1054.746	0.05
1055.162	0.05
1055.578	0.04
1055.993	0.04
1056.409	0.04
1056.825	0.04
1057.241	0.04
1057.657	0.04
1058.073	0.04
1058.488	0.04
1058.904	0.04
1059.32	0.04
1059.736	0.04
1060.151	0.04
1060.567	0.04
1060.982	0.04
1061.398	0.04
1061.813	0.04
1062.229	0.04
1062.644	0.04
1063.06	0.04
1063.475	0.04
1063.891	0.04
1064.306	0.04
1064.721	0.04
1065.137	0.04
1065.552	0.04
1065.967	0.04
1066.382	0.04
1066.798	0.04
1067.213	0.04
1067.628	0.04
1068.043	0.04
1068.458	0.04
1068.873	0.04
1069.288	0.04
1069.703	0.04
1070.118	0.04
1070.533	0.04
1070.948	0.04
1071.363	0.04
1071.778	0.04
1072.193	0.04
1072.607	0.04
1073.022	0.04
1073.437	0.04
1073.852	0.04
1074.266	0.04
1074.681	0.04
1075.096	0.04
1075.51	0.04
1075.925	0.04
1076.339	0.04
1076.754	0.04
1077.168	0.03
1077.583	0.03
1077.997	0.03
1078.412	0.03
1078.826	0.03
1079.24	0.03
1079.655	0.03
1080.069	0.03
1080.483	0.03
1080.897	0.03
1081.312	0.03
1081.726	0.03
1082.14	0.03
1082.554	0.03
1082.968	0.03
1083.382	0.03
1083.796	0.03
1084.21	0.03
1084.624	0.03
1085.038	0.03
1085.452	0.03
1085.866	0.03
1086.28	0.03
1086.694	0.03
1087.108	0.03
1087.521	0.03
1087.935	0.03
1088.349	0.03
1088.763	0.02
1089.176	0.02
1089.59	0.02
1090.004	0.02
1090.417	0.02
1090.831	0.02
1091.244	0.02
1091.658	0.02
1092.071	0.02
1092.485	0.02
1092.898	0.02
1093.312	0.02
1093.725	0.02
1094.138	0.02
1094.552	0.02
1094.965	0.01
1095.378	0.01
1095.791	0.01
1096.205	0.01
1096.618	0.01
1097.031	0.01
1097.444	0.01
1097.857	0.01
1098.27	0
1098.683	0
1099.096	0
1099.509	0
1099.922	-0
1100.335	-0
1100.748	-0.01
1101.161	-0.01
1101.574	-0.01
1101.986	-0.01
1102.399	-0.02
1102.812	-0.02
1103.225	-0.02
1103.637	-0.02
1104.05	-0.02
1104.463	-0.02
1104.875	-0.02
1105.288	-0.03
1105.7	-0.03
1106.113	-0.03
1106.525	-0.03
1106.938	-0.04
1107.35	-0.04
1107.763	-0.04
1108.175	-0.04
1108.588	-0.04
1109	-0.05
1109.412	-0.05
1109.824	-0.06
1110.237	-0.06
1110.649	-0.06
1111.061	-0.06
