Data from agg-3_Absorbance__0__11-16-24-566.txt Node

Date: Thu Feb 22 11:16:24 CET 2024
User: Laser008
Spectrometer: MAYP115816
Trigger mode: 0
Integration Time (sec): 1.800000E-1
Scans to average: 10
Electric dark correction enabled: true
Nonlinearity correction enabled: true
Boxcar width: 5
XAxis mode: Wavelengths
Number of Pixels in Spectrum: 2068
>>>>>Begin Spectral Data<<<<<
198.914	-0.47
199.384	-0.45
199.855	-0.39
200.325	-0.32
200.796	-0.28
201.266	-0.25
201.737	-0.24
202.207	-0.23
202.677	-0.22
203.147	-0.22
203.618	-0.2
204.088	-0.19
204.558	-0.17
205.028	-0.16
205.498	-0.17
205.968	-0.17
206.439	-0.18
206.909	-0.17
207.379	-0.17
207.849	-0.17
208.319	-0.17
208.789	-0.17
209.258	-0.17
209.728	-0.18
210.198	-0.18
210.668	-0.17
211.138	-0.18
211.608	-0.18
212.077	-0.18
212.547	-0.18
213.017	-0.18
213.486	-0.18
213.956	-0.18
214.426	-0.18
214.895	-0.18
215.365	-0.19
215.834	-0.19
216.304	-0.19
216.773	-0.19
217.243	-0.19
217.712	-0.19
218.181	-0.19
218.651	-0.19
219.12	-0.19
219.589	-0.19
220.058	-0.19
220.528	-0.19
220.997	-0.19
221.466	-0.18
221.935	-0.18
222.404	-0.18
222.873	-0.18
223.342	-0.18
223.812	-0.18
224.281	-0.18
224.749	-0.17
225.218	-0.17
225.687	-0.16
226.156	-0.15
226.625	-0.15
227.094	-0.14
227.563	-0.13
228.031	-0.12
228.5	-0.11
228.969	-0.09
229.438	-0.07
229.906	-0.05
230.375	-0.03
230.844	-0.01
231.312	0.01
231.781	0.03
232.249	0.05
232.718	0.08
233.186	0.1
233.655	0.12
234.123	0.14
234.591	0.15
235.06	0.17
235.528	0.18
235.996	0.19
236.465	0.21
236.933	0.22
237.401	0.23
237.869	0.23
238.337	0.24
238.805	0.25
239.274	0.26
239.742	0.26
240.21	0.27
240.678	0.27
241.146	0.28
241.614	0.28
242.081	0.28
242.549	0.29
243.017	0.29
243.485	0.29
243.953	0.3
244.421	0.3
244.888	0.3
245.356	0.3
245.824	0.31
246.291	0.31
246.759	0.31
247.227	0.31
247.694	0.32
248.162	0.32
248.629	0.32
249.097	0.32
249.564	0.33
250.032	0.33
250.499	0.33
250.967	0.33
251.434	0.34
251.901	0.34
252.369	0.34
252.836	0.34
253.303	0.34
253.77	0.34
254.237	0.35
254.705	0.35
255.172	0.35
255.639	0.35
256.106	0.35
256.573	0.35
257.04	0.35
257.507	0.36
257.974	0.36
258.441	0.36
258.908	0.36
259.375	0.36
259.841	0.36
260.308	0.36
260.775	0.36
261.242	0.36
261.709	0.36
262.175	0.36
262.642	0.36
263.109	0.36
263.575	0.36
264.042	0.36
264.508	0.36
264.975	0.36
265.441	0.36
265.908	0.36
266.374	0.35
266.841	0.35
267.307	0.35
267.773	0.35
268.24	0.35
268.706	0.35
269.172	0.35
269.639	0.35
270.105	0.34
270.571	0.34
271.037	0.34
271.503	0.34
271.969	0.34
272.435	0.34
272.902	0.33
273.368	0.33
273.834	0.33
274.3	0.33
274.765	0.33
275.231	0.33
275.697	0.32
276.163	0.32
276.629	0.32
277.095	0.32
277.56	0.32
278.026	0.31
278.492	0.31
278.958	0.31
279.423	0.31
279.889	0.3
280.354	0.3
280.82	0.3
281.286	0.3
281.751	0.3
282.217	0.29
282.682	0.29
283.147	0.29
283.613	0.29
284.078	0.29
284.544	0.29
285.009	0.28
285.474	0.28
285.939	0.28
286.405	0.28
286.87	0.28
287.335	0.28
287.8	0.27
288.265	0.27
288.73	0.27
289.195	0.27
289.66	0.27
290.125	0.27
290.59	0.27
291.055	0.27
291.52	0.26
291.985	0.26
292.45	0.26
292.915	0.26
293.38	0.26
293.844	0.26
294.309	0.26
294.774	0.26
295.239	0.26
295.703	0.26
296.168	0.26
296.632	0.26
297.097	0.26
297.562	0.26
298.026	0.26
298.491	0.26
298.955	0.25
299.419	0.25
299.884	0.25
300.348	0.25
300.813	0.25
301.277	0.25
301.741	0.25
302.205	0.25
302.67	0.25
303.134	0.25
303.598	0.25
304.062	0.25
304.526	0.25
304.99	0.25
305.454	0.25
305.919	0.25
306.383	0.25
306.847	0.25
307.31	0.25
307.774	0.25
308.238	0.25
308.702	0.25
309.166	0.25
309.63	0.25
310.094	0.25
310.557	0.25
311.021	0.25
311.485	0.25
311.948	0.25
312.412	0.25
312.876	0.25
313.339	0.25
313.803	0.25
314.266	0.25
314.73	0.25
315.193	0.25
315.657	0.25
316.12	0.25
316.584	0.25
317.047	0.25
317.51	0.25
317.973	0.25
318.437	0.25
318.9	0.25
319.363	0.25
319.826	0.25
320.29	0.25
320.753	0.25
321.216	0.25
321.679	0.24
322.142	0.24
322.605	0.24
323.068	0.24
323.531	0.24
323.994	0.24
324.457	0.24
324.92	0.24
325.382	0.24
325.845	0.24
326.308	0.24
326.771	0.24
327.233	0.24
327.696	0.24
328.159	0.24
328.622	0.24
329.084	0.24
329.547	0.24
330.009	0.24
330.472	0.24
330.934	0.24
331.397	0.24
331.859	0.24
332.322	0.24
332.784	0.24
333.246	0.24
333.709	0.24
334.171	0.24
334.633	0.24
335.096	0.24
335.558	0.24
336.02	0.24
336.482	0.24
336.944	0.24
337.406	0.24
337.868	0.24
338.331	0.24
338.793	0.24
339.255	0.24
339.717	0.24
340.178	0.24
340.64	0.23
341.102	0.23
341.564	0.23
342.026	0.23
342.488	0.23
342.949	0.23
343.411	0.23
343.873	0.23
344.335	0.23
344.796	0.23
345.258	0.23
345.719	0.23
346.181	0.23
346.643	0.23
347.104	0.23
347.566	0.23
348.027	0.23
348.488	0.23
348.95	0.23
349.411	0.23
349.873	0.23
350.334	0.23
350.795	0.23
351.256	0.23
351.718	0.23
352.179	0.23
352.64	0.23
353.101	0.23
353.562	0.23
354.023	0.23
354.484	0.23
354.945	0.23
355.406	0.23
355.867	0.23
356.328	0.23
356.789	0.23
357.25	0.23
357.711	0.23
358.172	0.23
358.633	0.23
359.093	0.23
359.554	0.23
360.015	0.23
360.476	0.23
360.936	0.23
361.397	0.23
361.858	0.23
362.318	0.23
362.779	0.23
363.239	0.23
363.7	0.23
364.16	0.23
364.621	0.23
365.081	0.23
365.541	0.23
366.002	0.23
366.462	0.23
366.922	0.23
367.383	0.23
367.843	0.23
368.303	0.23
368.763	0.23
369.223	0.23
369.684	0.23
370.144	0.23
370.604	0.23
371.064	0.23
371.524	0.23
371.984	0.23
372.444	0.23
372.904	0.23
373.363	0.23
373.823	0.23
374.283	0.23
374.743	0.23
375.203	0.23
375.663	0.23
376.122	0.23
376.582	0.23
377.042	0.23
377.501	0.23
377.961	0.23
378.42	0.23
378.88	0.23
379.34	0.23
379.799	0.23
380.259	0.23
380.718	0.23
381.177	0.23
381.637	0.23
382.096	0.23
382.555	0.23
383.015	0.23
383.474	0.23
383.933	0.23
384.393	0.23
384.852	0.23
385.311	0.23
385.77	0.23
386.229	0.23
386.688	0.23
387.147	0.23
387.606	0.23
388.065	0.23
388.524	0.23
388.983	0.23
389.442	0.23
389.901	0.23
390.36	0.23
390.819	0.23
391.277	0.23
391.736	0.23
392.195	0.23
392.654	0.23
393.112	0.23
393.571	0.23
394.03	0.23
394.488	0.23
394.947	0.23
395.405	0.23
395.864	0.23
396.322	0.23
396.781	0.23
397.239	0.23
397.698	0.23
398.156	0.23
398.614	0.23
399.073	0.23
399.531	0.23
399.989	0.23
400.447	0.23
400.905	0.23
401.364	0.23
401.822	0.23
402.28	0.23
402.738	0.23
403.196	0.23
403.654	0.23
404.112	0.23
404.57	0.23
405.028	0.23
405.486	0.23
405.944	0.23
406.402	0.23
406.859	0.23
407.317	0.23
407.775	0.23
408.233	0.23
408.691	0.23
409.148	0.23
409.606	0.23
410.064	0.23
410.521	0.23
410.979	0.23
411.436	0.23
411.894	0.23
412.351	0.23
412.809	0.23
413.266	0.23
413.724	0.23
414.181	0.23
414.638	0.23
415.096	0.23
415.553	0.23
416.01	0.23
416.467	0.23
416.925	0.23
417.382	0.23
417.839	0.23
418.296	0.23
418.753	0.23
419.21	0.23
419.667	0.23
420.124	0.23
420.581	0.23
421.038	0.23
421.495	0.23
421.952	0.23
422.409	0.23
422.866	0.23
423.322	0.23
423.779	0.23
424.236	0.23
424.693	0.23
425.149	0.23
425.606	0.23
426.063	0.23
426.519	0.23
426.976	0.23
427.433	0.23
427.889	0.23
428.346	0.23
428.802	0.23
429.258	0.23
429.715	0.23
430.171	0.23
430.628	0.22
431.084	0.22
431.54	0.22
431.997	0.22
432.453	0.22
432.909	0.22
433.365	0.22
433.821	0.22
434.277	0.22
434.734	0.22
435.19	0.22
435.646	0.22
436.102	0.22
436.558	0.22
437.014	0.22
437.47	0.22
437.925	0.22
438.381	0.22
438.837	0.22
439.293	0.22
439.749	0.22
440.205	0.22
440.66	0.22
441.116	0.22
441.572	0.22
442.027	0.22
442.483	0.22
442.939	0.22
443.394	0.22
443.85	0.22
444.305	0.22
444.761	0.22
445.216	0.22
445.672	0.22
446.127	0.22
446.582	0.22
447.038	0.22
447.493	0.22
447.948	0.22
448.403	0.22
448.859	0.22
449.314	0.22
449.769	0.22
450.224	0.22
450.679	0.22
451.134	0.22
451.589	0.22
452.044	0.22
452.499	0.22
452.954	0.22
453.409	0.22
453.864	0.22
454.319	0.22
454.774	0.22
455.229	0.22
455.684	0.22
456.138	0.22
456.593	0.22
457.048	0.22
457.503	0.22
457.957	0.22
458.412	0.22
458.866	0.22
459.321	0.22
459.776	0.22
460.23	0.22
460.685	0.22
461.139	0.22
461.593	0.22
462.048	0.22
462.502	0.22
462.957	0.22
463.411	0.22
463.865	0.22
464.319	0.22
464.774	0.22
465.228	0.22
465.682	0.22
466.136	0.22
466.59	0.22
467.044	0.22
467.499	0.22
467.953	0.22
468.407	0.22
468.861	0.22
469.315	0.22
469.768	0.22
470.222	0.22
470.676	0.22
471.13	0.22
471.584	0.22
472.038	0.22
472.491	0.22
472.945	0.22
473.399	0.22
473.852	0.22
474.306	0.22
474.76	0.22
475.213	0.22
475.667	0.22
476.12	0.22
476.574	0.22
477.027	0.22
477.481	0.22
477.934	0.22
478.388	0.22
478.841	0.22
479.294	0.22
479.748	0.22
480.201	0.22
480.654	0.22
481.107	0.22
481.561	0.22
482.014	0.22
482.467	0.22
482.92	0.22
483.373	0.22
483.826	0.22
484.279	0.22
484.732	0.22
485.185	0.22
485.638	0.22
486.091	0.23
486.544	0.23
486.997	0.23
487.449	0.23
487.902	0.23
488.355	0.23
488.808	0.23
489.26	0.23
489.713	0.23
490.166	0.23
490.618	0.23
491.071	0.23
491.523	0.23
491.976	0.23
492.429	0.23
492.881	0.23
493.333	0.23
493.786	0.23
494.238	0.24
494.691	0.24
495.143	0.24
495.595	0.24
496.048	0.24
496.5	0.24
496.952	0.24
497.404	0.24
497.856	0.24
498.309	0.24
498.761	0.24
499.213	0.24
499.665	0.24
500.117	0.24
500.569	0.24
501.021	0.25
501.473	0.25
501.925	0.25
502.377	0.25
502.828	0.25
503.28	0.25
503.732	0.25
504.184	0.25
504.636	0.25
505.087	0.25
505.539	0.25
505.991	0.25
506.442	0.25
506.894	0.26
507.345	0.26
507.797	0.26
508.249	0.26
508.7	0.26
509.151	0.26
509.603	0.26
510.054	0.26
510.506	0.26
510.957	0.26
511.408	0.26
511.86	0.27
512.311	0.27
512.762	0.27
513.213	0.27
513.665	0.27
514.116	0.27
514.567	0.27
515.018	0.27
515.469	0.27
515.92	0.27
516.371	0.27
516.822	0.27
517.273	0.28
517.724	0.28
518.175	0.28
518.626	0.28
519.076	0.28
519.527	0.28
519.978	0.28
520.429	0.28
520.88	0.28
521.33	0.28
521.781	0.28
522.232	0.28
522.682	0.28
523.133	0.28
523.583	0.29
524.034	0.29
524.484	0.29
524.935	0.29
525.385	0.29
525.836	0.29
526.286	0.29
526.736	0.29
527.187	0.29
527.637	0.29
528.087	0.29
528.538	0.29
528.988	0.29
529.438	0.29
529.888	0.29
530.338	0.29
530.788	0.3
531.238	0.3
531.688	0.3
532.139	0.3
532.589	0.3
533.038	0.3
533.488	0.3
533.938	0.3
534.388	0.3
534.838	0.3
535.288	0.3
535.738	0.3
536.187	0.3
536.637	0.3
537.087	0.3
537.537	0.3
537.986	0.3
538.436	0.3
538.885	0.31
539.335	0.31
539.785	0.31
540.234	0.31
540.684	0.31
541.133	0.31
541.582	0.31
542.032	0.31
542.481	0.31
542.931	0.31
543.38	0.31
543.829	0.31
544.278	0.31
544.728	0.31
545.177	0.31
545.626	0.31
546.075	0.31
546.524	0.31
546.973	0.31
547.422	0.31
547.871	0.31
548.32	0.31
548.769	0.31
549.218	0.32
549.667	0.32
550.116	0.32
550.565	0.32
551.014	0.32
551.463	0.32
551.911	0.32
552.36	0.32
552.809	0.32
553.258	0.32
553.706	0.32
554.155	0.32
554.603	0.32
555.052	0.32
555.501	0.32
555.949	0.32
556.398	0.32
556.846	0.32
557.294	0.32
557.743	0.32
558.191	0.32
558.64	0.32
559.088	0.32
559.536	0.32
559.985	0.32
560.433	0.32
560.881	0.32
561.329	0.32
561.777	0.32
562.225	0.32
562.674	0.32
563.122	0.32
563.57	0.32
564.018	0.32
564.466	0.32
564.914	0.32
565.362	0.32
565.809	0.32
566.257	0.32
566.705	0.32
567.153	0.32
567.601	0.32
568.048	0.32
568.496	0.32
568.944	0.32
569.392	0.32
569.839	0.32
570.287	0.32
570.734	0.32
571.182	0.32
571.63	0.32
572.077	0.32
572.525	0.32
572.972	0.32
573.419	0.32
573.867	0.32
574.314	0.32
574.761	0.32
575.209	0.32
575.656	0.32
576.103	0.32
576.551	0.32
576.998	0.32
577.445	0.32
577.892	0.32
578.339	0.32
578.786	0.32
579.233	0.32
579.68	0.32
580.127	0.32
580.574	0.32
581.021	0.32
581.468	0.32
581.915	0.32
582.362	0.32
582.809	0.32
583.255	0.31
583.702	0.31
584.149	0.31
584.596	0.31
585.042	0.31
585.489	0.31
585.936	0.31
586.382	0.31
586.829	0.31
587.275	0.31
587.722	0.31
588.168	0.31
588.615	0.31
589.061	0.31
589.508	0.31
589.954	0.3
590.4	0.31
590.847	0.31
591.293	0.3
591.739	0.3
592.185	0.3
592.632	0.3
593.078	0.3
593.524	0.3
593.97	0.3
594.416	0.3
594.862	0.3
595.308	0.3
595.754	0.3
596.2	0.3
596.646	0.3
597.092	0.3
597.538	0.3
597.984	0.3
598.43	0.3
598.876	0.29
599.321	0.29
599.767	0.29
600.213	0.29
600.659	0.29
601.104	0.29
601.55	0.29
601.995	0.29
602.441	0.28
602.887	0.28
603.332	0.28
603.778	0.28
604.223	0.28
604.668	0.28
605.114	0.28
605.559	0.28
606.005	0.28
606.45	0.28
606.895	0.28
607.341	0.28
607.786	0.28
608.231	0.27
608.676	0.27
609.121	0.27
609.566	0.27
610.012	0.27
610.457	0.27
610.902	0.27
611.347	0.27
611.792	0.27
612.237	0.27
612.682	0.27
613.127	0.27
613.571	0.27
614.016	0.26
614.461	0.26
614.906	0.26
615.351	0.26
615.795	0.26
616.24	0.26
616.685	0.26
617.129	0.26
617.574	0.26
618.019	0.25
618.463	0.25
618.908	0.25
619.352	0.25
619.797	0.25
620.241	0.25
620.686	0.25
621.13	0.25
621.574	0.25
622.019	0.25
622.463	0.25
622.907	0.24
623.352	0.24
623.796	0.24
624.24	0.24
624.684	0.24
625.128	0.24
625.572	0.24
626.016	0.24
626.461	0.24
626.905	0.24
627.349	0.24
627.793	0.24
628.236	0.24
628.68	0.24
629.124	0.24
629.568	0.24
630.012	0.23
630.456	0.23
630.9	0.23
631.343	0.23
631.787	0.23
632.231	0.23
632.674	0.23
633.118	0.23
633.562	0.23
634.005	0.23
634.449	0.23
634.892	0.23
635.336	0.23
635.779	0.23
636.223	0.23
636.666	0.23
637.109	0.23
637.553	0.23
637.996	0.23
638.439	0.23
638.883	0.23
639.326	0.23
639.769	0.23
640.212	0.23
640.655	0.23
641.099	0.23
641.542	0.23
641.985	0.23
642.428	0.23
642.871	0.23
643.314	0.23
643.757	0.23
644.2	0.23
644.643	0.23
645.085	0.23
645.528	0.23
645.971	0.23
646.414	0.23
646.857	0.23
647.299	0.23
647.742	0.23
648.185	0.23
648.627	0.23
649.07	0.23
649.513	0.23
649.955	0.24
650.398	0.24
650.84	0.24
651.283	0.24
651.725	0.24
652.168	0.24
652.61	0.24
653.052	0.24
653.495	0.24
653.937	0.19
654.379	0.15
654.821	0.15
655.264	0.15
655.706	0.15
656.148	0.16
656.59	0.16
657.032	0.16
657.474	0.16
657.916	0.15
658.358	0.15
658.8	0.19
659.242	0.25
659.684	0.25
660.126	0.25
660.568	0.25
661.01	0.26
661.452	0.26
661.894	0.26
662.335	0.26
662.777	0.26
663.219	0.26
663.661	0.26
664.102	0.26
664.544	0.26
664.985	0.26
665.427	0.26
665.869	0.27
666.31	0.27
666.752	0.27
667.193	0.27
667.634	0.27
668.076	0.27
668.517	0.28
668.959	0.28
669.4	0.28
669.841	0.28
670.282	0.28
670.724	0.28
671.165	0.28
671.606	0.29
672.047	0.29
672.488	0.29
672.929	0.29
673.37	0.29
673.811	0.29
674.252	0.29
674.693	0.29
675.134	0.29
675.575	0.29
676.016	0.29
676.457	0.29
676.898	0.3
677.339	0.3
677.78	0.3
678.22	0.3
678.661	0.3
679.102	0.3
679.542	0.3
679.983	0.3
680.424	0.3
680.864	0.3
681.305	0.3
681.745	0.3
682.186	0.31
682.626	0.31
683.067	0.31
683.507	0.31
683.948	0.31
684.388	0.31
684.828	0.31
685.269	0.31
685.709	0.31
686.149	0.31
686.589	0.31
687.029	0.31
687.47	0.32
687.91	0.32
688.35	0.32
688.79	0.32
689.23	0.32
689.67	0.32
690.11	0.32
690.55	0.32
690.99	0.32
691.43	0.32
691.87	0.32
692.31	0.32
692.749	0.32
693.189	0.32
693.629	0.32
694.069	0.32
694.508	0.32
694.948	0.32
695.388	0.32
695.827	0.32
696.267	0.32
696.706	0.32
697.146	0.33
697.586	0.33
698.025	0.33
698.464	0.33
698.904	0.33
699.343	0.33
699.783	0.33
700.222	0.33
700.661	0.33
701.101	0.33
701.54	0.33
701.979	0.33
702.418	0.33
702.857	0.33
703.297	0.33
703.736	0.33
704.175	0.33
704.614	0.33
705.053	0.33
705.492	0.33
705.931	0.33
706.37	0.33
706.809	0.33
707.248	0.33
707.687	0.33
708.125	0.33
708.564	0.33
709.003	0.33
709.442	0.33
709.88	0.33
710.319	0.33
710.758	0.33
711.196	0.33
711.635	0.33
712.074	0.33
712.512	0.33
712.951	0.33
713.389	0.33
713.828	0.33
714.266	0.33
714.705	0.33
715.143	0.33
715.581	0.33
716.02	0.34
716.458	0.34
716.896	0.34
717.334	0.34
717.773	0.34
718.211	0.34
718.649	0.34
719.087	0.34
719.525	0.34
719.963	0.34
720.401	0.34
720.839	0.33
721.277	0.33
721.715	0.33
722.153	0.33
722.591	0.33
723.029	0.33
723.467	0.33
723.905	0.33
724.342	0.33
724.78	0.33
725.218	0.33
725.656	0.33
726.093	0.33
726.531	0.33
726.969	0.33
727.406	0.33
727.844	0.33
728.281	0.33
728.719	0.33
729.156	0.33
729.594	0.33
730.031	0.33
730.469	0.33
730.906	0.33
731.343	0.33
731.781	0.33
732.218	0.33
732.655	0.33
733.092	0.33
733.53	0.33
733.967	0.33
734.404	0.33
734.841	0.33
735.278	0.33
735.715	0.33
736.152	0.33
736.589	0.33
737.026	0.33
737.463	0.33
737.9	0.33
738.337	0.33
738.774	0.33
739.211	0.33
739.647	0.33
740.084	0.33
740.521	0.33
740.958	0.33
741.394	0.33
741.831	0.33
742.268	0.33
742.704	0.33
743.141	0.33
743.577	0.33
744.014	0.33
744.45	0.33
744.887	0.33
745.323	0.33
745.76	0.33
746.196	0.32
746.632	0.32
747.069	0.32
747.505	0.32
747.941	0.32
748.378	0.32
748.814	0.32
749.25	0.32
749.686	0.32
750.122	0.32
750.558	0.32
750.994	0.32
751.43	0.32
751.866	0.32
752.302	0.32
752.738	0.32
753.174	0.32
753.61	0.32
754.046	0.32
754.482	0.32
754.918	0.32
755.354	0.32
755.789	0.32
756.225	0.32
756.661	0.32
757.096	0.32
757.532	0.32
757.968	0.32
758.403	0.32
758.839	0.32
759.274	0.32
759.71	0.32
760.145	0.32
760.581	0.31
761.016	0.32
761.452	0.32
761.887	0.31
762.322	0.31
762.758	0.31
763.193	0.31
763.628	0.31
764.063	0.31
764.499	0.31
764.934	0.31
765.369	0.31
765.804	0.31
766.239	0.31
766.674	0.31
767.109	0.31
767.544	0.31
767.979	0.31
768.414	0.31
768.849	0.31
769.284	0.31
769.719	0.31
770.154	0.31
770.588	0.31
771.023	0.31
771.458	0.3
771.893	0.3
772.327	0.3
772.762	0.3
773.197	0.3
773.631	0.3
774.066	0.3
774.5	0.3
774.935	0.3
775.369	0.3
775.804	0.3
776.238	0.3
776.673	0.3
777.107	0.3
777.541	0.3
777.976	0.3
778.41	0.3
778.844	0.3
779.279	0.3
779.713	0.3
780.147	0.3
780.581	0.3
781.015	0.29
781.449	0.29
781.883	0.29
782.317	0.29
782.751	0.29
783.185	0.29
783.619	0.29
784.053	0.29
784.487	0.29
784.921	0.29
785.355	0.29
785.789	0.29
786.223	0.29
786.656	0.29
787.09	0.29
787.524	0.29
787.957	0.29
788.391	0.29
788.825	0.29
789.258	0.29
789.692	0.29
790.125	0.29
790.559	0.28
790.992	0.28
791.426	0.28
791.859	0.28
792.293	0.28
792.726	0.28
793.159	0.28
793.593	0.28
794.026	0.28
794.459	0.28
794.892	0.28
795.326	0.28
795.759	0.28
796.192	0.28
796.625	0.28
797.058	0.28
797.491	0.28
797.924	0.28
798.357	0.28
798.79	0.28
799.223	0.27
799.656	0.27
800.089	0.27
800.522	0.27
800.955	0.27
801.387	0.27
801.82	0.27
802.253	0.27
802.686	0.27
803.118	0.27
803.551	0.26
803.984	0.26
804.416	0.26
804.849	0.26
805.281	0.26
805.714	0.26
806.146	0.26
806.579	0.26
807.011	0.26
807.444	0.26
807.876	0.26
808.308	0.26
808.741	0.26
809.173	0.26
809.605	0.26
810.037	0.26
810.47	0.26
810.902	0.26
811.334	0.26
811.766	0.26
812.198	0.26
812.63	0.25
813.062	0.25
813.494	0.25
813.926	0.25
814.358	0.25
814.79	0.25
815.222	0.25
815.654	0.25
816.086	0.25
816.518	0.25
816.949	0.25
817.381	0.24
817.813	0.24
818.245	0.24
818.676	0.24
819.108	0.24
819.54	0.24
819.971	0.24
820.403	0.24
820.834	0.24
821.266	0.24
821.697	0.24
822.129	0.24
822.56	0.24
822.991	0.24
823.423	0.24
823.854	0.24
824.286	0.24
824.717	0.24
825.148	0.24
825.579	0.24
826.01	0.24
826.442	0.24
826.873	0.24
827.304	0.24
827.735	0.24
828.166	0.24
828.597	0.24
829.028	0.24
829.459	0.24
829.89	0.24
830.321	0.24
830.752	0.24
831.183	0.24
831.613	0.24
832.044	0.23
832.475	0.23
832.906	0.23
833.336	0.23
833.767	0.23
834.198	0.23
834.628	0.23
835.059	0.23
835.49	0.23
835.92	0.23
836.351	0.23
836.781	0.23
837.212	0.23
837.642	0.22
838.072	0.22
838.503	0.22
838.933	0.22
839.364	0.22
839.794	0.22
840.224	0.22
840.654	0.22
841.085	0.22
841.515	0.22
841.945	0.22
842.375	0.22
842.805	0.22
843.235	0.22
843.665	0.22
844.095	0.22
844.525	0.22
844.955	0.22
845.385	0.22
845.815	0.22
846.245	0.22
846.675	0.22
847.105	0.22
847.534	0.22
847.964	0.22
848.394	0.22
848.824	0.22
849.253	0.21
849.683	0.21
850.112	0.21
850.542	0.21
850.972	0.21
851.401	0.21
851.831	0.21
852.26	0.21
852.69	0.21
853.119	0.21
853.548	0.21
853.978	0.2
854.407	0.2
854.836	0.2
855.266	0.2
855.695	0.2
856.124	0.2
856.553	0.2
856.983	0.2
857.412	0.2
857.841	0.2
858.27	0.2
858.699	0.2
859.128	0.2
859.557	0.2
859.986	0.2
860.415	0.2
860.844	0.21
861.273	0.21
861.702	0.2
862.13	0.2
862.559	0.2
862.988	0.2
863.417	0.2
863.845	0.2
864.274	0.2
864.703	0.2
865.131	0.2
865.56	0.2
865.989	0.2
866.417	0.19
866.846	0.19
867.274	0.2
867.703	0.2
868.131	0.19
868.559	0.2
868.988	0.19
869.416	0.19
869.844	0.19
870.273	0.19
870.701	0.19
871.129	0.19
871.557	0.19
871.986	0.19
872.414	0.19
872.842	0.19
873.27	0.19
873.698	0.19
874.126	0.19
874.554	0.19
874.982	0.19
875.41	0.19
875.838	0.19
876.266	0.19
876.694	0.19
877.122	0.18
877.549	0.18
877.977	0.18
878.405	0.18
878.833	0.18
879.26	0.18
879.688	0.18
880.116	0.18
880.543	0.18
880.971	0.18
881.399	0.18
881.826	0.18
882.254	0.18
882.681	0.17
883.109	0.17
883.536	0.17
883.963	0.17
884.391	0.17
884.818	0.17
885.245	0.17
885.673	0.17
886.1	0.17
886.527	0.17
886.954	0.17
887.381	0.17
887.809	0.17
888.236	0.17
888.663	0.17
889.09	0.17
889.517	0.17
889.944	0.17
890.371	0.17
890.798	0.17
891.225	0.17
891.652	0.17
892.078	0.17
892.505	0.17
892.932	0.17
893.359	0.17
893.786	0.17
894.212	0.17
894.639	0.17
895.066	0.17
895.492	0.17
895.919	0.17
896.346	0.17
896.772	0.16
897.199	0.16
897.625	0.16
898.052	0.16
898.478	0.16
898.904	0.16
899.331	0.15
899.757	0.15
900.183	0.15
900.61	0.15
901.036	0.15
901.462	0.15
901.888	0.15
902.315	0.15
902.741	0.15
903.167	0.15
903.593	0.15
904.019	0.15
904.445	0.15
904.871	0.15
905.297	0.15
905.723	0.15
906.149	0.15
906.575	0.15
907.001	0.15
907.427	0.15
907.852	0.15
908.278	0.15
908.704	0.15
909.13	0.15
909.555	0.15
909.981	0.15
910.407	0.15
910.832	0.15
911.258	0.15
911.684	0.15
912.109	0.15
912.535	0.15
912.96	0.15
913.386	0.15
913.811	0.15
914.236	0.15
914.662	0.15
915.087	0.15
915.512	0.15
915.938	0.15
916.363	0.15
916.788	0.15
917.213	0.15
917.639	0.15
918.064	0.15
918.489	0.15
918.914	0.15
919.339	0.15
919.764	0.15
920.189	0.15
920.614	0.15
921.039	0.15
921.464	0.15
921.889	0.15
922.314	0.15
922.738	0.15
923.163	0.15
923.588	0.14
924.013	0.14
924.437	0.14
924.862	0.14
925.287	0.14
925.711	0.14
926.136	0.14
926.561	0.14
926.985	0.14
927.41	0.14
927.834	0.14
928.259	0.14
928.683	0.14
929.108	0.14
929.532	0.14
929.956	0.14
930.381	0.14
930.805	0.14
931.229	0.14
931.653	0.14
932.078	0.14
932.502	0.14
932.926	0.14
933.35	0.14
933.774	0.14
934.198	0.14
934.622	0.14
935.046	0.14
935.47	0.14
935.894	0.14
936.318	0.14
936.742	0.14
937.166	0.14
937.59	0.14
938.014	0.14
938.437	0.13
938.861	0.13
939.285	0.13
939.709	0.13
940.132	0.13
940.556	0.13
940.98	0.13
941.403	0.13
941.827	0.13
942.25	0.13
942.674	0.13
943.097	0.13
943.521	0.13
943.944	0.12
944.368	0.12
944.791	0.12
945.214	0.12
945.638	0.12
946.061	0.12
946.484	0.12
946.907	0.13
947.331	0.13
947.754	0.13
948.177	0.13
948.6	0.13
949.023	0.13
949.446	0.13
949.869	0.13
950.292	0.13
950.715	0.13
951.138	0.13
951.561	0.13
951.984	0.13
952.407	0.13
952.83	0.13
953.252	0.13
953.675	0.13
954.098	0.13
954.521	0.13
954.943	0.13
955.366	0.13
955.789	0.13
956.211	0.13
956.634	0.12
957.056	0.12
957.479	0.12
957.902	0.12
958.324	0.12
958.746	0.12
959.169	0.12
959.591	0.12
960.014	0.12
960.436	0.12
960.858	0.12
961.281	0.12
961.703	0.12
962.125	0.12
962.547	0.12
962.969	0.12
963.391	0.12
963.814	0.12
964.236	0.12
964.658	0.12
965.08	0.12
965.502	0.12
965.924	0.12
966.346	0.12
966.768	0.12
967.189	0.12
967.611	0.12
968.033	0.12
968.455	0.12
968.877	0.12
969.298	0.12
969.72	0.12
970.142	0.11
970.563	0.11
970.985	0.11
971.407	0.11
971.828	0.11
972.25	0.11
972.671	0.11
973.093	0.11
973.514	0.11
973.936	0.11
974.357	0.11
974.778	0.11
975.2	0.11
975.621	0.11
976.042	0.11
976.464	0.11
976.885	0.11
977.306	0.11
977.727	0.11
978.148	0.11
978.57	0.11
978.991	0.11
979.412	0.11
979.833	0.11
980.254	0.11
980.675	0.11
981.096	0.11
981.517	0.11
981.937	0.11
982.358	0.11
982.779	0.11
983.2	0.11
983.621	0.11
984.042	0.11
984.462	0.11
984.883	0.11
985.304	0.11
985.724	0.11
986.145	0.11
986.565	0.11
986.986	0.11
987.407	0.11
987.827	0.11
988.248	0.11
988.668	0.11
989.088	0.1
989.509	0.1
989.929	0.1
990.35	0.1
990.77	0.1
991.19	0.1
991.61	0.1
992.031	0.1
992.451	0.1
992.871	0.1
993.291	0.1
993.711	0.1
994.131	0.1
994.551	0.1
994.971	0.1
995.391	0.1
995.811	0.1
996.231	0.1
996.651	0.1
997.071	0.1
997.491	0.1
997.911	0.1
998.331	0.1
998.75	0.1
999.17	0.1
999.59	0.1
1000.009	0.1
1000.429	0.1
1000.849	0.1
1001.268	0.1
1001.688	0.1
1002.107	0.1
1002.527	0.1
1002.946	0.1
1003.366	0.1
1003.785	0.1
1004.205	0.1
1004.624	0.1
1005.044	0.1
1005.463	0.1
1005.882	0.1
1006.301	0.1
1006.721	0.1
1007.14	0.1
1007.559	0.1
1007.978	0.1
1008.397	0.1
1008.816	0.1
1009.235	0.1
1009.655	0.1
1010.074	0.1
1010.492	0.1
1010.911	0.1
1011.33	0.1
1011.749	0.1
1012.168	0.1
1012.587	0.1
1013.006	0.1
1013.425	0.1
1013.843	0.1
1014.262	0.1
1014.681	0.09
1015.099	0.09
1015.518	0.09
1015.937	0.09
1016.355	0.09
1016.774	0.09
1017.192	0.09
1017.611	0.09
1018.029	0.09
1018.448	0.09
1018.866	0.09
1019.285	0.09
1019.703	0.09
1020.121	0.09
1020.54	0.1
1020.958	0.1
1021.376	0.09
1021.794	0.09
1022.213	0.09
1022.631	0.09
1023.049	0.09
1023.467	0.09
1023.885	0.09
1024.303	0.09
1024.721	0.09
1025.139	0.09
1025.557	0.09
1025.975	0.09
1026.393	0.09
1026.811	0.09
1027.229	0.09
1027.647	0.09
1028.065	0.09
1028.482	0.09
1028.9	0.09
1029.318	0.08
1029.735	0.08
1030.153	0.08
1030.571	0.08
1030.988	0.08
1031.406	0.08
1031.823	0.08
1032.241	0.08
1032.659	0.08
1033.076	0.08
1033.493	0.08
1033.911	0.08
1034.328	0.08
1034.746	0.08
1035.163	0.08
1035.58	0.08
1035.997	0.08
1036.415	0.08
1036.832	0.07
1037.249	0.07
1037.666	0.07
1038.083	0.07
1038.501	0.07
1038.918	0.07
1039.335	0.07
1039.752	0.08
1040.169	0.08
1040.586	0.08
1041.003	0.08
1041.419	0.08
1041.836	0.08
1042.253	0.08
1042.67	0.08
1043.087	0.08
1043.504	0.08
1043.92	0.08
1044.337	0.08
1044.754	0.08
1045.17	0.08
1045.587	0.08
1046.004	0.07
1046.42	0.07
1046.837	0.07
1047.253	0.07
1047.67	0.07
1048.086	0.07
1048.503	0.07
1048.919	0.07
1049.335	0.07
1049.752	0.07
1050.168	0.07
1050.584	0.07
1051.001	0.07
1051.417	0.07
1051.833	0.06
1052.249	0.06
1052.665	0.06
1053.081	0.06
1053.497	0.06
1053.914	0.06
1054.33	0.06
1054.746	0.06
1055.162	0.06
1055.578	0.06
1055.993	0.06
1056.409	0.06
1056.825	0.06
1057.241	0.06
1057.657	0.06
1058.073	0.06
1058.488	0.06
1058.904	0.06
1059.32	0.06
1059.736	0.06
1060.151	0.06
1060.567	0.06
1060.982	0.06
1061.398	0.06
1061.813	0.06
1062.229	0.06
1062.644	0.06
1063.06	0.06
1063.475	0.06
1063.891	0.06
1064.306	0.06
1064.721	0.06
1065.137	0.06
1065.552	0.06
1065.967	0.06
1066.382	0.06
1066.798	0.06
1067.213	0.06
1067.628	0.06
1068.043	0.06
1068.458	0.06
1068.873	0.06
1069.288	0.05
1069.703	0.05
1070.118	0.05
1070.533	0.05
1070.948	0.05
1071.363	0.05
1071.778	0.05
1072.193	0.05
1072.607	0.05
1073.022	0.05
1073.437	0.05
1073.852	0.05
1074.266	0.05
1074.681	0.05
1075.096	0.05
1075.51	0.05
1075.925	0.05
1076.339	0.05
1076.754	0.04
1077.168	0.04
1077.583	0.04
1077.997	0.04
1078.412	0.04
1078.826	0.04
1079.24	0.04
1079.655	0.04
1080.069	0.04
1080.483	0.04
1080.897	0.04
1081.312	0.04
1081.726	0.04
1082.14	0.04
1082.554	0.04
1082.968	0.03
1083.382	0.03
1083.796	0.03
1084.21	0.03
1084.624	0.03
1085.038	0.03
1085.452	0.03
1085.866	0.03
1086.28	0.03
1086.694	0.03
1087.108	0.03
1087.521	0.03
1087.935	0.03
1088.349	0.03
1088.763	0.03
1089.176	0.03
1089.59	0.03
1090.004	0.02
1090.417	0.02
1090.831	0.02
1091.244	0.02
1091.658	0.03
1092.071	0.03
1092.485	0.03
1092.898	0.03
1093.312	0.03
1093.725	0.03
1094.138	0.03
1094.552	0.03
1094.965	0.02
1095.378	0.02
1095.791	0.02
1096.205	0.02
1096.618	0.02
1097.031	0.02
1097.444	0.02
1097.857	0.02
1098.27	0.02
1098.683	0.01
1099.096	0.01
1099.509	0.01
1099.922	0.01
1100.335	0.01
1100.748	0.01
1101.161	0
1101.574	0
1101.986	0
1102.399	-0
1102.812	-0
1103.225	-0.01
1103.637	-0.01
1104.05	-0.01
1104.463	-0.01
1104.875	-0.01
1105.288	-0.01
1105.7	-0.01
1106.113	-0.02
1106.525	-0.02
1106.938	-0.02
1107.35	-0.03
1107.763	-0.03
1108.175	-0.03
1108.588	-0.03
1109	-0.03
1109.412	-0.04
1109.824	-0.04
1110.237	-0.04
1110.649	-0.05
1111.061	-0.05
